File: ensaios_Ciclicos/_30perc/_2gap/entrada/_1.txt
Time (s)	Load (N)	Displacement (mm)
45,647	-4,5	-1,192
47,797	-3,5	-1,093
49,885	0	-0,692
52,057	1	-0,654
54,181	3	-0,577
56,292	4	-0,317
58,47	3	-0,42
61,038	-13	-2,468
63,318	-19	-3,098
65,466	-18,5	-3,056
67,53	-14,5	-2,6
69,546	-8	-1,968
71,562	-4	-1,175
73,703	-3,5	-1,178
75,727	3	-0,456
77,735	4,5	-0,001
79,793	4,5	-0,004
81,875	4,5	-0,014
83,963	4,5	-0,04
86,087	4	-0,072
88,073	0	-0,661
133,31	-9,5	-1,999
135,386	-14,5	-2,355
137,51	-17,5	-2,574
139,472	-24	-3,499
141,475	-24	-3,493
143,413	-17,5	-3,25
145,454	-11,5	-2,639
147,529	-7,5	-2,18
149,599	-5,5	-1,688
151,525	2	-0,574
153,529	5	-0,001
155,593	5	-0,003
157,633	5	-0,018
160,221	-1	-0,873
162,258	4,5	-0,253
164,262	5	-0,001
166,29	5	-0,013
168,295	4	-0,138
170,274	-0,5	-0,964
172,296	-4,5	-1,663
174,294	-15	-2,513
176,28	-23	-3,378
178,343	-23,5	-3,499
180,305	-23	-3,479
182,351	-20,5	-3,414
184,457	-19	-3,254
186,521	-13,5	-2,752
188,537	-7	-2,002
190,577	-4	-1,442
192,575	1,5	-0,597
195,094	-10	-2,433
197,099	-4	-1,494
199,055	3,5	-0,422
201,088	5	-0,001
203,051	5	-0,018
204,964	1	-0,599
206,992	-2	-1,378
208,96	-12	-2,378
210,868	-23	-3,499
212,841	-23	-3,49
214,864	-21,5	-3,42
258,025	-18,5	-3,329
259,999	-9	-2,472
261,991	-3,5	-1,496
263,959	3	-0,527
265,854	5	-0,004
268,248	3,5	-0,391
270,138	5,5	-0,006
272,04	3,5	-0,337
273,87	-6	-2,006
275,796	-21,5	-3,207
277,764	-22	-3,497
279,618	-14	-3,2
281,52	-5	-1,843
283,361	4,5	-0,29
285,311	5	-0,003
287,273	5	-0,054
289,223	0,5	-0,889
291,179	-6	-1,84
293,159	-18,5	-2,911
295,049	-22	-3,496
297,023	-19,5	-3,408
298,871	-5	-2,105
300,874	-1,5	-1,242
302,824	5,5	-0,07
304,756	5,5	-0,008
307,108	5,5	0
309,064	5,5	-0,01
310,936	1,5	-0,673
312,892	-4,5	-1,739
314,83	-19	-2,906
316,75	-21,5	-3,497
318,646	-17	-3,296
320,529	-4,5	-1,869
322,431	3,5	-0,527
324,357	5,5	-0,002
326,301	4,5	-0,077
328,185	-0,5	-1,294
330,111	-11	-2,414
331,989	-21,5	-3,499
333,884	-20	-3,425
335,792	-7	-2,296
415,618	5	-0,001
417,442	4	-0,162
419,236	-5,5	-1,943
421,107	-20,5	-3,458
422,979	-20,5	-3,474
424,833	-7,5	-2,427
426,663	0,5	-0,747
428,553	5,5	-0,002
430,791	5,5	-0,001
432,585	3,5	-0,252
434,415	-5,5	-1,925
436,221	-20,5	-3,499
438,063	-18,5	-3,431
439,88	-4,5	-1,832
441,686	5	0
443,588	5,5	-0,02
445,46	1	-0,88
447,332	-10	-2,33
449,21	-20,5	-3,499
451,052	-16,5	-3,348
452,918	-4,5	-1,913
492,725	-20	-3,5
494,519	-18	-3,394
496,319	-3,5	-1,712
498,137	5,5	0
499,967	5	-0,051
501,785	-2	-1,54
503,633	-19,5	-3,18
505,515	-20	-3,494
507,359	-9	-2,659
509,219	-1	-1,122
511,036	5,5	-0,002
512,86	2,5	-0,44
514,696	-6	-2,154
516,496	-20	-3,498
518,326	-13	-3,121
520,114	-2	-1,252
521,972	5,5	-0,001
523,78	3,5	-0,217
525,598	-4	-1,893
527,409	-20	-3,499
529,227	-18	-3,41
531,039	-3,5	-1,82
532,887	5	-0,232
534,723	5,5	-0,022
536,529	-0,5	-1,285
538,353	-16,5	-3,012
540,159	-20	-3,48
541,965	-6	-2,271
543,789	3,5	-0,533
545,588	5	-0,015
547,388	0	-1,164
549,206	-16,5	-2,948
550,988	-19,5	-3,476
552,854	-7,5	-2,434
554,726	0	-0,916
556,526	5,5	-0,004
558,35	1,5	-0,706
560,173	-9	-2,431
562,016	-20	-3,498
563,809	-11,5	-3,001
565,645	-2	-1,342
605,339	-20	-3,496
607,133	-9	-2,705
608,975	-1	-1,005
610,763	5,5	-0,005
612,575	1	-0,96
614,417	-11,5	-2,644
616,198	-19,5	-3,491
618,035	-8,5	-2,63
619,846	-0,5	-0,881
621,658	5,5	-0,005
623,476	1,5	-0,768
625,3	-10	-2,494
627,136	-19,5	-3,497
628,972	-11	-2,949
630,753	-0,5	-0,944
632,541	5,5	-0,005
634,347	1	-0,918
636,159	-12	-2,656
637,983	-19,5	-3,496
639,777	-8	-2,596
641,565	0,5	-0,762
643,401	5,5	-0,006
645,243	1,5	-0,692
647,043	-9	-2,416
648,872	-19,5	-3,498
650,684	-12	-3,025
652,49	-1,5	-1,258
654,284	5,5	-0,002
656,114	3	-0,428
657,932	-6,5	-2,247
659,774	-19,5	-3,499
661,574	-13	-3,157
663,416	-2,5	-1,522
665,228	5	-0,001
667,015	3,5	-0,224
668,869	-3	-1,795
670,735	-19	-3,323
672,565	-19	-3,47
674,359	-4,5	-2,136
676,171	5	-0,318
677,983	5,5	-0,03
717,215	5,5	-0,001
719,008	3,5	-0,221
720,85	-2,5	-1,78
722,644	-19	-3,499
724,468	-17	-3,399
726,298	-2,5	-1,776
728,128	5,5	-0,006
729,922	5	-0,092
731,716	-2,5	-1,784
733,564	-19	-3,44
735,4	-18	-3,464
737,218	-4,5	-2,106
739,005	5	-0,261
740,787	5	-0,046
742,587	-1	-1,552
744,393	-19	-3,35
746,187	-17,5	-3,438
747,981	-3,5	-1,841
749,805	5,5	-0,137
751,605	5	-0,056
753,393	-1,5	-1,595
755,174	-19	-3,5
756,992	-17	-3,413
758,822	-3	-1,828
760,628	5,5	0
762,428	4,5	-0,082
764,216	-3	-1,799
766,01	-19	-3,499
767,828	-15,5	-3,393
769,658	-3	-1,765
771,469	5,5	0
773,263	4	-0,125
775,075	-3,5	-1,876
776,863	-19	-3,499
778,651	-12,5	-3,254
780,493	-2	-1,589
782,311	5,5	0
784,111	4	-0,143
785,917	-3,5	-1,914
788,197	-0,5	-1,432
790,008	-18,5	-3,24
866,265	-5	-2,1
868,094	-18,5	-3,499
869,912	-15	-3,344
871,7	-1,5	-1,465
873,476	5,5	-0,002
875,305	3	-0,342
877,099	-6	-2,234
878,905	-18,5	-3,498
880,717	-10,5	-3,051
882,505	-1	-1,199
884,281	5,5	-0,003
886,087	1,5	-0,692
887,869	-10,5	-2,658
889,651	-18,5	-3,49
891,463	-6,5	-2,542
893,257	1,5	-0,661
895,063	5,5	-0,012
896,868	0,5	-1,083
898,644	-17	-3,055
900,45	-18,5	-3,48
902,28	-5,5	-2,357
904,074	3,5	-0,48
905,886	5,5	-0,019
907,68	0	-1,304
909,474	-17,5	-3,139
911,261	-17,5	-3,461
913,055	-3,5	-1,971
914,885	5,5	-0,201
916,649	4,5	-0,085
918,455	-2,5	-1,73
920,249	-18	-3,499
922,067	-15,5	-3,394
923,843	-1,5	-1,562
925,649	5,5	-0,001
927,437	3,5	-0,246
929,236	-4,5	-2,066
931,012	-18,5	-3,498
932,807	-11	-3,052
934,618	-1	-1,298
936,394	5,5	-0,002
938,176	1,5	-0,734
939,988	-8,5	-2,514
941,776	-18,5	-3,496
943,57	-7,5	-2,722
945,388	0	-0,937
947,182	5,5	-0,004
948,993	1,5	-0,786
950,811	-9	-2,432
952,647	-18,5	-3,497
954,477	-10,5	-3,057
956,265	-1	-1,173
958,035	5,5	-0,004
959,835	1,5	-0,75
961,611	-12	-2,708
963,398	-18	-3,49
965,192	-5,5	-2,425
966,968	4	-0,427
968,75	5	-0,033
970,544	-0,5	-1,465
972,38	-17,5	-3,143
974,228	-18	-3,485
976,022	-5	-2,327
1051,736	-3,5	-2,055
1053,567	4	-0,47
1055,355	5	-0,027
1057,161	0	-1,343
1058,949	-18	-3,258
1060,749	-17	-3,452
1062,568	-4	-2,071
1064,349	5	-0,114
1066,137	4,5	-0,068
1067,979	0	-1,47
1069,784	-17,5	-3,274
1071,608	-17,5	-3,471
1073,402	-3,5	-1,991
1075,208	5	-0,112
1077,014	4,5	-0,059
1078,808	-1,5	-1,655
1080,608	-18	-3,5
1082,396	-14	-3,36
1084,208	-2,5	-1,597
1085,984	5	-0,001
1087,759	2,5	-0,49
1089,559	-6	-2,368
1091,389	-18	-3,498
1093,153	-8,5	-2,855
1094,941	-0,5	-0,966
1096,753	5,5	-0,003
1098,547	1,5	-0,71
1100,353	-9,5	-2,599
1102,153	-18	-3,494
1103,928	-5,5	-2,448
1105,717	2,5	-0,532
1107,54	5,5	-0,011
1109,328	0	-1,17
1111,116	-15	-3,071
1112,898	-17,5	-3,468
1114,692	-4	-2,137
1116,468	5	-0,186
1118,268	5	-0,046
1120,068	-1	-1,559
1121,861	-17,5	-3,494
1123,673	-16	-3,439
1125,449	-2	-1,736
1127,261	5,5	-0,002
1129,037	4	-0,136
1130,843	-2,5	-1,881
1132,643	-17,5	-3,499
1134,431	-12,5	-3,29
1136,225	-1,5	-1,462
1138,031	5,5	-0,001
1139,836	3,5	-0,203
1141,642	-3	-1,934
1143,454	-17,5	-3,499
1145,236	-12,5	-3,232
1147,024	-1	-1,283
1148,818	5,5	-0,002
1150,6	2,5	-0,574
1152,376	-7,5	-2,545
1154,146	-17,5	-3,495
1155,982	-7,5	-2,712
1157,763	0	-0,792
1159,563	5,5	-0,008
1161,405	1,5	-0,75
1163,199	-9	-2,615
1164,993	-17,5	-3,494
1166,775	-6	-2,48
1168,563	2	-0,622
1170,375	5,5	-0,011
1172,169	0,5	-1,126
1173,932	-15,5	-3,048
1175,726	-17,5	-3,48
1177,538	-4,5	-2,167
1179,326	5	-0,303
1181,12	5	-0,041
1182,908	-0,5	-1,468
1184,72	-17,5	-3,284
1186,514	-17	-3,453
1188,296	-3	-1,847
1190,084	5,5	0
1191,889	5	-0,076
1193,678	-1,5	-1,767
1195,483	-17,5	-3,5
1197,241	-12,5	-3,243
1199,041	-1,5	-1,386
1200,871	5,5	-0,001
1202,677	3,5	-0,278
1204,465	-4,5	-2,161
1206,271	-17,5	-3,498
1208,035	-9	-2,895
1209,81	-0,5	-0,902
1211,586	5,5	-0,007
1213,35	0,5	-1,123
1215,132	-15,5	-3,098
1216,932	-17,5	-3,474
1218,732	-4	-2,146
1220,544	5	-0,327
1222,308	5	-0,065
1224,102	-1,5	-1,654
1225,884	-17	-3,5
1227,672	-15	-3,391
1229,447	-1,5	-1,482
1231,217	5,5	-0,002
1233,035	3	-0,347
1308,427	-7	-2,461
1310,233	-17,5	-3,497
1312,027	-8	-2,87
1313,785	0	-0,849
1315,578	5,5	-0,008
1317,372	0,5	-1,044
1319,166	-13	-2,926
1320,942	-17	-3,473
1322,736	-3	-2,071
1324,548	5,5	-0,244
1326,336	5	-0,045
1328,118	-1	-1,558
1329,942	-17	-3,322
1331,736	-15	-3,432
1333,517	-2	-1,716
1335,299	5,5	-0,001
1337,075	3	-0,244
1338,851	-5	-2,238
1340,651	-17	-3,498
1342,445	-8,5	-3,07
1344,251	-0,5	-1,1
1346,057	5,5	-0,003
1347,856	1,5	-0,666
1349,638	-12	-2,59
1351,468	-17,5	-3,496
1353,274	-7,5	-2,848
1355,038	1	-0,812
1356,826	5,5	-0,008
1358,626	1	-0,974
1360,408	-13	-2,921
1362,214	-17	-3,485
1364,008	-4,5	-2,28
1365,796	5,5	-0,32
1367,572	4,5	-0,052
1369,401	-0,5	-1,54
1371,177	-17	-3,5
1372,959	-13,5	-3,336
1374,729	-1	-1,379
1376,535	5,5	-0,001
1378,317	2	-0,512
1380,093	-7,5	-2,457
1381,875	-17	-3,496
1383,638	-5,5	-2,526
1385,438	1,5	-0,627
1387,214	5,5	-0,02
1388,99	0	-1,36
1390,778	-16,5	-3,263
1392,584	-16,5	-3,46
1394,384	-3	-1,927
1396,142	5,5	0
1397,942	3,5	-0,15
1399,73	-3,5	-2,036
1401,493	-17	-3,498
1403,269	-7,5	-2,821
1405,045	0,5	-0,781
1406,821	5,5	-0,013
1408,603	0	-1,214
1410,409	-15	-3,072
1412,185	-16	-3,46
1413,997	-3,5	-2,046
1415,791	5	-0,07
1417,579	4,5	-0,082
1419,36	-2	-1,718
1421,136	-17	-3,499
1422,936	-12,5	-3,328
1424,724	-1	-1,374
1426,518	5,5	-0,002
1428,3	2,5	-0,578
1430,1	-6	-2,424
1431,876	-17	-3,495
1433,676	-7	-2,682
1435,47	0	-0,881
1437,227	6	-0,011
1439,027	0,5	-1,07
1440,803	-14,5	-3,048
1442,579	-16,5	-3,468
1444,349	-2,5	-1,905
1446,131	5,5	0
1447,937	4,5	-0,117
1449,731	-2,5	-1,89
1451,507	-17	-3,499
1453,312	-11	-3,249
1455,1	-0,5	-1,298
1456,894	5,5	-0,002
1458,706	2,5	-0,503
1460,5	-6	-2,384
1462,282	-16,5	-3,496
1464,076	-6,5	-2,716
1465,834	2	-0,597
1467,622	5,5	-0,018
1469,386	0	-1,4
1471,173	-16,5	-3,376
1472,973	-15	-3,439
1474,749	-1,5	-1,672
1476,543	5,5	-0,001
1478,349	3,5	-0,192
1480,131	-4	-2,107
1481,907	-17	-3,498
1483,689	-8	-2,932
1485,477	0	-0,946
1487,253	5,5	-0,007
1489,052	1	-1,011
1490,84	-12,5	-2,918
1492,61	-16,5	-3,477
1494,369	-2,5	-1,928
1496,15	5,5	0
1497,926	4	-0,144
1499,714	-2,5	-1,977
1501,478	-16,5	-3,498
1503,266	-8,5	-3,004
1505,03	0	-0,968
1506,817	5,5	-0,006
1508,605	1	-0,984
1510,429	-9	-2,736
1512,193	-16,5	-3,485
1513,987	-4	-2,301
1515,757	5	-0,265
1517,551	5	-0,055
1519,315	-1	-1,737
1521,121	-16,5	-3,5
1522,92	-14	-3,394
1524,69	-1,5	-1,497
1526,49	5,5	-0,001
1528,266	2,5	-0,329
1530,042	-6	-2,399
1531,83	-16,5	-3,496
1533,606	-6	-2,653
1535,4	1	-0,719
1537,188	5,5	-0,014
1538,958	0	-1,308
1540,746	-16,5	-3,253
1542,522	-15	-3,441
1544,309	-2,5	-1,866
1546,073	5,5	0
1547,849	4	-0,154
1549,625	-3,5	-2,053
1551,419	-16,5	-3,499
1553,183	-8	-2,943
1554,953	0	-0,937
1556,717	5,5	-0,008
1558,505	1	-0,996
1560,274	-13	-2,982
1562,068	-16,5	-3,477
1563,826	-3	-1,919
1565,614	5,5	0
1567,432	4,5	-0,074
1569,214	-1,5	-1,813
1570,99	-16,5	-3,499
1572,802	-11,5	-3,27
1574,572	-1	-1,283
1576,329	5	-0,004
1578,129	1,5	-0,853
1579,893	-11,5	-2,88
1581,681	-16,5	-3,482
1583,457	-3,5	-2,203
1585,251	5	-0,294
1587,015	5	-0,065
1588,791	-1,5	-1,809
1590,573	-16,5	-3,499
1592,361	-10,5	-3,232
1594,167	-1,5	-1,477
1595,96	5,5	-0,001
1597,754	3	-0,367
1599,53	-6	-2,332
1601,3	-16,5	-3,497
1603,064	-6	-2,558
1604,84	3	-0,54
1606,61	5,5	-0,026
1608,392	-0,5	-1,473
1610,156	-16,5	-3,5
1611,925	-13,5	-3,346
1613,69	-1,5	-1,339
1615,453	5	-0,002
1617,223	1,5	-0,796
1618,999	-10,5	-2,772
1620,781	-16,5	-3,49
1622,545	-4,5	-2,237
1624,339	5	-0,344
1626,163	5,5	-0,025
1627,945	0	-1,362
1629,72	-16,5	-3,317
1631,502	-15,5	-3,435
1633,278	-2	-1,694
1635,042	5	-0,001
1636,812	2,5	-0,419
1638,612	-4,5	-2,26
1640,388	-16,5	-3,497
1642,17	-7,5	-2,81
1643,946	0	-0,882
1645,721	5,5	-0,008
1647,485	0	-1,166
1649,256	-15,5	-3,125
1651,019	-15	-3,449
1652,795	-2,5	-1,818
1654,559	5	-0,001
1656,323	3	-0,343
1658,099	-5	-2,276
1659,869	-16,5	-3,497
1661,645	-6,5	-2,648
1663,408	2,5	-0,532
1665,184	5	-0,028
1666,96	-0,5	-1,534
1668,724	-16,5	-3,499
1670,5	-12	-3,268
1672,258	-0,5	-1,107
1674,052	5,5	-0,004
1675,834	1	-0,797
1677,61	-11	-2,832
1679,374	-16,5	-3,48
1681,161	-4	-2,202
1682,925	5,5	-0,142
1684,689	4	-0,113
1686,459	-2	-1,984
1688,223	-16,5	-3,498
1689,981	-8	-2,878
1691,751	0	-0,887
1693,515	5,5	-0,011
1695,297	0,5	-1,145
1697,091	-14	-3,038
1698,89	-16	-3,478
1700,654	-3	-2,042
1702,418	5,5	-0,015
1704,236	4,5	-0,07
1706	-1	-1,794
1707,782	-16,5	-3,499
1709,558	-11	-3,18
1711,334	-0,5	-1,117
1713,098	5,5	-0,006
1714,856	0,5	-1,062
1716,643	-12	-2,946
1718,42	-16	-3,474
1720,195	-2,5	-1,982
1721,954	5	0
1723,729	3,5	-0,157
1725,499	-3,5	-2,102
1727,263	-16,5	-3,498
1729,039	-7	-2,762
1730,797	1	-0,737
1732,561	5,5	-0,016
1734,336	0	-1,347
1736,1	-16,5	-3,327
1737,864	-13,5	-3,402
1739,634	-1	-1,55
1741,398	5	-0,002
1743,192	2	-0,454
1744,956	-7	-2,508
1746,72	-16,5	-3,492
1748,496	-4,5	-2,368
1750,254	5	-0,304
1752,03	4,5	-0,058
1753,793	-2	-1,805
1755,563	-16	-3,499
1757,339	-10	-3,198
1759,109	-0,5	-1,128
1760,873	5,5	-0,005
1762,643	0,5	-1,081
1764,425	-15	-3,076
1766,201	-15,5	-3,457
1767,982	-2,5	-1,861
1769,746	5	-0,001
1771,517	3	-0,238
1773,28	-5	-2,3
1775,056	-16,5	-3,497
1776,82	-5	-2,574
1778,584	3,5	-0,532
1780,366	5	-0,023
1782,13	-0,5	-1,501
1783,888	-16	-3,5
1785,658	-11	-3,282
1787,439	-1	-1,371
1789,233	5,5	-0,002
1790,997	2	-0,591
1792,767	-8	-2,544
1794,537	-16,5	-3,493
1796,301	-4,5	-2,442
1798,059	4,5	-0,354
1799,835	5	-0,048
1801,593	-1,5	-1,784
1803,362	-16	-3,499
1805,138	-10	-3,196
1806,902	0	-1,13
1808,666	5,5	-0,005
1810,436	1	-1,007
1812,2	-15	-3,108
1813,964	-15	-3,455
1815,74	-2	-1,883
1817,498	5,5	0
1819,262	3,5	-0,214
1821,037	-3	-2,081
1822,801	-16,5	-3,498
1824,565	-6	-2,775
1826,396	0	-1,026
1828,177	5,5	-0,005
1829,989	2	-0,74
1831,753	-9	-2,724
1833,541	-16	-3,49
1835,305	-3	-2,258
1837,087	5	-0,266
1838,863	4,5	-0,062
1840,633	-1,5	-1,78
1842,396	-16	-3,499
1844,172	-10	-3,167
1845,966	-0,5	-1,276
1847,754	5,5	-0,002
1849,518	1,5	-0,785
1851,3	-10,5	-2,785
1853,064	-15,5	-3,482
1854,822	-3	-2,109
1856,586	5,5	-0,046
1894,761	-7	-2,498
1896,555	-16	-3,496
1898,319	-4,5	-2,517
1900,083	4	-0,517
1901,853	5	-0,031
1903,617	-0,5	-1,591
1905,381	-15,5	-3,499
1907,157	-12	-3,338
1908,927	-1	-1,393
1910,726	5,5	-0,002
1912,484	2	-0,59
1914,302	-5,5	-2,336
1916,066	-16	-3,496
1917,842	-5	-2,601
1919,606	3	-0,55
1921,364	5,5	-0,034
1923,158	0	-1,474
1924,922	-15,5	-3,5
1926,698	-13	-3,383
1928,461	-0,5	-1,405
1930,219	5,5	-0,003
1931,995	1,5	-0,725
1933,777	-8,5	-2,661
1935,541	-16	-3,489
1937,317	-3	-2,261
1939,081	5	-0,259
1940,845	4,5	-0,066
1942,614	-1,5	-1,822
1944,372	-16	-3,499
1946,13	-8,5	-3,027
1947,9	0	-1,015
1949,664	5,5	-0,006
1951,428	0,5	-1,075
1953,216	-14	-3,045
1954,974	-15	-3,454
1956,738	-1,5	-1,738
1958,52	5,5	-0,001
1960,32	3,5	-0,204
1962,083	-3,5	-2,204
1963,847	-16	-3,497
1965,641	-6	-2,726
1967,405	1,5	-0,66
1969,175	5,5	-0,021
1970,939	0	-1,466
1972,703	-15,5	-3,5
1974,479	-11	-3,333
1976,267	-1	-1,437
1978,031	5,5	-0,002
1979,812	2	-0,68
1981,576	-9,5	-2,738
1983,395	-15,5	-3,493
1985,158	-4	-2,366
1986,922	5	-0,281
1988,686	5	-0,068
1990,45	-1,5	-1,845
1992,214	-15,5	-3,499
1994,008	-9	-3,111
1995,771	0	-1,102
1997,536	5,5	-0,006
1999,311	1,5	-0,945
2001,087	-11,5	-2,921
2002,851	-15	-3,472
2004,633	-2,5	-2,051
2006,397	5,5	-0,009
2008,185	4,5	-0,09
2009,949	-2	-1,924
2011,707	-15,5	-3,498
2013,47	-7,5	-2,922
2015,247	0	-0,988
2017,016	5,5	-0,007
2018,774	0,5	-1,144
2020,574	-12,5	-2,969
2022,338	-15	-3,47
2024,102	-2,5	-1,929
2025,872	5,5	-0,008
2027,666	4,5	-0,091
2029,442	-1,5	-1,809
2031,206	-15,5	-3,499
2032,963	-8,5	-3,048
2034,727	-0,5	-1,102
2036,497	5,5	-0,004
2038,279	1,5	-0,783
2040,043	-11,5	-2,819
2041,819	-15,5	-3,484
2043,583	-3	-2,145
2045,347	5	-0,096
2047,117	4,5	-0,102
2048,881	-2	-1,948
2050,644	-15,5	-3,498
2052,408	-7,5	-2,902
2054,172	0	-0,988
2055,96	5,5	-0,004
2057,724	1	-0,94
2059,488	-12,5	-2,978
2061,252	-15	-3,472
2063,016	-2,5	-1,943
2064,804	5	0
2066,567	3,5	-0,148
2068,331	-2,5	-2,023
2070,137	-15,5	-3,499
2071,901	-8	-3,012
2073,677	-0,5	-1,163
2075,441	5,5	-0,005
2077,205	1	-0,954
2078,975	-11	-2,95
2080,733	-15	-3,468
2082,497	-2,5	-1,881
2084,254	5,5	0
2086,025	3,5	-0,218
2087,782	-4	-2,27
2089,546	-15,5	-3,497
2091,316	-6	-2,737
2093,08	1,5	-0,669
2094,88	5,5	-0,014
2096,644	0	-1,338
2098,408	-15	-3,384
2100,178	-13,5	-3,392
2101,941	-1	-1,475
2103,705	5,5	-0,002
2105,463	1,5	-0,705
2107,233	-7	-2,638
2108,997	-15,5	-3,489
2110,761	-3,5	-2,251
2112,531	5,5	-0,213
2114,289	4	-0,095
2116,053	-1,5	-1,94
2117,811	-15,5	-3,498
2119,586	-7,5	-2,998
2121,344	0	-0,937
2123,108	5,5	-0,008
2124,884	0,5	-1,103
2126,666	-13,5	-3,056
2128,448	-15	-3,472
2130,224	-2,5	-1,961
2131,982	5	0
2133,746	3,5	-0,2
2135,51	-3,5	-2,25
2137,297	-15	-3,498
2139,061	-6	-2,778
2140,831	0,5	-0,762
2142,595	5,5	-0,016
2144,359	0	-1,366
2146,171	-15	-3,169
2147,935	-15	-3,447
2149,693	-2	-1,722
2151,457	5,5	-0,001
2153,232	2,5	-0,502
2154,996	-6	-2,516
2156,76	-15,5	-3,493
2158,536	-4,5	-2,453
2160,3	4	-0,4
2162,064	4,5	-0,052
2163,834	-1	-1,761
2165,604	-15	-3,499
2167,368	-10,5	-3,214
2169,15	-1	-1,353
2170,937	5,5	-0,002
2172,701	1,5	-0,639
2174,465	-7,5	-2,6
2176,229	-15,5	-3,491
2177,999	-4	-2,327
2179,763	5	-0,322
2181,521	4,5	-0,068
2183,285	-1,5	-1,813
2185,055	-15,5	-3,499
2186,819	-9,5	-3,194
2188,582	-0,5	-1,249
2190,364	5,5	-0,002
2192,128	1,5	-0,816
2193,892	-10,5	-2,816
2195,656	-15	-3,478
2197,426	-2,5	-2,005
2199,191	5,5	0
2200,954	3,5	-0,163
2202,718	-3	-2,094
2204,494	-15,5	-3,498
2206,258	-6,5	-2,912
2208,021	0,5	-0,844
2209,779	5,5	-0,014
2211,543	0	-1,314
2213,313	-15	-3,317
2215,077	-13	-3,413
2216,841	-1	-1,582
2218,599	5,5	-0,002
2220,375	2	-0,59
2222,139	-8,5	-2,627
2223,896	-15,5	-3,49
2225,666	-3	-2,271
2227,424	5,5	-0,154
2229,182	4	-0,1
2230,946	-2,5	-1,98
2232,722	-15,5	-3,499
2234,486	-7,5	-2,968
2236,64	-6	-2,887
2238,434	0	-1,06
2240,198	5,5	-0,007
2241,961	0,5	-1,084
2243,726	-13,5	-3,031
2245,489	-15	-3,464
2247,271	-2,5	-2,042
2249,035	5,5	-0,015
2250,799	3,5	-0,138
2252,563	-2,5	-2,068
2254,333	-15,5	-3,498
2256,091	-7,5	-2,952
2257,849	0	-0,916
2259,606	5	-0,01
2261,382	0	-1,156
2263,146	-15	-3,192
2264,922	-15	-3,454
2266,698	-1,5	-1,859
2268,456	5,5	-0,001
2270,22	2,5	-0,294
2271,984	-3,5	-2,244
2273,754	-15,5	-3,497
2275,511	-5	-2,653
2277,275	3	-0,622
2279,052	5,5	-0,017
2280,827	0	-1,359
2282,591	-15	-3,403
2284,361	-13,5	-3,404
2286,143	-1	-1,628
2287,907	5,5	-0,001
2289,665	2	-0,54
2291,447	-5,5	-2,439
2293,222	-15	-3,496
2294,981	-4	-2,447
2296,744	4,5	-0,362
2298,502	4,5	-0,07
2300,272	-1,5	-1,834
2302,036	-15	-3,499
2303,806	-8,5	-3,082
2305,57	0	-1,014
2307,346	5,5	-0,006
2309,11	1	-1,079
2310,874	-15	-3,123
2312,637	-13,5	-3,448
2314,407	-1,5	-1,732
2316,171	5,5	-0,001
2317,941	3	-0,384
2319,711	-5,5	-2,404
2321,481	-15	-3,495
2323,245	-4,5	-2,491
2325,003	4,5	-0,372
2326,767	4,5	-0,055
2328,525	-1	-1,803
2330,3	-15	-3,499
2332,07	-8,5	-3,133
2333,834	0	-1,123
2335,598	5,5	-0,004
2337,368	1	-0,986
2339,156	-12	-2,897
2340,92	-15	-3,472
2342,69	-1,5	-1,893
2344,454	5	-0,001
2346,235	3	-0,196
2348,012	-3	-2,11
2349,775	-15,5	-3,498
2351,539	-6	-2,75
2353,321	0	-0,836
2355,109	5	-0,008
2356,891	0	-1,157
2358,655	-15	-3,278
2360,431	-14	-3,429
2362,195	-1	-1,632
2363,952	5,5	-0,002
2365,716	2,5	-0,52
2367,474	-7	-2,574
2369,25	-15	-3,49
2371,014	-3	-2,28
2372,772	5	-0,243
2374,53	4	-0,099
2376,3	-1,5	-1,939
2378,064	-15	-3,498
2379,876	-9	-3,112
2381,639	0	-1,024
2383,404	5,5	-0,006
2385,185	1	-1,019
2386,949	-13,5	-3,041
2388,713	-14	-3,454
2390,477	-1,5	-1,757
2392,247	5	-0,001
2394,011	2,5	-0,363
2395,775	-5	-2,441
2397,533	-15	-3,494
2399,303	-4	-2,464
2401,072	4,5	-0,382
2402,837	5	-0,053
2404,618	-0,5	-1,662
2406,412	-15	-3,5
2408,17	-9	-3,217
2409,934	0	-1,139
2411,692	5,5	-0,006
2413,462	0,5	-1,117
2415,22	-15	-3,262
2416,983	-13,5	-3,428
2418,742	-1	-1,568
2420,505	5,5	-0,002
2422,281	2	-0,538
2424,045	-7,5	-2,622
2425,809	-15	-3,488
2427,567	-3	-2,194
2429,331	5,5	-0,15
2431,107	4,5	-0,094
2432,864	-2	-2,025
2434,629	-15	-3,498
2436,386	-5	-2,757
2438,156	1,5	-0,692
2439,926	5,5	-0,017
2441,69	0	-1,422
2443,448	-14,5	-3,5
2445,224	-9,5	-3,278
2446,988	0	-1,156
2448,746	5,5	-0,005
2450,51	1	-1,15
2452,292	-13	-3,109
2454,055	-14	-3,454
2455,819	-2	-1,849
2457,583	5,5	-0,001
2459,407	4	-0,123
2461,171	-1,5	-2,036
2462,935	-14,5	-3,498
2464,705	-5,5	-2,822
2466,469	0,5	-0,722
2468,233	5,5	-0,019
2469,996	0	-1,507
2471,76	-14,5	-3,5
2473,548	-11	-3,318
2475,318	-0,5	-1,35
2477,088	5,5	-0,002
2478,864	1,5	-0,72
2480,628	-7,5	-2,777
2482,386	-14,5	-3,481
2484,15	-2,5	-2,05
2485,914	5,5	-0,07
2487,695	4,5	-0,102
2489,453	-2	-2,05
2491,217	-14,5	-3,498
2492,987	-6	-2,804
2494,745	0,5	-0,808
2496,515	5,5	-0,016
2498,279	0	-1,462
2500,043	-14	-3,5
2501,807	-10,5	-3,284
2503,6	-0,5	-1,316
2505,364	5,5	-0,003
2507,128	1,5	-0,903
2508,886	-11	-3,028
2510,662	-14	-3,465
2512,426	-1,5	-1,825
2514,202	5	-0,001
2515,978	3	-0,242
2517,742	-4	-2,322
2519,566	-14,5	-3,498
2521,323	-6	-2,873
2523,123	0	-1,044
2524,923	5,5	-0,004
2526,687	1	-0,974
2528,451	-12	-3,043
2530,221	-13,5	-3,463
2531,991	-2	-1,942
2533,755	5,5	-0,002
2535,519	3,5	-0,177
2537,283	-2,5	-2,137
2539,052	-14,5	-3,498
2540,81	-5,5	-2,719
2542,574	1	-0,757
2544,338	5,5	-0,013
2546,12	0	-1,267
2547,896	-14,5	-3,238
2549,654	-12,5	-3,411
2551,418	-1	-1,51
2553,176	5,5	-0,002
2554,94	2	-0,553
2556,703	-4,5	-2,478
2558,497	-14,5	-3,496
2560,273	-4,5	-2,662
2562,067	0	-0,798
2563,861	5,5	-0,007
2565,637	1	-1,025
2567,407	-10	-2,956
2569,171	-14	-3,471
2570,929	-1,5	-1,864
2572,692	5,5	-0,001
2574,463	3,5	-0,255
2576,227	-3	-2,308
2577,99	-14,5	-3,496
2579,754	-4	-2,547
2581,512	5	-0,428
2583,3	5,5	-0,026
2585,064	0	-1,548
2586,822	-14	-3,499
2588,61	-10,5	-3,337
2590,385	-1	-1,502
2592,144	5	-0,002
2593,901	2	-0,592
2595,677	-5,5	-2,546
2597,441	-14,5	-3,491
2599,223	-3,5	-2,373
2600,993	4,5	-0,313
2602,751	4	-0,06
2604,521	-0,5	-1,84
2606,303	-14,5	-3,499
2608,067	-7,5	-3,036
2609,83	0	-0,941
2611,624	5,5	-0,005
2613,388	1	-1,079
2615,158	-13	-3,098
2616,94	-13,5	-3,459
2618,704	-1,5	-1,8
2620,474	5,5	-0,001
2622,232	3	-0,391
2623,996	-5	-2,46
2625,76	-14	-3,493
2627,524	-3	-2,343
2629,287	4,5	-0,3
2631,045	4,5	-0,071
2632,809	-1,5	-1,915
2634,585	-14	-3,499
2636,349	-6	-2,926
2638,113	0,5	-0,826
2639,877	5,5	-0,014
2641,635	0	-1,449
2643,405	-14	-3,5
2645,162	-9,5	-3,25
2646,92	-0,5	-1,255
2648,678	5,5	-0,004
2650,436	1	-1,013
2652,2	-12	-3,108
2653,976	-13,5	-3,457
2655,758	-1,5	-1,807
2657,528	5,5	-0,001
2659,292	3	-0,403
2661,068	-3,5	-2,331
2662,832	-14,5	-3,496
2664,589	-3,5	-2,552
2666,365	2,5	-0,625
2668,141	5	-0,019
2669,905	0	-1,513
2671,705	-14	-3,372
2673,463	-11	-3,38
2675,221	-0,5	-1,39
2676,997	5,5	-0,002
2678,76	1,5	-0,812
2680,525	-10	-2,891
2682,288	-13,5	-3,474
2684,052	-1,5	-1,842
2685,81	5,5	-0,001
2687,58	3	-0,323
2689,344	-4	-2,327
2691,108	-14	-3,496
2692,884	-4	-2,573
2694,648	4,5	-0,5
2696,423	5	-0,034
2698,181	-0,5	-1,738
2699,945	-14	-3,499
2701,703	-6	-3,024
2703,479	0	-1,032
2705,243	5,5	-0,007
2707,007	0,5	-1,196
2708,777	-13,5	-3,289
2710,535	-11,5	-3,41
2712,323	-1	-1,615
2714,117	5,5	-0,001
2715,88	2,5	-0,438
2717,638	-4,5	-2,484
2719,414	-14	-3,494
2721,178	-3	-2,39
2722,936	5	-0,296
2724,694	4,5	-0,079
2726,458	-1,5	-1,973
2728,228	-13,5	-3,499
2729,992	-5	-2,866
2731,767	0	-0,9
2733,532	5,5	-0,012
2735,313	0,5	-1,202
2737,089	-13,5	-3,17
2738,853	-12	-3,443
2740,617	-1	-1,629
2742,381	5,5	-0,001
2744,145	2	-0,562
2745,909	-5,5	-2,567
2747,672	-13	-3,491
2749,437	-2,5	-2,277
2751,201	5	-0,266
2752,976	4,5	-0,062
2754,74	-0,5	-1,74
2756,516	-13,5	-3,499
2758,274	-7	-3,086
2760,038	0	-1,066
2761,796	5,5	-0,006
2763,56	0,5	-1,163
2765,33	-12,5	-3,159
2767,088	-12	-3,44
2768,863	-1	-1,728
2770,627	5,5	-0,001
2772,391	2,5	-0,352
2774,167	-4	-2,36
2775,937	-13	-3,496
2777,695	-4	-2,591
2779,453	3	-0,54
2781,217	5	-0,03
2782,993	0	-1,474
2784,756	-13,5	-3,487
2786,514	-10	-3,348
2788,278	-0,5	-1,405
2790,042	5,5	-0,002
2791,8	1,5	-0,794
2793,57	-7,5	-2,818
2795,328	-13	-3,482
2797,092	-2	-2,034
2798,856	5	-0,011
2800,619	3,5	-0,152
2802,377	-2,5	-2,198
2804,153	-13	-3,498
2805,917	-4	-2,639
2807,681	2,5	-0,607
2809,445	5	-0,028
2811,239	0	-1,419
2812,997	-12,5	-3,499
2814,761	-9	-3,361
2816,525	-0,5	-1,44
2818,282	5	-0,003
2820,058	1,5	-0,728
2821,87	-4,5	-2,513
2823,634	-12,5	-3,494
2825,392	-3	-2,355
2827,15	5	-0,27
2828,92	4,5	-0,07
2830,684	-0,5	-1,857
2832,442	-12	-3,498
2834,206	-5,5	-2,931
2835,97	0,5	-0,858
2837,733	5,5	-0,013
2839,521	0,5	-1,188
2841,279	-11,5	-3,15
2843,044	-10,5	-3,448
2844,801	-1	-1,683
2846,577	5,5	-0,001
2848,335	2	-0,548
2850,099	-4,5	-2,548
2851,857	-11,5	-3,492
2853,626	-2,5	-2,356
2855,39	5	-0,34
2857,166	5	-0,044
2858,924	0	-1,788
2860,688	-11	-3,499
2862,452	-5,5	-3,078
2864,216	0	-1,048
2865,992	5,5	-0,005
2867,756	1,5	-0,937
2869,514	-7,5	-2,929
2871,278	-10,5	-3,473
2873,041	-1,5	-1,985
2874,799	5	-0,04
2876,605	4,5	-0,071
2878,369	0	-1,774
2880,127	-10,5	-3,499
2881,891	-5,5	-3,098
2883,661	0	-1,118
2885,425	5,5	-0,005
2887,201	1,5	-0,912
2888,965	-7	-2,912
2890,729	-10,5	-3,479
2892,504	-2	-2,062
2894,262	5,5	-0,022
2896,038	3,5	-0,126
2897,802	-0,5	-1,981
2899,578	-10,5	-3,498
2901,348	-5,5	-3,039
2903,106	0	-1,126
2904,864	5,5	-0,005
2906,627	1,5	-0,963
2908,391	-7	-2,909
2910,149	-10	-3,472
2911,925	-1,5	-2,02
2913,689	5	-0,064
2915,447	3,5	-0,15
2917,211	-1	-2,132
2918,975	-10,5	-3,498
2920,751	-4	-2,837
2922,515	0,5	-0,842
2924,279	5,5	-0,01
2926,078	1,5	-1,041
2927,854	-7,5	-2,928
2929,618	-10,5	-3,476
2931,382	-1,5	-2,052
2933,152	5	-0,083
2934,916	4	-0,097
2936,674	-0,5	-1,922
2938,45	-10,5	-3,499
2940,214	-5	-3,083
2941,972	0	-1,028
2943,741	5,5	-0,006
2945,505	1,5	-1,081
2947,263	-8	-3,036
2949,033	-10	-3,466
2950,797	-1	-1,902
2952,555	5	0
2954,319	3,5	-0,239
2956,095	-1,5	-2,13
2957,871	-10,5	-3,498
2959,629	-3,5	-2,786
2961,393	1	-0,814
2963,156	5	-0,013
2964,92	0,5	-1,367
2966,702	-10,5	-3,316
2968,466	-9	-3,42
2970,224	-0,5	-1,55
2971,988	5	-0,002
2973,788	2,5	-0,473
2975,552	-3	-2,524
2977,315	-10,5	-3,493
2979,091	-2,5	-2,412
2980,855	5,5	-0,3
2982,625	4,5	-0,061
2984,383	0	-1,875
2986,159	-10	-3,499
2987,923	-4,5	-2,998
2989,687	0	-0,995
2991,451	5	-0,008
2993,209	1	-1,228
2994,973	-9,5	-3,242
2996,748	-8,5	-3,44
2998,512	-0,5	-1,678
3000,276	5,5	-0,001
3002,034	2,5	-0,513
3003,792	-3	-2,568
3005,556	-10	-3,492
3007,332	-2	-2,449
3009,09	4,5	-0,36
3010,854	4,5	-0,054
3012,618	0	-1,778
3014,381	-9	-3,499
3016,139	-5	-3,096
3017,903	0	-1,15
3019,673	5,5	-0,004
3021,437	1,5	-0,949
3023,201	-6,5	-3,004
3024,959	-9	-3,459
3026,717	-0,5	-1,795
3028,499	5,5	-0,001
3030,262	3,5	-0,226
3032,032	-1	-2,158
3033,814	-9	-3,498
3035,578	-3	-2,754
3037,336	1,5	-0,651
3039,1	5	-0,024
3040,864	0,5	-1,488
3042,628	-9	-3,5
3044,392	-5,5	-3,295
3046,155	0	-1,301
3047,919	5,5	-0,003
3049,683	1,5	-0,855
3051,453	-4,5	-2,889
3053,217	-9	-3,477
3054,981	-1,5	-2,058
3056,745	5	-0,158
3058,515	3,5	-0,105
3060,285	0	-1,908
3062,049	-9	-3,499
3063,813	-4,5	-3,038
3065,571	0	-1,003
3067,334	5	-0,006
3069,092	1,5	-1,112
3070,856	-7,5	-3,122
3072,626	-8	-3,453
3074,39	-1	-1,832
3076,148	5	-0,001
3077,924	2	-0,44
3079,682	-2	-2,502
3081,439	-8,5	-3,493
3083,203	-2	-2,467
3084,967	4	-0,462
3086,731	5	-0,04
3088,495	0	-1,669
3090,277	-8,5	-3,5
3092,053	-6	-3,35
3093,823	0	-1,467
3095,587	5,5	-0,002
3097,351	2	-0,694
3099,127	-3,5	-2,717
3100,903	-9	-3,488
3102,66	-1,5	-2,185
3104,424	5,5	-0,163
3106,182	3,5	-0,126
3107,946	0	-2,042
3109,704	-8,5	-3,498
3111,504	-4	-3,049
3113,31	0	-1,233
3115,098	5	-0,002
3116,867	1,5	-0,782
3118,631	-3,5	-2,792
3120,395	-8,5	-3,484
3122,165	-1,5	-2,157
3123,941	5	-0,121
3125,699	3,5	-0,104
3127,493	0	-1,833
3129,257	-8,5	-3,499
3131,033	-5	-3,152
3132,791	0	-1,108
3134,555	5,5	-0,005
3136,324	1,5	-0,943
3138,082	-5,5	-2,978
3139,846	-7,5	-3,463
3141,616	-0,5	-1,839
3143,392	5	0
3145,15	3	-0,254
3146,908	-0,5	-2,267
3148,672	-8	-3,496
3150,454	-2	-2,701
3152,212	3	-0,592
3153,999	5	-0,018
3155,763	0,5	-1,401
3157,533	-8	-3,441
3159,297	-5,5	-3,371
3161,055	0	-1,392
3162,819	5,5	-0,002
3164,595	1,5	-0,688
3166,353	-3,5	-2,732
3168,135	-8	-3,488
3169,892	-1	-2,153
3171,656	5	-0,046
3173,42	3	-0,149
3175,184	0	-2,156
3176,948	-8	-3,498
3178,712	-2	-2,752
3180,476	1,5	-0,753
3182,234	5	-0,016
3184,004	1	-1,374
3185,78	-8	-3,416
3187,543	-6	-3,392
3189,319	0	-1,559
3191,083	5	-0,002
3192,853	2	-0,549
3194,623	-2,5	-2,582
3196,393	-8	-3,491
3198,163	-1,5	-2,344
3199,927	5	-0,242
3201,691	4	-0,072
3203,448	0	-1,898
3205,218	-8	-3,499
3206,982	-3,5	-3,036
3208,746	0	-1,057
3210,51	5	-0,006
3212,274	1	-1,092
3214,038	-7,5	-3,114
3215,796	-7	-3,451
3217,572	-0,5	-1,826
3219,33	5	-0,001
3221,112	3	-0,258
3222,887	-0,5	-2,271
3224,669	-8	-3,497
3226,445	-2,5	-2,734
3228,209	1,5	-0,767
3229,973	5	-0,016
3231,737	1	-1,35
3233,501	-8	-3,384
3235,271	-6	-3,388
3237,047	0	-1,606
3238,804	5	-0,001
3240,563	2	-0,587
3242,326	-2	-2,602
3244,096	-8	-3,49
3245,86	-1,5	-2,396
3247,618	5	-0,302
3249,424	4,5	-0,029
3251,2	0,5	-1,518
3252,964	-8	-3,5
3254,056	5	0