File: ensaios_Ciclicos/sem_TC/entrada/_1.txt
Time (s)	Load (N)	Displacement (mm)
0	0	-0,021
2,176	1,5	-0,394
4,354	-1,5	-0,678
6,513	-3,5	-0,861
8,673	-5	-0,985
10,833	-6,5	-1,121
12,993	-7,5	-1,208
15,153	-8	-1,247
17,313	-7,5	-1,202
19,473	-9	-1,348
21,633	-10	-1,51
23,793	-10	-1,537
25,952	-10,5	-1,556
28,112	-10,5	-1,586
30,272	-10,5	-1,598
32,432	-12	-1,733
34,712	-20,5	-2,516
36,896	-23	-2,723
39,074	-24,5	-2,971
41,234	-25	-3,046
43,393	-25,5	-3,086
45,553	-27	-3,212
47,713	-28,5	-3,302
49,873	-30	-3,366
52,039	-32,5	-3,413
54,199	-33	-3,424
56,359	-34,5	-3,458
58,519	-35,5	-3,486
60,678	-35,5	-3,49
62,844	-35,5	-3,496
65,01	-35,5	-3,496
67,17	-35,5	-3,497
69,33	-35	-3,497
71,496	-35	-3,498
73,656	-35	-3,498
75,822	-35	-3,499
77,981	-35	-3,499
80,147	-34,5	-3,5
82,307	-34,5	-3,499
84,473	-34,5	-3,499
86,675	-34,5	-3,354
88,871	-32,5	-3,042
91,079	-26,5	-2,714
93,244	-27	-2,709
95,41	-25,5	-2,559
97,57	-23,5	-2,386
99,766	-20,5	-2,145
101,932	-19	-2,055
104,092	-19,5	-2,104
106,258	-19,5	-2,122
108,418	-19	-2,061
110,584	-17,5	-1,874
112,749	-15	-1,661
114,927	-13,5	-1,51
117,099	-11,5	-1,385
119,265	-10,5	-1,289
121,425	-9	-1,149
123,591	-7,5	-1,105
125,763	-7	-0,984
127,929	-7	-0,979
130,094	-6	-0,962
132,254	-5,5	-0,918
134,414	-6	-0,974
136,58	-5,5	-0,862
138,74	-4	-0,71
140,906	-4	-0,694
143,096	-3	-0,564
145,31	-0,5	-0,282
147,476	0	-0,172
149,641	0,5	-0,147
151,951	3,5	-0,004
154,267	3,5	-0,001
156,433	3,5	0
158,629	3,5	-0,063
160,981	-4	-1,073
163,171	-7	-1,284
165,33	-7,5	-1,371
167,496	-8	-1,516
169,722	-12,5	-1,986
171,888	-14	-2,045
174,048	-14,5	-2,111
176,226	-12,5	-2,107
178,47	-19	-2,534
180,75	-25	-3,126
182,939	-24	-3,25
185,255	-32	-3,475
187,523	-32,5	-3,496
189,695	-33	-3,497
191,873	-32,5	-3,497
194,267	-25,5	-2,808
196,517	-21	-2,323
198,694	-19,5	-2,199
200,932	-19	-1,854
203,098	-15	-1,758
205,264	-14	-1,678
207,43	-15	-1,821
209,59	-15,5	-1,915
211,912	-7	-1,145
214,084	-6,5	-1,004
216,279	-5,5	-0,906
218,787	3,5	-0,008
220,965	3,5	-0,011
223,317	3,5	0
225,483	3,5	0
227,811	3,5	-0,223
230,067	-2	-0,762
232,227	-2,5	-0,785
234,464	-5,5	-1,172
236,624	-6	-1,191
238,988	-15	-2,203
241,256	-20	-2,713
243,416	-20	-2,806
245,666	-26,5	-3,272
247,832	-24	-3,283
250,022	-27,5	-3,408
252,355	-32	-3,494
254,593	-32	-3,498
256,927	-32	-3,23
259,099	-29,5	-3,06
261,265	-30	-3,156
263,431	-31,5	-3,059
265,723	-23	-2,453
267,889	-20,5	-2,374
270,06	-20	-2,264
272,298	-14	-1,755
274,65	-4,5	-0,883
276,912	-0,5	-0,302
279,204	3,5	-0,041
281,574	3,5	-0,002
283,74	3,5	-0,001
285,995	4	-0,116
288,206	3	-0,396
290,441	-2,5	-0,88
292,601	-3,5	-0,982
294,767	-4,5	-1,132
296,927	-5,5	-1,272
299,093	-5,5	-1,313
301,259	-5,5	-1,296
303,43	-6,5	-1,42
305,596	-6,5	-1,453
307,768	-7	-1,516
309,94	-7,5	-1,561
312,1	-8,5	-1,638
314,266	-9	-1,724
316,432	-10	-1,888
318,598	-10,5	-1,974
320,763	-12	-2,076
322,923	-12,5	-2,153
325,089	-13,5	-2,253
327,255	-13,5	-2,301
329,421	-17	-2,514
331,593	-18,5	-2,721
333,753	-20	-2,84
335,913	-21,5	-3,002
338,097	-23,5	-3,228
340,298	-28,5	-3,409
342,464	-29,5	-3,449
344,642	-31	-3,477
346,808	-31	-3,484
348,968	-31	-3,489
351,14	-31	-3,492
353,3	-31	-3,494
355,466	-31	-3,492
357,631	-31	-3,495
359,791	-31	-3,497
361,957	-31	-3,498
364,117	-31	-3,498
366,289	-31	-3,499
368,461	-31	-3,499
370,621	-31	-3,499
372,786	-31	-3,5
374,952	-30,5	-3,494
377,112	-31	-3,449
379,272	-31	-3,376
381,444	-31	-3,204
383,616	-29,5	-3,12
385,776	-28,5	-3,064
387,942	-26,5	-2,925
390,108	-26	-2,86
392,303	-23,5	-2,656
394,469	-23,5	-2,614
396,635	-21	-2,459
398,813	-22	-2,452
400,979	-19,5	-2,314
403,145	-19,5	-2,249
405,311	-18,5	-2,148
407,477	-18	-2,185
409,648	-17,5	-2,08
411,814	-17	-2,132
413,98	-16	-2,02
416,152	-16	-2,07
418,318	-18	-2,176
420,49	-17,5	-2,07
422,662	-15	-1,929
424,828	-14,5	-1,839
426,999	-12,5	-1,734
429,171	-12	-1,608
431,337	-10	-1,517
433,503	-10,5	-1,516
435,681	-7,5	-1,274
437,859	-7	-1,225
440,025	-6	-1,092
442,191	-4,5	-1,028
444,356	-4,5	-0,98
446,516	-4	-0,876
448,688	-4,5	-0,878
450,848	-4	-0,812
453,026	-3	-0,73
455,192	-2	-0,671
457,364	-1,5	-0,508
459,53	0	-0,3
461,701	1,5	-0,12
463,867	3	-0,052
466,027	3,5	-0,031
468,229	4	-0,015
470,407	4	-0,013
472,573	4	-0,011
474,739	4	-0,01
476,911	4	-0,009
479,076	4	-0,006
481,242	4	-0,004
483,414	4	-0,004
485,574	4	-0,004
487,74	4	-0,003
489,906	4	-0,002
492,066	4	-0,002
494,232	4	-0,002
496,403	4	-0,001
498,575	4	-0,001
500,747	4	0
502,913	4	-0,054
505,073	4	-0,268
507,245	3	-0,428
509,411	0,5	-0,551
511,589	-1,5	-0,787
513,754	-2	-0,862
515,932	-4	-1,024
518,11	-5	-1,254
520,27	-5	-1,4
522,442	-6	-1,552
524,602	-6,5	-1,602
526,774	-9	-1,856
528,946	-11	-2,046
531,111	-12,5	-2,21
533,277	-13,5	-2,297
535,449	-16	-2,55
537,621	-17,5	-2,724
539,793	-20	-2,876
541,977	-21,5	-3,063
544,149	-23,5	-3,238
546,327	-25,5	-3,35
548,499	-26,5	-3,395
550,676	-28	-3,44
552,848	-29	-3,47
555,02	-29,5	-3,482
557,186	-29,5	-3,486
559,352	-29,5	-3,49
561,524	-29,5	-3,492
563,69	-30	-3,494
565,861	-29,5	-3,495
568,027	-30	-3,497
570,193	-29,5	-3,498
572,365	-30	-3,499
574,543	-29,5	-3,5
576,709	-29,5	-3,455
578,887	-28	-3,141
581,053	-27	-2,954
583,224	-23,5	-2,795
585,39	-22	-2,641
587,562	-19	-2,414
589,734	-17,5	-2,213
591,906	-14	-1,97
594,072	-12,5	-1,826
596,238	-11	-1,671
598,41	-8	-1,412
600,576	-6	-1,231
602,753	-4,5	-0,975
604,925	-2,5	-0,725
607,097	-1	-0,482
609,263	0,5	-0,255
611,441	2	-0,139
613,607	3	-0,085
615,779	3,5	-0,04
617,938	4	-0,021
620,134	4	-0,007
622,306	4	-0,003
624,478	4	-0,002
626,644	4	-0,001
628,81	4	-0,001
630,988	4	-0,036
633,154	4	-0,25
635,332	1,5	-0,526
637,497	0	-0,702
639,675	-3	-0,996
641,841	-4	-1,141
644,013	-4,5	-1,239
646,191	-5	-1,295
648,363	-5,5	-1,388
650,589	-7,5	-1,748
652,749	-8,5	-1,83
654,974	-12,5	-2,3
657,206	-17,5	-2,716
659,372	-17,5	-2,742
661,544	-19	-2,848
663,716	-19,5	-3,048
665,882	-23,5	-3,236
668,048	-25,5	-3,367
670,208	-26,5	-3,426
672,373	-27,5	-3,442
674,551	-28,5	-3,468
676,723	-28	-3,478
678,901	-29,5	-3,493
681,061	-29,5	-3,494
683,239	-29	-3,496
685,405	-29,5	-3,496
687,577	-29,5	-3,496
689,742	-29	-3,497
691,92	-29	-3,497
694,086	-29	-3,497
696,264	-29	-3,498
698,436	-29	-3,498
700,608	-29	-3,498
702,768	-29	-3,496
704,946	-29	-3,496
707,117	-29	-3,498
709,283	-29	-3,499
711,473	-29	-3,499
713,645	-29	-3,5
715,823	-29	-3,5
717,989	-29	-3,5
720,167	-29	-3,5
722,345	-29	-3,499
724,51	-29	-3,482
726,694	-29	-3,231
728,872	-28,5	-3,062
731,05	-26,5	-3,012
733,216	-25	-2,966
735,388	-24,5	-2,923
737,566	-24	-2,884
739,732	-23,5	-2,878
741,897	-25,5	-2,925
744,081	-22,5	-2,765
746,265	-20	-2,526
748,443	-18	-2,329
750,615	-19	-2,26
752,793	-14	-2,083
754,989	-11,5	-1,778
757,155	-9	-1,596
759,332	-6,5	-1,394
761,504	-6,5	-1,31
763,67	-6	-1,246
765,848	-4,5	-1,01
768,02	-3	-0,815
770,198	-2,5	-0,79
772,358	-3	-0,831
774,53	-3	-0,749
776,701	-2,5	-0,7
778,873	-2,5	-0,746
781,045	-2,5	-0,699
783,217	-1,5	-0,589
785,383	-1,5	-0,54
787,543	-1,5	-0,586
789,715	-0,5	-0,46
791,887	0	-0,328
794,058	1	-0,175
796,224	1	-0,158
798,396	1	-0,162
800,568	1	-0,142
802,746	2	-0,1
804,906	2,5	-0,082
807,084	2,5	-0,076
809,256	3,5	-0,048
811,427	3,5	-0,046
813,593	3,5	-0,04
815,765	3,5	-0,051
817,937	3,5	-0,059
820,109	2,5	-0,09
822,275	1,5	-0,125
824,447	2	-0,141
826,613	1	-0,169
828,778	1,5	-0,14
830,95	2	-0,124
833,116	1	-0,166
835,288	2	-0,111
837,454	1,5	-0,144
839,626	1,5	-0,142
841,798	0,5	-0,205
843,97	0,5	-0,158
846,141	1,5	-0,112
848,307	2,5	-0,112
850,479	2,5	-0,08
852,645	3,5	-0,058
854,817	3,5	-0,036
856,989	4	-0,02
859,161	4	-0,016
861,327	4	-0,017
863,499	4	-0,022
865,67	4	-0,019
867,836	4	-0,016
870,008	4	-0,015
872,18	4	-0,013
874,34	4	-0,014
876,506	4	-0,013
878,678	4	-0,007
880,837	4,5	-0,007
883,003	4	-0,005
885,175	4,5	-0,004
887,341	4	-0,005
889,513	4	-0,005
891,691	4,5	-0,003
893,851	4,5	-0,003
896,023	4,5	-0,002
898,201	4	-0,002
900,366	4	-0,002
902,532	4	-0,002
904,698	4,5	-0,002
906,864	4	-0,001
909,03	4	-0,001
911,202	4	-0,001
913,368	4	-0,001
915,539	4	-0,001
917,705	4	-0,001
919,871	4	-0,001
922,037	4	-0,001
924,203	4	-0,001
926,375	4	0
928,541	4	0
930,707	4	-0,001
932,873	4	-0,001
935,044	4	-0,001
937,21	4	-0,001
939,376	4	-0,001
941,548	4	-0,003
943,708	4	-0,005
945,874	4	-0,008
948,046	4	-0,014
950,206	4	-0,027
952,377	3,5	-0,024
954,546	3,5	-0,038
956,709	3,5	-0,048
958,923	3,5	-0,037
961,089	3,5	-0,048
963,267	2,5	-0,088
965,439	3,5	-0,05
967,611	3,5	-0,051
969,776	3	-0,061
971,942	3	-0,052
974,108	3	-0,064
976,274	3	-0,062
978,446	3	-0,089
980,612	3	-0,061
982,784	3,5	-0,062
984,95	2,5	-0,092
987,127	2,5	-0,089
989,299	3	-0,086
991,465	3,5	-0,056
993,637	3,5	-0,064
995,803	3	-0,091
997,975	2	-0,094
1000,147	3	-0,079
1002,313	2	-0,09
1004,484	3	-0,067
1006,65	2	-0,109
1008,816	3	-0,09
1010,994	1,5	-0,121
1013,166	1	-0,181
1015,332	0	-0,358
1017,504	0	-0,4
1019,67	-1	-0,511
1021,841	-0,5	-0,534
1024,007	-1	-0,508
1026,179	-0,5	-0,504
1028,357	0	-0,39
1030,529	0	-0,273
1032,701	0	-0,399
1034,867	-0,5	-0,526
1037,039	0	-0,404
1039,21	-0,5	-0,465
1041,376	0	-0,455
1043,548	-1	-0,546
1045,708	-1,5	-0,624
1047,88	-1	-0,615
1050,052	-1,5	-0,649
1052,218	-1,5	-0,716
1054,396	-1	-0,656
1056,561	-2	-0,748
1058,739	-2	-0,803
1060,911	-3,5	-0,852
1063,083	-3	-0,934
1065,255	-3,5	-1,036
1067,427	-3,5	-0,923
1069,593	-3	-0,99
1071,765	-3,5	-1,012
1073,924	-3,5	-0,978
1076,096	-3	-1,006
1078,262	-3	-0,968
1080,434	-3	-0,975
1082,612	-2,5	-0,899
1084,778	-2,5	-0,905
1086,95	-2,5	-0,826
1089,122	-2	-0,795
1091,305	-1,5	-0,69
1093,477	-1	-0,616
1095,643	-1,5	-0,664
1097,821	-1	-0,586
1099,981	-1,5	-0,69
1102,159	-0,5	-0,53
1104,331	-0,5	-0,559
1106,497	-0,5	-0,541
1108,668	-1	-0,612
1110,834	0	-0,399
1113	0	-0,441
1115,166	-0,5	-0,534
1117,332	-1	-0,643
1119,504	-1,5	-0,659
1121,67	-2	-0,798
1123,836	-3	-1
1126,001	-4,5	-1,148
1128,167	-5	-1,222
1130,333	-6	-1,38
1132,493	-6,5	-1,47
1134,659	-7,5	-1,549
1136,825	-9	-1,649
1139,003	-8,5	-1,63
1141,169	-8	-1,617
1143,346	-7,5	-1,608
1145,518	-9	-1,663
1147,678	-10	-1,788
1149,85	-10	-1,842
1152,016	-9,5	-1,767
1154,188	-8,5	-1,663
1156,354	-8,5	-1,679
1158,532	-8,5	-1,692
1160,703	-9	-1,673
1162,875	-9	-1,727
1165,047	-9,5	-1,804
1167,219	-11	-1,864
1169,385	-10,5	-1,943
1171,557	-12,5	-2,014
1173,729	-11,5	-1,959
1175,901	-12	-2,008
1178,072	-12	-2,023
1180,244	-10,5	-1,94
1182,404	-11,5	-1,985
1184,582	-12	-1,973
1186,748	-13	-2,11
1188,926	-12,5	-2,066
1191,092	-11,5	-1,965
1193,258	-13,5	-2,076
1195,43	-11,5	-1,981
1197,601	-12,5	-2,08
1199,779	-13,5	-2,105
1201,945	-15	-2,162
1204,117	-19,5	-2,264
1206,283	-16,5	-2,354
1208,449	-16	-2,37
1210,615	-16,5	-2,374
1212,781	-17	-2,38
1214,958	-17	-2,379
1217,124	-16,5	-2,43
1219,302	-19,5	-2,482
1221,468	-19	-2,61
1223,64	-21	-2,734
1225,806	-24,5	-2,785
1227,978	-22,5	-2,862
1230,15	-22,5	-2,922
1232,315	-26	-2,932
1234,487	-22,5	-2,833
1236,653	-22,5	-2,896
1238,831	-22	-2,836
1240,997	-24	-2,878
1243,175	-21	-2,738
1245,341	-20	-2,706
1247,513	-22,5	-2,67
1249,684	-21	-2,66
1251,856	-21	-2,736
1254,022	-20	-2,694
1256,194	-21,5	-2,711
1258,366	-22,5	-2,846
1260,532	-24	-2,914
1262,704	-23,5	-2,921
1264,876	-24	-2,929
1267,041	-22,5	-2,854
1269,207	-22	-2,784
1271,379	-21	-2,742
1273,551	-21	-2,66
1275,717	-22	-2,718
1277,889	-19,5	-2,6
1280,067	-18,5	-2,499
1282,233	-16,5	-2,334
1284,404	-15,5	-2,299
1286,564	-16	-2,328
1288,73	-16,5	-2,364
1290,902	-15	-2,286
1293,062	-16,5	-2,376
1295,234	-16	-2,306
1297,4	-15	-2,306
1299,578	-15	-2,294
1301,743	-15	-2,295
1303,915	-15,5	-2,231
1306,081	-15	-2,252
1308,253	-15	-2,233
1310,419	-15,5	-2,311
1312,591	-17	-2,393
1314,757	-17	-2,435
1316,923	-18	-2,478
1319,088	-18,5	-2,51
1321,254	-20	-2,61
1323,42	-18,5	-2,566
1325,592	-20,5	-2,632
1327,752	-22	-2,763
1329,924	-20,5	-2,716
1332,09	-22,5	-2,854
1334,256	-22	-2,875
1336,421	-24,5	-2,928
1338,593	-24	-2,956
1340,759	-23,5	-2,988
1342,931	-24,5	-2,974
1345,103	-22,5	-2,9
1347,281	-23	-2,914
1349,453	-22,5	-2,81
1351,619	-21	-2,76
1353,79	-23	-2,875
1355,956	-22,5	-2,896
1358,128	-24	-2,961
1360,294	-23	-2,965
1362,466	-24	-2,946
1364,638	-22	-2,836
1366,81	-21,5	-2,746
1368,976	-19,5	-2,651
1371,153	-19,5	-2,654
1373,313	-20,5	-2,753
1375,485	-22	-2,814
1377,651	-22	-2,786
1379,823	-21	-2,745
1381,995	-19,5	-2,645
1384,167	-21,5	-2,759
1386,333	-20,5	-2,726
1388,504	-20	-2,616
1390,676	-18	-2,538
1392,842	-18,5	-2,522
1395,002	-18	-2,509
1397,18	-18	-2,485
1399,346	-18	-2,453
1401,518	-16	-2,38
1403,684	-16	-2,348
1405,856	-16	-2,354
1408,021	-15,5	-2,323
1410,199	-14	-2,199
1412,365	-15	-2,237
1414,549	-14,5	-2,176
1416,715	-14,5	-2,25
1418,887	-16	-2,321
1421,053	-17	-2,449
1423,225	-17	-2,419
1425,39	-16	-2,422
1427,55	-16,5	-2,458
1429,716	-18,5	-2,549
1431,882	-18	-2,51
1434,048	-19,5	-2,584
1436,226	-19,5	-2,6
1438,392	-19	-2,599
1440,569	-18,5	-2,596
1442,741	-19	-2,576
1444,913	-15,5	-2,355
1447,085	-16,5	-2,367
1449,257	-16	-2,38
1451,423	-16,5	-2,38
1453,595	-15	-2,338
1455,767	-15	-2,264
1457,939	-13,5	-2,129
1460,104	-13	-2,054
1462,276	-13,5	-2,118
1464,448	-13,5	-2,163
1466,62	-14,5	-2,195
1468,786	-15	-2,27
1470,964	-15	-2,246
1473,13	-13,5	-2,193
1475,302	-15	-2,258
1477,461	-15,5	-2,336
1479,627	-16,5	-2,474
1481,793	-18	-2,548
1483,965	-20,5	-2,645
1486,137	-20,5	-2,7
1488,309	-19	-2,633
1490,475	-19,5	-2,642
1492,658	-18,5	-2,553
1494,824	-18,5	-2,625
1496,996	-20	-2,703
1499,156	-19	-2,631
1501,322	-19,5	-2,646
1503,488	-19,5	-2,7
1505,666	-17,5	-2,544
1507,832	-17	-2,49
1510,004	-17	-2,513
1512,169	-17	-2,501
1514,335	-18	-2,481
1516,507	-15,5	-2,418
1518,673	-16	-2,423
1520,851	-15	-2,315
1523,017	-15	-2,325
1525,195	-13,5	-2,211
1527,367	-13	-2,175
1529,532	-13	-2,132
1531,704	-12	-2,064
1533,882	-11	-2,015
1536,048	-10	-1,885
1538,214	-9	-1,77
1540,38	-9,5	-1,796
1542,552	-10,5	-1,905
1544,718	-11	-1,934
1546,889	-9,5	-1,847
1549,049	-10	-1,904
1551,221	-9,5	-1,888
1553,387	-9,5	-1,856
1555,565	-8	-1,726
1557,737	-8,5	-1,702
1559,939	-6,5	-1,515
1562,117	-5,5	-1,391
1564,288	-5	-1,372
1566,454	-5,5	-1,344
1568,626	-4,5	-1,272
1570,786	-5	-1,37
1572,952	-5	-1,318
1575,124	-4,5	-1,276
1577,29	-4	-1,218
1579,456	-4	-1,137
1581,621	-3,5	-1,116
1583,799	-3	-1,008
1585,971	-3	-0,977
1588,143	-1,5	-0,782
1590,309	-1,5	-0,734
1592,481	-1	-0,694
1594,647	-1	-0,634
1596,819	0	-0,518
1598,99	0	-0,398
1601,15	0	-0,33
1603,322	0,5	-0,306
1605,488	0	-0,317
1607,666	1,5	-0,2
1609,832	1,5	-0,175
1611,998	2,5	-0,132
1614,164	2	-0,139
1616,335	1,5	-0,146
1618,501	2,5	-0,12
1620,667	2	-0,141
1622,839	3	-0,103
1625,011	3,5	-0,061
1627,183	3,5	-0,061
1629,349	3,5	-0,06
1631,515	3,5	-0,053
1633,68	4	-0,039
1635,858	4,5	-0,025
1638,024	4,5	-0,021
1640,196	4	-0,016
1642,368	4,5	-0,009
1644,54	4	-0,008
1646,706	4,5	-0,009
1648,872	4,5	-0,007
1651,037	4,5	-0,008
1653,203	4,5	-0,008
1655,381	4,5	-0,005
1657,547	4,5	-0,003
1659,725	4,5	-0,002
1661,891	4,5	-0,001
1664,057	4,5	-0,001
1666,235	4	-0,001
1668,4	4	-0,001
1670,578	4	0
1672,744	4,5	0
1674,916	4,5	0
1677,082	4,5	-0,001
1679,26	4,5	-0,084
1681,426	4,5	-0,195
1683,598	3,5	-0,335
1685,763	3	-0,389
1687,935	1,5	-0,484
1690,101	0,5	-0,596
1692,267	1	-0,612
1694,445	-1,5	-0,853
1696,611	-0,5	-0,779
1698,783	-1,5	-0,879
1700,949	-2	-0,996
1703,12	-3	-1,127
1705,286	-3,5	-1,25
1707,458	-4,5	-1,43
1709,63	-4,5	-1,492
1711,796	-4,5	-1,497
1713,968	-5	-1,676
1716,14	-5,5	-1,733
1718,312	-6	-1,796
1720,478	-6	-1,833
1722,643	-6	-1,844
1724,809	-6	-1,871
1726,981	-6	-1,832
1729,153	-6,5	-1,867
1731,319	-6,5	-1,868
1733,485	-6	-1,831
1735,657	-6,5	-1,868
1737,823	-6	-1,888
1739,994	-7,5	-2,004
1742,16	-7,5	-1,989
1744,332	-7,5	-2,014
1746,498	-7,5	-2,1
1748,664	-7,5	-2,115
1750,83	-8,5	-2,158
1752,996	-8	-2,111
1755,174	-9	-2,204
1757,339	-8,5	-2,203
1759,505	-7,5	-2,081
1761,671	-7,5	-2,061
1763,831	-7	-1,935
1766,003	-6	-1,95
1768,169	-7	-1,982
1770,329	-6,5	-1,9
1772,495	-5,5	-1,821
1774,666	-5,5	-1,866
1776,838	-5,5	-1,864
1779,004	-6	-1,892
1781,176	-6	-1,858
1783,342	-6,5	-1,996
1785,514	-6,5	-1,974
1787,686	-6	-1,988
1789,864	-6,5	-1,97
1792,029	-6,5	-1,938
1794,195	-6	-1,891
1796,367	-6,5	-1,952
1798,533	-5,5	-1,836
1800,693	-5	-1,742
1802,865	-6	-1,81
1805,037	-5,5	-1,815
1807,209	-5,5	-1,77
1809,368	-5	-1,767
1811,54	-5,5	-1,892
1813,706	-6,5	-1,942
1815,872	-6	-1,905
1818,038	-6	-1,884
1820,21	-6	-1,859
1822,382	-6	-1,965
1824,548	-6	-1,816
1826,72	-5	-1,783
1828,879	-5,5	-1,817
1831,051	-5,5	-1,79
1833,217	-5	-1,722
1835,401	-5,5	-1,917
1837,567	-6	-1,907
1839,739	-5,5	-1,84
1841,911	-5,5	-1,841
1844,076	-4,5	-1,767
1846,254	-5,5	-1,838
1848,42	-5,5	-1,822
1850,592	-5,5	-1,821
1852,758	-5	-1,762
1854,924	-5,5	-1,789
1857,09	-5	-1,774
1859,256	-5	-1,769
1861,421	-5	-1,726
1863,593	-4,5	-1,677
1865,765	-4,5	-1,558
1867,931	-3	-1,368
1870,097	-3	-1,277
1872,269	-3	-1,222
1874,447	-3,5	-1,342
1876,613	-2,5	-1,236
1878,778	-2,5	-1,146
1880,944	-1,5	-1,018
1883,116	-1,5	-0,969
1885,282	-1	-0,826
1887,46	-1,5	-0,865
1889,626	0	-0,738
1891,798	1,5	-0,635
1893,964	3	-0,47
1896,129	3,5	-0,391
1898,307	3,5	-0,366
1900,467	4,5	-0,249
1902,639	4	-0,194
1904,805	4,5	-0,012
1906,977	4,5	0
1909,143	4,5	0
1911,315	4,5	0
1913,48	4,5	0
1915,652	4,5	-0,001
1917,824	4,5	-0,001
1919,99	4,5	-0,001
1922,156	4,5	-0,001
1924,328	4,5	-0,002
1926,5	4,5	-0,003
1928,672	4,5	-0,003
1930,831	4,5	-0,006
1933,003	4,5	-0,006
1935,175	4,5	-0,005
1937,335	4,5	-0,009
1939,507	4,5	-0,011
1941,673	4,5	-0,016
1943,851	4,5	-0,02
1946,017	4,5	-0,022
1948,189	4,5	-0,023
1950,36	4	-0,022
1952,526	4	-0,027
1954,692	4	-0,033
1956,858	4	-0,034
1959,024	4	-0,048
1961,196	4	-0,047
1963,362	3,5	-0,067
1965,534	3,5	-0,062
1967,705	4	-0,062
1969,877	3,5	-0,061
1972,043	3,5	-0,062
1974,209	3,5	-0,068
1976,381	3,5	-0,068
1978,553	3	-0,092
1980,725	3,5	-0,07
1982,896	4	-0,053
1985,062	4	-0,047
1987,234	4	-0,051
1989,4	3,5	-0,064
1991,578	3,5	-0,091
1993,744	3	-0,122
1995,91	3	-0,114
1998,082	3	-0,111
2000,248	2,5	-0,135
2002,431	2,5	-0,133
2004,597	3,5	-0,104
2006,769	3	-0,108
2008,935	3,5	-0,106
2011,101	2,5	-0,144
2013,273	2	-0,228
2015,439	2	-0,232
2017,605	1,5	-0,241
2019,776	1,5	-0,274
2021,942	1,5	-0,228
2024,12	2	-0,202
2026,286	1,5	-0,226
2028,458	2,5	-0,16
2030,63	2	-0,164
2032,796	3	-0,167
2034,968	2,5	-0,168
2037,133	2	-0,215
2039,311	2,5	-0,19
2041,477	2	-0,196
2043,643	2	-0,224
2045,827	1,5	-0,231
2047,993	2	-0,243
2050,165	2	-0,228
2052,331	2	-0,269
2054,508	2	-0,192
2056,674	2	-0,263
2058,84	1,5	-0,323
2061,006	2	-0,262
2063,178	2,5	-0,205
2065,344	2	-0,238
2067,522	2,5	-0,207
2069,688	2	-0,24
2071,859	2,5	-0,198
2074,031	3	-0,165
2076,203	2,5	-0,187
2078,369	3	-0,206
2080,535	2,5	-0,232
2082,707	2,5	-0,236
2084,873	2	-0,304
2087,051	3	-0,189
2089,216	3	-0,131
2091,382	2,5	-0,18
2093,554	3,5	-0,134
2095,72	2,5	-0,212
2097,898	2,5	-0,226
2100,064	2	-0,277
2102,23	2	-0,373
2104,402	1,5	-0,471
2106,567	1,5	-0,54
2108,739	1	-0,601
2110,905	1,5	-0,558
2113,077	1,5	-0,458
2115,249	1,5	-0,469
2117,415	1,5	-0,475
2119,587	1,5	-0,567
2121,759	1	-0,611
2123,93	1	-0,665
2126,096	0,5	-0,744
2128,262	0,5	-0,792
2130,434	0,5	-0,805
2132,6	0	-0,836
2134,778	0	-0,83
2136,944	0	-0,881
2139,116	0	-0,904
2141,281	0	-0,989
2143,447	0	-1,053
2145,613	0	-1,19
2147,779	-0,5	-1,233
2149,957	-0,5	-1,295
2152,123	0	-1,188
2154,289	-0,5	-1,278
2156,461	0	-1,194
2158,626	0	-1,157
2160,798	-0,5	-1,228
2162,964	0	-1,215
2165,13	-0,5	-1,264
2167,302	0	-1,319
2169,468	-1	-1,371
2171,64	-0,5	-1,315
2173,806	-0,5	-1,351
2175,971	-1	-1,383
2178,137	-1	-1,399
2180,303	-0,5	-1,445
2182,469	-1	-1,482
2184,635	-1	-1,514
2186,807	-0,5	-1,377
2188,973	-1	-1,506
2191,139	-1	-1,483
2193,305	-0,5	-1,461
2195,47	-0,5	-1,35
2197,636	-0,5	-1,344
2199,802	-0,5	-1,434
2201,968	-0,5	-1,413
2204,14	-0,5	-1,393
2206,306	0	-1,313
2208,472	0	-1,169
2210,637	0	-1,078
2212,809	0	-0,957
2214,975	0,5	-0,83
2217,141	1	-0,695
2219,313	1	-0,708
2221,479	1	-0,639
2223,651	1,5	-0,528
2225,817	1,5	-0,358
2227,988	2,5	-0,229
2230,16	3	-0,129
2232,326	3	-0,113
2234,492	3,5	-0,088
2236,658	4	-0,071
2238,818	3,5	-0,09
2240,99	3,5	-0,075
2243,156	3,5	-0,054
2245,328	4	-0,044
2247,499	4	-0,028
2249,659	4,5	-0,023
2251,825	4,5	-0,018
2253,997	4,5	-0,013
2256,163	4,5	-0,01
2258,335	4,5	-0,006
2260,507	4,5	-0,005
2262,672	4,5	-0,004
2264,838	4,5	-0,004
2267,004	4,5	-0,003
2269,17	4,5	-0,002
2271,348	4,5	-0,002
2273,514	4,5	-0,001
2275,68	4,5	0
2277,852	4,5	-0,138
2280,018	4	-0,289
2282,189	3,5	-0,46
2284,355	2,5	-0,518
2286,521	2	-0,593
2288,687	2	-0,614
2290,859	0,5	-0,756
2293,031	0	-0,846
2295,203	-1	-1,041
2297,369	-1	-1,096
2299,534	-1	-1,116
2301,7	-1	-1,154
2303,872	-1	-1,206
2306,044	-1,5	-1,289
2308,216	-1,5	-1,367
2310,388	-1,5	-1,408
2312,56	-2	-1,534
2314,732	-2	-1,57
2316,897	-2,5	-1,618
2319,069	-2,5	-1,739
2321,241	-3	-1,875
2323,419	-3	-1,951
2325,585	-3	-2,091
2327,757	-3,5	-2,163
2329,935	-4	-2,298
2332,101	-4	-2,363
2334,266	-4,5	-2,395
2336,432	-4,5	-2,38
2338,604	-4,5	-2,468
2340,776	-5	-2,583
2342,942	-5	-2,658
2345,108	-5	-2,637
2347,274	-5,5	-2,67
2349,44	-5	-2,686
2351,611	-5,5	-2,79
2353,783	-6	-2,922
2355,949	-6,5	-3,039
2358,121	-7,5	-3,166
2360,287	-7,5	-3,232
2362,465	-8,5	-3,317
2364,631	-9	-3,304
2366,797	-8	-3,28
2368,962	-8	-3,28
2371,128	-8,5	-3,34
2373,3	-8,5	-3,307
2375,472	-9	-3,316
2377,638	-9	-3,338
2379,81	-10	-3,381
2381,976	-9,5	-3,362
2384,148	-9,5	-3,39
2386,313	-10,5	-3,417
2388,485	-11	-3,438
2390,657	-11,5	-3,458
2392,823	-11,5	-3,46
2394,995	-12	-3,465
2397,161	-11,5	-3,458
2399,339	-12	-3,464
2401,505	-12	-3,47
2403,676	-12	-3,461
2405,836	-12	-3,461
2408,002	-12	-3,47
2410,18	-12	-3,481
2412,34	-12	-3,468
2414,512	-12,5	-3,486
2416,678	-12,5	-3,487
2418,85	-12,5	-3,491
2421,015	-12	-3,494
2423,181	-12,5	-3,496
2425,353	-12,5	-3,497
2427,519	-12,5	-3,498
2429,691	-12	-3,499
2431,857	-12,5	-3,499
2434,023	-12	-3,499
2436,189	-12	-3,499
2438,367	-12	-3,499
2440,532	-12	-3,499
2442,698	-12	-3,5
2444,864	-12	-3,5
2447,036	-12	-3,5
2449,202	-12	-3,496
2451,374	-12	-3,5
2453,54	-12	-3,5
2455,705	-12	-3,5
2457,877	-12	-3,432
2460,043	-12	-3,35
2462,215	-12	-3,249
2464,381	-12	-3,171
2466,553	-10	-3,076
2468,713	-8,5	-2,996
2470,885	-6	-2,874
2473,051	-6	-2,8
2475,222	-4,5	-2,657
2477,394	-4,5	-2,569
2479,554	-4,5	-2,556
2481,732	-3	-2,346
2483,898	-3	-2,293
2486,07	-3	-2,21
2488,242	-1,5	-2,094
2490,407	-1	-1,96
2492,573	-0,5	-1,764
2494,739	-0,5	-1,689
2496,905	0	-1,46
2499,077	0	-1,232
2501,243	1	-1,121
2503,415	1	-0,979
2505,581	1	-0,808
2507,747	1,5	-0,712
2509,918	1,5	-0,538
2512,084	2	-0,399
2514,256	2,5	-0,215
2516,422	3,5	-0,103
2518,588	3,5	-0,074
2520,76	4	-0,054
2522,926	4	-0,045
2525,098	4,5	-0,023
2527,263	4,5	-0,013
2529,429	4,5	-0,008
2531,601	4,5	-0,005
2533,767	4,5	-0,003
2535,939	4,5	-0,002
2538,105	4,5	-0,002
2540,277	4,5	-0,001
2542,449	4,5	-0,001
2544,614	4,5	0
2546,792	4,5	-0,265
2548,958	3,5	-0,39
2551,136	3	-0,535
2553,302	0,5	-0,732
2555,468	0	-0,881
2557,64	-0,5	-1,082
2559,812	-1	-1,256
2561,989	-1,5	-1,471
2564,155	-1,5	-1,636
2566,321	-1,5	-1,711
2568,487	-2	-1,866
2570,653	-2,5	-2,041
2572,825	-3	-2,263
2574,997	-3,5	-2,389
2577,163	-3,5	-2,549
2579,34	-4,5	-2,736
2581,506	-5	-2,939
2583,69	-6,5	-3,228
2585,862	-7,5	-3,322
2588,028	-9,5	-3,398
2590,2	-10,5	-3,448
2592,366	-11	-3,47
2594,544	-11,5	-3,486
2596,709	-11,5	-3,492
2598,875	-12	-3,495
2601,047	-12	-3,496
2603,213	-11,5	-3,498
2605,385	-11,5	-3,498
2607,551	-11,5	-3,498
2609,717	-11,5	-3,499
2611,889	-11,5	-3,499
2614,054	-11	-3,499
2616,226	-11,5	-3,483
2618,398	-11,5	-3,306
2620,564	-10,5	-3,173
2622,736	-6,5	-2,982
2624,896	-4,5	-2,799
2627,068	-4	-2,64
2629,234	-2,5	-2,503
2631,405	-2,5	-2,386
2633,577	-1,5	-2,277
2635,737	-1	-2,142
2637,909	-1	-1,962
2640,087	0	-1,711
2642,247	0	-1,671
2644,419	0	-1,565
2646,591	0	-1,398
2648,762	0,5	-1,219
2650,928	0,5	-1,14
2653,094	1	-0,952
2655,266	1	-0,841
2657,426	1,5	-0,728
2659,592	1,5	-0,637
2661,764	1,5	-0,537
2663,93	1,5	-0,51
2666,101	1,5	-0,402
2668,267	2	-0,222
2670,433	3	-0,172
2672,605	3	-0,103
2674,777	3,5	-0,066
2676,949	4	-0,037
2679,115	4,5	-0,026
2681,281	4,5	-0,021
2683,452	4,5	-0,013
2685,624	4,5	-0,009
2687,79	4,5	-0,007
2689,962	4,5	-0,005
2692,128	4,5	-0,004
2694,3	4,5	-0,002
2696,466	4,5	-0,001
2698,638	4,5	-0,001
2700,803	4,5	-0,001
2702,969	4,5	-0,001
2705,141	4,5	-0,003
2707,307	4,5	-0,188
2709,479	3,5	-0,419
2711,657	3,5	-0,379
2713,829	1	-0,644
2716,007	2	-0,608
2718,173	1	-0,662
2720,344	2	-0,59
2722,516	0	-0,765
2724,682	0	-0,978
2726,848	-0,5	-1,181
2729,014	-1	-1,42
2731,186	-1	-1,616
2733,352	-1,5	-1,812
2735,518	-1,5	-1,807
2737,689	-2	-2,04
2739,855	-2	-2,194
2742,027	-2,5	-2,342
2744,193	-3	-2,555
2746,365	-3,5	-2,745
2748,537	-4	-2,892
2750,703	-4,5	-3,09
2752,869	-6	-3,308
2755,034	-7,5	-3,396
2757,2	-9	-3,441
2759,378	-9,5	-3,471
2761,544	-10	-3,482
2763,704	-10,5	-3,492
2765,876	-10,5	-3,496
2768,042	-10,5	-3,497
2770,214	-10,5	-3,498
2772,379	-10,5	-3,499
2774,551	-10,5	-3,476
2776,723	-10,5	-3,247
2778,889	-8	-3,032
2781,055	-5	-2,792
2783,233	-2,5	-2,455
2785,399	-1,5	-2,22
2787,571	-0,5	-1,962
2789,736	0	-1,754
2791,902	0	-1,679
2794,08	0	-1,73
2796,246	0	-1,614
2798,412	0	-1,416
2800,584	0,5	-1,21
2802,75	0,5	-1,045
2804,922	1	-0,797
2807,093	1	-0,612
2809,259	1,5	-0,43
2811,431	1,5	-0,253
2813,603	2	-0,185
2815,775	2,5	-0,129
2817,941	3	-0,104
2820,107	3	-0,083
2822,285	3,5	-0,049
2824,45	4	-0,024
2826,616	4	-0,018
2828,782	4	-0,014
2830,948	4,5	-0,009
2833,12	4,5	-0,004
2835,286	4	-0,003
2837,452	4,5	-0,004
2839,63	4,5	-0,002
2841,795	4	-0,001
2843,967	4,5	-0,032
2846,133	4	-0,325
2848,299	1,5	-0,582
2850,471	0,5	-0,797
2852,637	0,5	-0,825
2854,803	0	-0,986
2856,975	-0,5	-1,137
2859,14	-0,5	-1,105
2861,312	-0,5	-1,349
2863,472	-0,5	-1,335
2865,638	-1	-1,519
2867,816	-1	-1,742
2869,982	-1,5	-1,886
2872,154	-1,5	-1,975
2874,32	-2,5	-2,24
2876,485	-2,5	-2,352
2878,651	-2	-2,23
2880,817	-2,5	-2,465
2882,983	-3	-2,71
2885,155	-3,5	-2,942
2887,321	-5	-3,192
2889,493	-6,5	-3,375
2891,653	-8	-3,43
2893,818	-10	-3,478
2895,99	-10	-3,49
2898,168	-10	-3,494
2900,334	-10	-3,492
2902,5	-10,5	-3,496
2904,666	-10,5	-3,496
2906,844	-10	-3,495
2909,01	-10,5	-3,498
2911,175	-10,5	-3,499
2913,347	-10	-3,488
2915,513	-10	-3,269
2917,679	-8,5	-3,085
2919,845	-7	-2,983
2922,011	-5	-2,807
2924,177	-3	-2,594
2926,343	-2	-2,454
2928,508	-2	-2,348
2930,686	-1	-2,139
2932,852	-1	-2,01
2935,018	-0,5	-2,021
2937,19	0	-1,869
2939,362	0	-1,688
2941,534	0	-1,425
2943,7	0,5	-1,276
2945,865	0,5	-1,201
2948,037	1	-0,994
2950,197	1	-0,891
2952,363	1	-0,69
2954,535	1	-0,574
2956,701	1,5	-0,446
2958,873	2	-0,222
2961,045	2,5	-0,137
2963,21	3,5	-0,069
2965,382	4	-0,034
2967,548	4	-0,021
2969,708	4,5	-0,012
2971,88	4,5	-0,008
2974,052	4,5	-0,004
2976,224	4,5	-0,002
2978,39	4,5	-0,001
2980,556	4,5	-0,001
2982,727	4,5	-0,06
2984,893	4,5	-0,232
2987,065	3,5	-0,441
2989,231	1	-0,676
2991,403	0	-0,897
2993,575	-0,5	-1,194
2995,741	-0,5	-1,401
2997,913	-1	-1,591
3000,084	-1	-1,697
3002,256	-1,5	-2,024
3004,422	-1,5	-2,212
3006,588	-2	-2,471
3008,754	-3	-2,652
3010,926	-3,5	-2,895
3013,092	-4	-3,002
3015,264	-5	-3,217
3017,435	-6	-3,328
3019,601	-7,5	-3,399
3021,767	-8	-3,436
3023,939	-9,5	-3,477
3026,105	-10	-3,488
3028,271	-10	-3,494
3030,449	-10	-3,497
3032,615	-10	-3,498
3034,78	-10	-3,499
3036,952	-10	-3,499
3039,124	-10	-3,5
3041,296	-10	-3,353
3043,462	-9,5	-3,178
3045,628	-6	-3,009
3047,806	-5	-2,85
3049,972	-2,5	-2,633
3052,137	-2	-2,494
3054,321	-1	-2,244
3056,487	-0,5	-2,094
3058,665	0	-1,859
3060,831	0	-1,645
3062,997	0	-1,449
3065,169	0,5	-1,338
3067,335	0,5	-1,269
3069,5	0,5	-1,135
3071,678	1	-0,969
3073,844	1	-0,936
3076,01	1	-0,878
3078,182	1	-0,709
3080,348	1	-0,714
3082,52	1	-0,476
3084,686	1,5	-0,475
3086,857	1,5	-0,323
3089,029	1,5	-0,243
3091,195	2	-0,178
3093,361	2,5	-0,104
3095,539	3	-0,061
3097,711	3,5	-0,038
3099,877	4	-0,023
3102,055	4	-0,014
3104,22	4	-0,008
3106,386	4	-0,005
3108,558	4	-0,003
3110,73	4,5	-0,002
3112,896	4	-0,001
3115,068	4	0
3117,234	4	-0,2
3119,406	3,5	-0,33
3121,571	1,5	-0,559
3123,737	1	-0,677
3125,909	0	-0,861
3128,075	0	-1,037
3130,247	-0,5	-1,201
3132,413	-0,5	-1,35
3134,585	-1	-1,53
3136,757	-1	-1,852
3138,922	-1,5	-2,006
3141,088	-1,5	-2,166
3143,266	-2	-2,361
3145,432	-2,5	-2,557
3147,598	-3	-2,812
3149,77	-4	-3,013
3151,936	-3,5	-3,046
3154,102	-5	-3,22
3156,273	-6	-3,351
3158,445	-7,5	-3,413
3160,617	-8	-3,437
3162,783	-8,5	-3,442
3164,949	-9	-3,46
3167,127	-9,5	-3,479
3169,293	-9,5	-3,484
3171,459	-10	-3,488
3173,63	-10	-3,492
3175,796	-10	-3,495
3177,968	-9,5	-3,496
3180,14	-10	-3,498
3182,312	-10	-3,499
3184,478	-10	-3,499
3186,65	-9,5	-3,499
3188,816	-10	-3,5
3190,981	-10	-3,406
3193,153	-9,5	-3,2
3195,325	-6	-3,002
3197,491	-5,5	-2,97
3199,663	-4,5	-2,881
3201,835	-3	-2,712
3204,001	-2	-2,6
3206,179	-1,5	-2,476
3208,344	-1	-2,315
3210,51	-1	-2,253
3212,682	-1	-2,297
3214,848	-1	-2,301
3217,014	-1	-2,249
3219,192	-0,5	-2,15
3221,358	-0,5	-2,065
3223,536	0	-2,059
3225,701	-0,5	-2,09
3227,867	-0,5	-2,09
3230,045	-0,5	-2,019
3232,211	0	-1,975
3232,955	4	-0,001