File: ensaios_Ciclicos/sem_TC/entrada/_4.txt
Time (s)	Load (N)	Displacement (mm)
0	0	-0,053
2,135	0,5	-0,136
4,295	1,5	-0,001
6,407	1,5	-0,002
8,519	1,5	-0,002
10,631	1,5	-0,003
12,743	1,5	-0,006
14,855	2	-0,007
16,967	2	-0,01
19,079	1,5	-0,016
21,19	1,5	-0,029
23,308	1,5	-0,02
25,42	1,5	-0,022
27,538	1,5	-0,019
29,65	1,5	-0,023
31,762	1,5	-0,021
33,88	1,5	-0,018
35,997	1,5	-0,014
38,115	2	-0,015
40,227	1,5	-0,014
42,345	1,5	-0,021
44,457	1,5	-0,025
46,569	1,5	-0,026
48,681	1,5	-0,039
50,793	1,5	-0,036
52,905	1,5	-0,036
55,022	1,5	-0,041
57,14	1,5	-0,034
59,258	1,5	-0,03
61,37	1,5	-0,03
63,482	1,5	-0,032
65,594	2	-0,025
67,706	1,5	-0,035
69,83	2	-0,033
71,942	2	-0,03
74,071	2	-0,024
76,189	2	-0,024
78,301	2	-0,033
80,419	2	-0,03
82,543	2	-0,025
84,655	2,5	-0,017
86,779	2,5	-0,021
88,897	2	-0,016
91,008	2	-0,018
93,121	2	-0,026
95,238	2	-0,032
97,356	2	-0,035
99,468	1,5	-0,048
101,586	2	-0,036
103,698	2	-0,042
105,827	2	-0,032
107,939	2	-0,036
110,058	2	-0,036
112,175	2	-0,037
114,293	1,5	-0,048
116,411	1,5	-0,049
118,529	1,5	-0,042
120,647	1,5	-0,044
122,776	2	-0,039
124,894	2	-0,039
127,006	2	-0,041
129,124	2	-0,025
131,254	2,5	-0,018
133,372	2	-0,022
135,484	2,5	-0,03
137,608	2,5	-0,023
139,72	2,5	-0,027
141,855	2,5	-0,015
143,973	2,5	-0,012
146,085	2,5	-0,012
148,203	2,5	-0,009
150,333	3	-0,007
152,451	3	-0,006
154,569	2,5	-0,004
156,681	2,5	-0,004
158,805	3	-0,004
160,934	3	-0,002
163,052	3	-0,003
165,17	3	-0,002
167,282	3	-0,002
169,394	3	-0,002
171,518	3	-0,001
173,636	3	-0,001
175,759	3	-0,001
177,877	3	-0,001
180,007	3	-0,001
182,125	3	-0,001
184,243	3	-0,001
186,367	3	-0,001
188,485	3	-0,001
190,615	3	-0,001
192,733	3	-0,001
194,856	3	0
196,968	3	0
199,092	3	-0,001
201,204	3	-0,001
203,334	2,5	-0,001
205,452	3	0
207,564	3	-0,06
209,682	3	-0,203
211,793	2	-0,271
213,911	1,5	-0,384
216,035	0	-0,579
218,177	-4	-0,906
220,295	-5	-1,06
222,431	-7,5	-1,383
224,549	-8,5	-1,521
226,667	-9	-1,671
228,778	-9,5	-1,703
230,908	-12	-1,881
233,032	-14	-2,081
235,156	-14,5	-2,173
237,286	-14,5	-2,233
239,41	-17	-2,374
241,54	-17,5	-2,482
243,664	-17,5	-2,591
245,782	-18	-2,745
247,899	-21	-2,834
250,035	-22,5	-2,946
252,153	-22,5	-3,051
254,283	-22,5	-3,175
256,407	-26	-3,25
258,525	-25,5	-3,285
260,637	-26	-3,29
262,76	-26,5	-3,376
264,878	-22,5	-3,176
266,996	-24,5	-3,176
269,126	-27	-3,302
271,244	-26	-3,324
273,374	-27,5	-3,414
275,498	-30	-3,446
277,61	-30,5	-3,458
279,734	-31	-3,474
281,851	-31	-3,48
283,963	-30,5	-3,48
286,087	-31,5	-3,483
288,205	-31,5	-3,484
290,323	-31,5	-3,487
292,441	-31,5	-3,489
294,559	-31,5	-3,488
296,689	-31,5	-3,491
298,818	-31,5	-3,494
300,942	-31,5	-3,495
303,066	-31,5	-3,496
305,184	-31,5	-3,497
307,308	-31,5	-3,498
309,426	-31,5	-3,498
311,55	-31,5	-3,499
313,674	-31	-3,499
315,803	-31,5	-3,5
317,915	-31	-3,5
320,033	-31,5	-3,491
322,157	-31,5	-3,474
324,287	-31,5	-3,31
326,411	-31	-3,17
328,541	-30	-3,024
330,665	-28	-2,984
332,788	-27	-2,926
334,906	-26,5	-2,874
337,036	-27,5	-2,905
339,16	-27	-2,864
341,284	-30	-3,112
343,414	-29,5	-3,031
345,544	-26,5	-2,918
347,662	-25,5	-2,85
349,78	-27,5	-2,893
351,897	-26,5	-2,856
354,021	-24,5	-2,8
356,145	-25	-2,784
358,269	-24,5	-2,705
360,393	-30	-3,083
362,517	-30	-3,054
364,641	-27	-2,976
366,759	-27	-2,891
368,888	-24,5	-2,741
371,024	-24	-2,704
373,142	-23	-2,641
375,272	-23	-2,575
377,402	-21,5	-2,49
379,532	-22,5	-2,552
381,656	-23,5	-2,608
383,774	-22,5	-2,524
385,885	-22,5	-2,575
388,003	-22	-2,538
390,127	-21	-2,434
392,245	-21	-2,438
394,369	-21	-2,399
396,493	-20,5	-2,338
398,617	-19	-2,282
400,735	-19	-2,186
402,852	-19,5	-2,261
404,97	-19,5	-2,271
407,094	-19	-2,183
409,212	-19,5	-2,238
411,33	-18	-2,168
413,454	-17,5	-2,086
415,578	-15	-1,961
417,696	-14	-1,898
419,819	-14	-1,852
421,937	-13,5	-1,83
424,061	-12,5	-1,716
426,185	-12	-1,639
428,303	-11	-1,6
430,427	-10,5	-1,494
432,545	-10	-1,466
434,669	-9,5	-1,409
436,793	-10	-1,439
438,922	-9,5	-1,428
441,052	-9	-1,32
443,176	-7,5	-1,274
445,288	-8	-1,257
447,412	-8	-1,275
449,602	-5	-0,959
451,72	-4,5	-0,906
453,838	-5	-0,94
455,968	-4,5	-0,82
458,091	-3,5	-0,736
460,221	-3,5	-0,751
462,345	-3	-0,673
464,463	-3	-0,669
466,593	-3	-0,754
468,705	-4	-0,757
470,829	-3,5	-0,749
472,952	-3	-0,719
475,082	-2	-0,549
477,2	-2	-0,575
479,324	-1,5	-0,46
481,448	-1,5	-0,414
483,584	-1	-0,257
485,708	-0,5	-0,306
487,832	0	-0,268
489,949	0	-0,255
492,079	0,5	-0,179
494,197	0,5	-0,157
496,321	1	-0,137
498,445	1	-0,124
500,569	1,5	-0,09
502,687	2	-0,064
504,805	2	-0,063
506,929	2	-0,059
509,058	3	-0,046
511,182	3	-0,044
513,312	3,5	-0,025
515,436	3,5	-0,014
517,566	3,5	-0,01
519,678	3,5	-0,009
521,802	3,5	-0,006
523,926	3	-0,006
526,055	3	-0,003
528,179	3,5	-0,003
530,303	3,5	-0,002
532,427	3,5	-0,001
534,557	3,5	-0,001
536,675	3,5	-0,001
538,799	3,5	-0,001
540,917	3,5	-0,001
543,04	3,5	-0,001
545,164	3,5	-0,001
547,282	3,5	-0,001
549,4	3,5	-0,001
551,518	3,5	-0,001
553,642	3,5	0
555,76	3,5	-0,003
557,878	3,5	0
560,001	3,5	-0,009
562,113	3,5	0
564,237	3,5	0
566,355	3,5	0
568,479	3,5	-0,002
570,597	3,5	-0,078
572,721	3,5	-0,181
574,845	3,5	-0,19
576,969	2,5	-0,385
579,092	1	-0,5
581,21	0	-0,59
583,328	-0,5	-0,665
585,452	-1	-0,709
587,57	0	-0,731
589,694	-0,5	-0,7
591,818	0	-0,645
593,936	0,5	-0,57
596,059	1,5	-0,5
598,183	2,5	-0,434
600,307	3	-0,285
602,437	2,5	-0,368
604,555	2	-0,442
606,679	1	-0,557
608,803	0	-0,624
610,921	1,5	-0,562
613,045	0	-0,568
615,174	0	-0,58
617,298	2,5	-0,406
619,416	3,5	-0,114
621,54	3,5	-0,012
623,664	3	0
625,788	3,5	0
627,906	3,5	0
630,029	3,5	-0,001
632,153	3,5	-0,004
634,283	3,5	-0,003
636,401	3,5	-0,003
638,525	3,5	-0,002
640,643	3,5	-0,003
642,761	3,5	-0,004
644,879	3,5	-0,004
647,003	3,5	-0,004
649,12	3,5	-0,004
651,244	3,5	-0,005
653,368	3,5	-0,003
655,492	3,5	-0,002
657,61	3,5	-0,004
659,734	3,5	-0,003
661,864	3,5	-0,002
663,988	3,5	-0,001
666,111	3,5	0
668,241	3,5	-0,181
670,365	3,5	-0,152
672,489	3,5	-0,102
674,607	3	-0,34
676,725	0	-0,584
678,849	-1	-0,749
680,973	-2,5	-0,937
683,09	-3,5	-1,07
685,208	-5	-1,335
687,334	-6	-1,493
689,45	-7,5	-1,726
691,574	-6,5	-1,622
693,698	-8	-1,791
695,816	-9	-1,971
697,94	-12,5	-2,224
700,063	-15	-2,446
702,181	-16,5	-2,636
704,299	-19,5	-2,902
706,423	-21	-3,059
708,541	-21	-3,202
710,665	-22,5	-3,339
712,789	-25,5	-3,378
714,901	-27	-3,414
717,018	-28	-3,449
719,142	-28	-3,468
721,266	-28,5	-3,484
723,384	-28,5	-3,479
725,502	-29	-3,486
727,62	-29	-3,487
729,738	-29	-3,492
731,856	-29	-3,493
733,981	-29	-3,496
736,103	-29	-3,498
738,227	-29	-3,5
740,345	-29	-3,365
742,469	-29	-3,196
744,587	-25,5	-3,004
746,711	-24	-2,905
748,829	-21,5	-2,692
750,947	-21,5	-2,569
753,064	-21	-2,438
755,194	-15,5	-2,25
757,312	-15,5	-2,118
759,436	-13	-1,971
761,56	-10,5	-1,734
763,678	-9	-1,586
765,796	-11,5	-1,858
767,926	-10	-1,65
770,049	-8,5	-1,46
772,167	-7	-1,339
774,285	-6	-1,227
776,397	-4,5	-1,076
778,521	-5	-1,068
780,633	-4	-1,024
782,763	-4,5	-0,997
784,881	-5,5	-1,204
787,004	-5	-1,025
789,128	-6	-1,13
791,246	-5,5	-1,104
793,37	-6	-1,121
795,488	-6	-1,143
797,606	-6,5	-1,229
799,73	-7,5	-1,264
801,854	-7	-1,345
803,972	-8,5	-1,483
806,095	-8,5	-1,496
808,213	-9	-1,554
810,331	-8,5	-1,492
812,455	-7	-1,335
814,579	-7	-1,294
816,697	-8	-1,454
818,815	-7,5	-1,385
820,945	-6	-1,193
823,057	-5,5	-1,165
825,174	-4,5	-1,043
827,298	-4,5	-0,955
829,422	-4,5	-0,942
831,54	-4,5	-0,989
833,664	-4	-0,895
835,794	-3,5	-0,889
837,918	-2,5	-0,727
840,048	-3	-0,737
842,177	-2,5	-0,671
844,295	-1	-0,464
846,419	0	-0,277
848,543	0,5	-0,15
850,661	1	-0,134
852,785	1	-0,135
854,909	1	-0,169
857,038	1,5	-0,094
859,157	1	-0,122
861,28	1,5	-0,107
863,404	1	-0,111
865,528	1,5	-0,1
867,652	2	-0,088
869,776	2,5	-0,067
871,894	2,5	-0,061
874,018	3	-0,041
876,135	2,5	-0,056
878,253	2	-0,091
880,371	2,5	-0,064
882,495	3	-0,05
884,607	3	-0,044
886,731	3,5	-0,026
888,855	3,5	-0,015
890,979	3,5	-0,009
893,096	3,5	-0,007
895,226	3,5	-0,004
897,344	3,5	-0,003
899,474	3,5	-0,001
901,598	3,5	-0,001
903,716	3,5	0
905,84	3,5	-0,174
907,97	3	-0,38
910,094	0,5	-0,612
912,211	-1,5	-0,815
914,335	-3	-1,078
916,453	-4	-1,2
918,577	-4,5	-1,362
920,695	-5	-1,498
922,813	-6	-1,655
924,943	-9	-2,034
927,06	-11	-2,282
929,178	-13	-2,457
931,302	-14,5	-2,6
933,42	-15	-2,63
935,55	-18	-2,892
937,668	-19,5	-3,013
939,798	-21	-3,186
941,922	-22,5	-3,333
944,04	-24	-3,372
946,157	-23	-3,338
948,281	-25	-3,413
950,393	-26,5	-3,442
952,517	-27,5	-3,471
954,635	-27,5	-3,482
956,759	-28	-3,491
958,889	-28,5	-3,496
961,007	-28,5	-3,498
963,13	-28	-3,5
965,254	-28	-3,295
967,366	-27,5	-3,178
969,49	-24,5	-2,945
971,608	-23	-2,855
973,732	-21	-2,639
975,856	-22,5	-2,785
977,974	-20,5	-2,594
980,097	-18,5	-2,368
982,221	-15	-2,194
984,345	-16	-2,239
986,469	-14,5	-2,125
988,587	-13	-1,976
990,717	-13,5	-1,948
992,847	-9,5	-1,67
994,965	-8	-1,528
997,083	-6,5	-1,368
999,206	-6,5	-1,333
1001,33	-5,5	-1,198
1003,454	-4,5	-1,003
1005,572	-4	-0,949
1007,696	-2,5	-0,734
1009,826	-1,5	-0,589
1011,962	-2	-0,729
1014,08	-2,5	-0,788
1016,203	-1	-0,562
1018,321	0	-0,344
1020,445	0,5	-0,22
1022,563	1	-0,143
1024,687	2	-0,084
1026,811	3	-0,049
1028,935	3	-0,051
1031,053	3	-0,038
1033,176	3,5	-0,019
1035,312	3,5	-0,012
1037,43	3,5	-0,009
1039,554	3,5	-0,006
1041,678	3,5	-0,004
1043,802	3,5	-0,002
1045,92	3,5	-0,001
1048,11	3,5	-0,162
1050,234	3,5	-0,215
1052,357	3	-0,294
1054,475	2,5	-0,33
1056,599	3,5	-0,158
1058,723	3,5	-0,163
1060,853	3,5	-0,301
1062,977	2	-0,422
1065,101	3	-0,318
1067,224	3	-0,32
1069,348	2,5	-0,527
1071,472	0	-0,669
1073,59	-2	-0,86
1075,714	-3	-0,964
1077,832	-2,5	-1,016
1079,95	-3	-1,14
1082,074	-4,5	-1,286
1084,186	-5	-1,431
1086,303	-4	-1,265
1088,421	-4,5	-1,339
1090,551	-4,5	-1,389
1092,681	-5	-1,453
1094,799	-4,5	-1,286
1096,923	-5	-1,434
1099,041	-5	-1,476
1101,159	-5	-1,492
1103,276	-6,5	-1,683
1105,4	-6,5	-1,723
1107,512	-7,5	-1,767
1109,63	-6	-1,655
1111,754	-7,5	-1,796
1113,872	-9	-2,004
1115,996	-7,5	-1,846
1118,12	-9	-1,993
1120,243	-10,5	-2,237
1122,361	-12	-2,363
1124,485	-14,5	-2,638
1126,609	-13,5	-2,56
1128,727	-15,5	-2,741
1130,857	-18,5	-2,961
1132,975	-21	-3,136
1135,093	-22,5	-3,274
1137,205	-23	-3,354
1139,328	-25	-3,424
1141,446	-26,5	-3,456
1143,564	-27	-3,468
1145,687	-27	-3,479
1147,812	-27,5	-3,491
1149,942	-27,5	-3,493
1152,06	-27,5	-3,496
1154,19	-27,5	-3,499
1156,307	-27,5	-3,497
1158,431	-26,5	-3,192
1160,549	-23,5	-3,004
1162,673	-20,5	-2,714
1164,797	-18,5	-2,514
1166,915	-15,5	-2,319
1169,033	-13,5	-2,134
1171,151	-11,5	-1,974
1173,274	-9,5	-1,72
1175,386	-8,5	-1,549
1177,51	-6	-1,398
1179,628	-4,5	-1,159
1181,752	-4	-1,097
1183,876	-2,5	-0,834
1185,994	-1,5	-0,621
1188,112	0	-0,419
1190,235	0	-0,27
1192,359	0	-0,272
1194,477	1	-0,205
1196,595	1	-0,212
1198,719	2	-0,112
1200,843	1,5	-0,117
1202,955	2	-0,1
1205,079	3	-0,064
1207,197	3,5	-0,032
1209,326	3,5	-0,014
1211,444	3,5	-0,014
1213,574	3,5	-0,014
1215,692	3,5	-0,012
1217,81	3,5	-0,01
1219,934	3,5	-0,012
1222,058	3,5	-0,007
1224,182	3,5	-0,004
1226,299	3,5	-0,003
1228,423	3,5	-0,003
1230,541	3,5	-0,003
1232,665	3,5	-0,003
1234,783	3,5	-0,002
1236,913	3,5	-0,001
1239,031	3,5	-0,001
1241,149	3,5	-0,001
1243,266	3,5	-0,001
1245,396	3,5	0
1247,514	3,5	0
1249,644	3,5	0
1251,762	3,5	0
1253,88	3,5	0
1256,004	3,5	0
1258,134	3,5	-0,019
1260,251	3,5	-0,042
1262,375	3,5	-0,133
1264,493	3,5	-0,126
1266,617	3,5	-0,125
1268,735	3,5	-0,085
1270,865	2,5	-0,324
1272,989	0,5	-0,52
1275,113	0	-0,582
1277,236	1,5	-0,601
1279,36	-1,5	-0,897
1281,484	-1,5	-0,851
1283,602	-0,5	-0,738
1285,726	0	-0,669
1287,85	1	-0,581
1289,968	1,5	-0,528
1292,086	0	-0,714
1294,204	1,5	-0,527
1296,327	2	-0,45
1298,451	3	-0,42
1300,575	3	-0,392
1302,693	3,5	-0,289
1304,817	3,5	-0,298
1306,941	3	-0,317
1309,059	3,5	-0,241
1311,189	3,5	-0,242
1313,312	3,5	-0,321
1315,436	1,5	-0,586
1317,554	0,5	-0,638
1319,678	2	-0,54
1321,796	3	-0,406
1323,92	2	-0,431
1326,044	0	-0,663
1328,168	-0,5	-0,756
1330,291	0,5	-0,658
1332,415	1	-0,635
1334,539	0	-0,632
1336,651	2	-0,511
1338,775	3,5	-0,338
1340,887	3,5	-0,281
1343,011	3,5	-0,31
1345,129	3,5	-0,299
1347,252	3,5	-0,187
1349,37	3,5	-0,136
1351,488	3,5	-0,066
1353,612	3,5	-0,24
1355,736	3,5	-0,187
1357,854	3,5	-0,023
1359,978	3,5	-0,001
1362,102	3,5	0
1364,22	3,5	0
1366,35	4	-0,001
1368,467	3,5	-0,001
1370,591	3,5	-0,001
1372,709	4	-0,001
1374,827	4	-0,002
1376,945	4	-0,003
1379,069	3,5	-0,004
1381,187	4	-0,005
1383,31	3,5	-0,004
1385,428	3,5	-0,008
1387,552	3,5	-0,008
1389,676	3,5	-0,012
1391,8	3,5	-0,009
1393,924	3,5	-0,008
1396,048	3,5	-0,006
1398,166	3,5	-0,006
1400,289	3,5	-0,006
1402,407	3,5	-0,008
1404,525	3,5	-0,013
1406,643	3,5	-0,01
1408,767	3,5	-0,013
1410,885	3,5	-0,009
1413,009	3,5	-0,007
1415,127	3,5	-0,006
1417,257	3,5	-0,004
1419,374	4	-0,004
1421,498	3,5	-0,004
1423,616	3,5	-0,004
1425,74	3,5	-0,003
1427,858	3,5	-0,002
1429,982	3,5	-0,003
1432,1	3,5	-0,004
1434,224	4	-0,005
1436,341	4	-0,004
1438,477	4	-0,002
1440,595	4	-0,004
1442,725	4	-0,002
1444,843	4	-0,002
1446,979	3,5	-0,002
1449,097	4	-0,002
1451,227	4	-0,001
1453,35	3,5	-0,002
1455,468	3,5	-0,002
1457,598	3,5	-0,003
1459,716	3,5	-0,003
1461,852	3,5	-0,002
1463,97	4	-0,002
1466,094	4	-0,004
1468,212	4	-0,005
1470,335	3,5	-0,005
1472,453	3,5	-0,006
1474,577	3,5	-0,006
1476,695	3,5	-0,007
1478,819	3,5	-0,01
1480,937	3,5	-0,014
1483,055	3,5	-0,016
1485,179	3,5	-0,02
1487,302	3,5	-0,033
1489,432	3	-0,042
1491,55	3	-0,069
1493,68	3,5	-0,035
1495,798	3,5	-0,019
1497,928	4	-0,01
1500,046	3,5	-0,009
1502,17	3,5	-0,005
1504,288	4	-0,005
1506,411	3,5	-0,008
1508,529	3,5	-0,01
1510,659	3,5	-0,016
1512,777	3,5	-0,011
1514,907	3,5	-0,007
1517,037	3,5	-0,004
1519,161	3,5	-0,004
1521,279	3,5	-0,003
1523,402	3,5	-0,006
1525,52	3,5	-0,009
1527,644	4	-0,006
1529,762	4	-0,005
1531,886	3,5	-0,004
1533,998	3,5	-0,004
1536,122	3,5	-0,002
1538,234	3,5	-0,001
1540,357	3,5	-0,001
1542,475	3,5	-0,001
1544,599	4	-0,001
1546,717	4	-0,001
1548,841	3,5	-0,001
1550,959	3,5	-0,001
1553,077	3,5	-0,001
1555,201	3,5	-0,001
1557,325	3,5	-0,027
1559,448	4	-0,077
1561,566	3	-0,257
1563,69	2,5	-0,432
1565,814	1,5	-0,515
1567,932	1	-0,541
1570,059	0	-0,634
1572,174	-1	-0,745
1574,298	-0,5	-0,748
1576,421	-1,5	-0,927
1578,539	-3	-1,113
1580,663	-4	-1,255
1582,781	-3	-1,169
1584,905	-3,5	-1,214
1587,023	-4	-1,305
1589,147	-4	-1,392
1591,265	-5	-1,515
1593,395	-5,5	-1,632
1595,512	-5	-1,552
1597,636	-5	-1,635
1599,754	-6	-1,767
1601,878	-7	-1,892
1603,996	-7,5	-1,951
1606,114	-8	-2,014
1608,238	-9,5	-2,208
1610,355	-10,5	-2,331
1612,479	-11	-2,408
1614,597	-12,5	-2,556
1616,721	-15,5	-2,794
1618,839	-15,5	-2,878
1620,957	-16,5	-2,964
1623,081	-19	-3,078
1625,199	-18	-3,098
1627,316	-19	-3,18
1629,434	-18,5	-3,146
1631,552	-20,5	-3,274
1633,676	-21	-3,372
1635,794	-22,5	-3,381
1637,912	-22,5	-3,362
1640,036	-22	-3,367
1642,154	-24	-3,419
1644,272	-24	-3,433
1646,395	-24,5	-3,451
1648,585	-25,5	-3,478
1650,703	-26	-3,484
1652,821	-26	-3,478
1654,945	-25,5	-3,48
1657,063	-26	-3,482
1659,181	-26	-3,486
1661,299	-26	-3,489
1663,422	-26	-3,493
1665,54	-26,5	-3,493
1667,658	-26	-3,494
1669,782	-26	-3,495
1671,9	-26,5	-3,495
1674,024	-26	-3,496
1676,142	-26	-3,496
1678,266	-26	-3,498
1680,377	-26	-3,498
1682,501	-26	-3,498
1684,625	-26	-3,498
1686,743	-26	-3,497
1688,867	-26	-3,497
1690,985	-26	-3,498
1693,109	-26	-3,499
1695,227	-26	-3,499
1697,345	-26	-3,499
1699,462	-25,5	-3,499
1701,586	-26	-3,5
1703,704	-26	-3,5
1705,822	-26	-3,5
1707,946	-26	-3,456
1710,064	-25,5	-3,499
1712,188	-26	-3,5
1714,306	-25,5	-3,491
1716,417	-25,5	-3,438
1718,547	-25,5	-3,438
1720,665	-25,5	-3,349
1722,783	-25,5	-3,338
1724,907	-25,5	-3,264
1727,019	-25,5	-3,179
1729,143	-25,5	-3,16
1731,255	-25	-3,212
1733,378	-24	-3,155
1735,498	-24	-3,155
1737,614	-25,5	-3,193
1739,732	-25,5	-3,305
1741,85	-25,5	-3,36
1743,974	-25,5	-3,4
1746,092	-25,5	-3,36
1748,216	-25,5	-3,275
1750,333	-25,5	-3,243
1752,451	-24	-3,167
1754,575	-23,5	-3,079
1756,693	-22,5	-3,035
1758,817	-24	-3,012
1760,935	-24,5	-2,9
1763,053	-19,5	-2,794
1765,177	-18,5	-2,7
1767,294	-18,5	-2,695
1769,412	-21	-2,729
1771,53	-21	-2,76
1773,654	-18,5	-2,716
1775,772	-17,5	-2,657
1777,896	-16,5	-2,57
1780,014	-15,5	-2,436
1782,132	-14,5	-2,32
1784,256	-12	-2,125
1786,373	-11	-2,046
1788,497	-10,5	-1,959
1790,615	-12	-2,086
1792,745	-12	-2,031
1794,863	-13,5	-2,107
1796,981	-13	-2,16
1799,099	-13,5	-2,193
1801,216	-13,5	-2,203
1803,341	-14,5	-2,286
1805,458	-14	-2,281
1807,576	-14	-2,281
1809,694	-14	-2,281
1811,812	-15	-2,35
1813,936	-15	-2,38
1816,054	-20,5	-2,705
1818,172	-20,5	-2,805
1820,295	-21	-2,85
1822,413	-22	-2,925
1824,537	-21,5	-2,891
1826,655	-22	-2,929
1828,773	-20,5	-2,8
1830,897	-19,5	-2,69
1833,015	-17,5	-2,554
1835,139	-17	-2,497
1837,251	-15	-2,415
1839,368	-14	-2,31
1841,492	-13	-2,19
1843,61	-12	-2,105
1845,734	-10,5	-1,981
1847,846	-9	-1,868
1849,964	-8	-1,676
1852,088	-5,5	-1,434
1854,206	-4,5	-1,238
1856,329	-3	-1,054
1858,447	-2,5	-0,916
1860,565	-2,5	-0,9
1862,689	-1,5	-0,78
1864,807	-1	-0,642
1866,931	-0,5	-0,504
1869,049	0	-0,416
1871,173	1	-0,195
1873,29	2,5	-0,093
1875,408	3	-0,07
1877,532	3	-0,049
1879,65	3	-0,065
1881,774	2	-0,09
1883,892	2,5	-0,087
1886,022	1,5	-0,109
1888,14	1	-0,166
1890,257	0	-0,44
1892,381	-1	-0,655
1894,499	-1,5	-0,784
1896,617	-1,5	-0,815
1898,735	-3	-1,039
1900,853	-4,5	-1,231
1902,971	-5,5	-1,423
1905,089	-5,5	-1,424
1907,213	-4	-1,224
1909,324	-3,5	-1,169
1911,442	-3,5	-1,193
1913,566	-3,5	-1,172
1915,684	-3	-1,05
1917,808	-2,5	-0,93
1919,926	-3	-1,016
1922,05	-2	-0,885
1924,168	-1	-0,684
1926,285	-1	-0,7
1928,409	-1	-0,644
1930,527	-0,5	-0,574
1932,657	0	-0,365
1934,775	0	-0,268
1936,893	1,5	-0,142
1939,017	2	-0,089
1941,135	3	-0,051
1943,252	3	-0,033
1945,37	3,5	-0,029
1947,488	3,5	-0,013
1949,606	3,5	-0,007
1951,73	3,5	-0,003
1953,848	3,5	-0,001
1955,966	3,5	0
1958,09	3,5	-0,201
1960,207	3	-0,331
1962,331	1,5	-0,558
1964,449	0	-0,696
1966,567	-1,5	-0,892
1968,691	-2	-1,066
1970,809	-3	-1,225
1972,933	-3,5	-1,425
1975,051	-4,5	-1,605
1977,168	-5	-1,738
1979,292	-5,5	-1,862
1981,41	-6,5	-2,001
1983,534	-7,5	-2,185
1985,658	-10	-2,347
1987,776	-10	-2,512
1989,9	-13	-2,69
1992,018	-14,5	-2,833
1994,142	-15	-2,959
1996,259	-17,5	-3,134
1998,377	-19,5	-3,299
2000,501	-21	-3,384
2002,613	-22	-3,42
2004,731	-23	-3,446
2006,855	-23,5	-3,469
2008,973	-24	-3,482
2011,091	-24	-3,488
2013,214	-24	-3,493
2015,332	-24	-3,494
2017,456	-24	-3,496
2019,574	-24	-3,498
2021,692	-24	-3,499
2023,816	-24	-3,499
2025,934	-24	-3,497
2028,052	-24	-3,289
2030,175	-22	-3,078
2032,293	-22,5	-2,929
2034,417	-19	-2,851
2036,535	-16,5	-2,719
2038,653	-15	-2,538
2040,777	-11	-2,238
2042,895	-10	-2,12
2045,019	-9	-1,975
2047,137	-7,5	-1,874
2049,254	-6	-1,699
2051,378	-5	-1,563
2053,496	-4,5	-1,463
2055,614	-3,5	-1,331
2057,738	-2,5	-1,168
2059,856	-1,5	-0,966
2061,974	-1	-0,86
2064,098	0	-0,676
2066,221	0	-0,588
2068,345	0	-0,447
2070,463	0	-0,432
2072,581	0,5	-0,368
2074,705	0	-0,465
2076,823	0,5	-0,397
2078,941	1	-0,318
2081,065	1,5	-0,227
2083,182	2	-0,146
2085,312	3	-0,094
2087,43	3,5	-0,056
2089,548	3,5	-0,033
2091,672	4	-0,017
2093,79	4	-0,008
2095,908	4	-0,004
2098,038	4	-0,002
2100,155	4	-0,001
2102,273	4	0
2104,391	4	-0,023
2106,509	4	-0,174
2108,633	3	-0,356
2110,751	1,5	-0,531
2112,869	0	-0,665
2114,993	-0,5	-0,796
2117,111	-1,5	-1,007
2119,234	-2,5	-1,212
2121,352	-3	-1,392
2123,47	-3,5	-1,606
2125,588	-4,5	-1,855
2127,706	-5	-2,078
2129,824	-6	-2,291
2131,96	-8	-2,602
2134,078	-10	-2,799
2136,195	-11,5	-3,016
2138,319	-13	-3,196
2140,443	-14	-3,335
2142,567	-16	-3,433
2144,685	-16,5	-3,464
2146,803	-16,5	-3,475
2148,927	-17	-3,488
2151,045	-17	-3,494
2153,162	-17	-3,497
2155,286	-17	-3,499
2157,404	-17	-3,5
2159,528	-17	-3,306
2161,646	-13,5	-2,989
2163,764	-12	-2,834
2165,888	-9,5	-2,656
2168,006	-7,5	-2,464
2170,124	-7,5	-2,326
2172,247	-5	-2,11
2174,365	-3,5	-1,936
2176,489	-2,5	-1,684
2178,607	-1	-1,423
2180,725	-0,5	-1,184
2182,843	0	-0,951
2184,961	0	-0,733
2187,078	0,5	-0,564
2189,202	1	-0,395
2191,32	2	-0,175
2193,438	3	-0,122
2195,562	3	-0,075
2197,68	3,5	-0,054
2199,804	4	-0,036
2201,922	3,5	-0,028
2204,04	4	-0,02
2206,163	4	-0,013
2208,287	4	-0,008
2210,405	4	-0,004
2212,523	4	-0,002
2214,641	4	-0,002
2216,759	4	-0,001
2218,877	4	-0,009
2221,001	4	-0,253
2223,118	3,5	-0,377
2225,236	2,5	-0,605
2227,36	0,5	-0,736
2229,478	0	-0,826
2231,596	-1	-1,092
2233,714	-2	-1,368
2235,832	-2,5	-1,506
2237,956	-3	-1,738
2240,073	-3,5	-1,886
2242,191	-4,5	-2,146
2244,309	-5	-2,284
2246,421	-5,5	-2,36
2248,605	-8	-2,86
2250,723	-9	-3,004
2252,841	-11	-3,251
2254,965	-12,5	-3,36
2257,077	-13,5	-3,41
2259,188	-14,5	-3,458
2261,312	-15	-3,481
2263,43	-15	-3,489
2265,56	-15	-3,494
2267,678	-15	-3,496
2269,796	-15	-3,498
2271,92	-15	-3,498
2274,038	-15	-3,499
2276,161	-15	-3,5
2278,285	-15	-3,365
2280,403	-15	-3,259
2282,527	-14	-3,071
2284,645	-10,5	-2,869
2286,769	-9	-2,68
2288,887	-7	-2,495
2291,011	-5,5	-2,316
2293,14	-3,5	-2,055
2295,258	-3	-1,896
2297,376	-2,5	-1,72
2299,494	-1,5	-1,573
2301,612	-1,5	-1,499
2303,736	-0,5	-1,331
2305,854	0	-1,187
2307,972	0	-1,065
2310,089	0	-0,95
2312,207	0	-0,864
2314,331	0,5	-0,648
2316,455	1	-0,49
2318,579	1,5	-0,334
2320,703	2	-0,217
2322,821	2,5	-0,146
2324,939	3	-0,086
2327,069	3,5	-0,05
2329,186	3,5	-0,027
2331,31	4	-0,014
2333,428	4	-0,009
2335,546	4	-0,006
2337,676	4	-0,004
2339,794	4	-0,002
2341,918	4	-0,001
2344,042	4	0
2346,159	4	-0,022
2348,283	4	-0,172
2350,407	4	-0,355
2352,525	3,5	-0,37
2354,643	2,5	-0,493
2356,761	0,5	-0,69
2358,873	0	-0,792
2360,997	-0,5	-0,976
2363,132	-1	-1,172
2365,256	-2	-1,366
2367,368	-2	-1,548
2369,486	-2,5	-1,612
2371,616	-3	-1,82
2373,734	-3	-1,863
2375,858	-3,5	-2,031
2377,982	-4	-2,226
2380,099	-4,5	-2,352
2382,223	-5	-2,515
2384,341	-5,5	-2,652
2386,465	-6	-2,827
2388,583	-7,5	-2,99
2390,701	-8	-3,096
2392,825	-9	-3,276
2394,943	-10	-3,342
2397,06	-11	-3,402
2399,19	-12,5	-3,439
2401,308	-12,5	-3,454
2403,432	-13	-3,466
2405,55	-13,5	-3,474
2407,668	-13,5	-3,48
2409,792	-13,5	-3,488
2411,91	-13,5	-3,492
2414,04	-13,5	-3,495
2416,157	-13,5	-3,496
2418,275	-13,5	-3,497
2420,399	-13,5	-3,498
2422,517	-13,5	-3,499
2424,635	-13,5	-3,499
2426,759	-13,5	-3,5
2428,877	-13,5	-3,497
2431,001	-13,5	-3,407
2433,118	-13,5	-3,296
2435,236	-13	-3,192
2437,366	-11,5	-3,02
2439,484	-10,5	-2,935
2441,608	-8	-2,83
2443,726	-7,5	-2,649
2445,85	-7,5	-2,759
2447,974	-6	-2,618
2450,097	-5	-2,417
2452,215	-4	-2,264
2454,339	-5,5	-2,474
2456,457	-5	-2,39
2458,581	-3,5	-2,19
2460,699	-3	-2,035
2462,817	-2	-1,876
2464,941	-1,5	-1,666
2467,065	-0,5	-1,514
2469,194	0	-1,312
2471,312	0	-1,184
2473,43	0	-1,03
2475,554	0,5	-0,846
2477,672	0,5	-0,761
2479,79	0,5	-0,644
2481,914	1	-0,455
2484,032	1,5	-0,393
2486,155	1,5	-0,304
2488,279	2	-0,17
2490,397	2,5	-0,113
2492,521	3	-0,066
2494,645	3,5	-0,034
2496,763	4	-0,014
2498,887	4	-0,009
2501,005	4	-0,005
2503,122	4	-0,004
2505,252	4	-0,002
2507,37	4	-0,001
2509,494	4	0
2511,612	4	-0,016
2513,73	4	-0,085
2515,854	4	-0,21
2517,972	3,5	-0,324
2520,089	3	-0,441
2522,219	0,5	-0,703
2524,337	0	-0,812
2526,449	0	-0,837
2528,573	-0,5	-0,93
2530,691	-0,5	-1,01
2532,815	-1	-1,173
2534,927	-1	-1,174
2537,044	-1,5	-1,328
2539,162	-1,5	-1,476
2541,286	-2	-1,682
2543,41	-2,5	-1,866
2545,528	-3	-2,014
2547,646	-3	-2,105
2549,77	-3	-2,256
2551,888	-3,5	-2,421
2554,006	-4	-2,553
2556,129	-4,5	-2,678
2558,253	-5	-2,878
2560,371	-6	-2,979
2562,495	-6	-3,057
2564,613	-7	-3,199
2566,743	-8,5	-3,328
2568,861	-9,5	-3,39
2570,979	-9	-3,404
2573,102	-10,5	-3,43
2575,22	-10,5	-3,448
2577,338	-10,5	-3,46
2579,462	-11	-3,474
2581,58	-11	-3,47
2583,704	-11,5	-3,481
2585,828	-11,5	-3,486
2587,946	-11	-3,488
2590,069	-11,5	-3,492
2592,187	-11,5	-3,492
2594,305	-11,5	-3,494
2596,429	-11,5	-3,496
2598,547	-11,5	-3,497
2600,665	-11,5	-3,498
2602,789	-11,5	-3,499
2604,907	-11,5	-3,499
2607,031	-11,5	-3,5
2609,154	-11	-3,455
2611,272	-11,5	-3,28
2613,402	-10,5	-3,186
2615,52	-10,5	-3,197
2617,638	-9	-3,11
2619,756	-9,5	-3,02
2621,874	-6,5	-2,85
2623,998	-5	-2,71
2626,127	-4	-2,55
2628,245	-3	-2,415
2630,375	-3	-2,299
2632,493	-2,5	-2,214
2634,611	-2	-2,145
2636,729	-2	-2,119
2638,853	-1,5	-1,973
2640,971	-1	-1,824
2643,1	-0,5	-1,653
2645,218	0	-1,546
2647,342	0	-1,384
2649,454	0	-1,351
2651,572	0	-1,171
2653,696	0,5	-1,071
2655,814	0,5	-1,05
2657,932	0,5	-0,938
2660,055	1	-0,766
2662,173	1	-0,591
2664,291	1,5	-0,49
2666,421	2	-0,274
2668,539	2	-0,199
2670,657	2,5	-0,131
2672,781	3	-0,096
2674,905	3,5	-0,06
2677,028	3,5	-0,034
2679,14	3,5	-0,027
2681,258	4	-0,022
2683,382	4	-0,013
2685,506	4	-0,008
2687,63	4	-0,006
2689,748	4	-0,004
2691,866	4	-0,002
2693,996	4	-0,001
2696,114	4	0
2698,237	4	-0,114
2700,361	4	-0,247
2702,479	3	-0,349
2704,597	2,5	-0,466
2706,715	1	-0,599
2708,833	0	-0,711
2710,957	0	-0,816
2713,08	0	-0,957
2715,192	-0,5	-0,925
2717,316	-0,5	-0,971
2719,434	-0,5	-1,008
2721,552	-1	-1,05
2723,676	-1	-1,16
2725,794	-1	-1,319
2727,912	-1	-1,361
2730,036	-1	-1,386
2732,153	-1	-1,412
2734,271	-1	-1,416
2736,395	-1,5	-1,67
2738,513	-1,5	-1,807
2740,631	-2	-1,839
2742,749	-2,5	-2,046
2744,867	-2	-2,082
2746,985	-2,5	-2,178
2749,108	-3	-2,292
2751,22	-3	-2,342
2753,344	-3,5	-2,508
2755,462	-4	-2,679
2757,58	-4,5	-2,754
2759,704	-4,5	-2,842
2761,822	-4,5	-2,862
2763,94	-5	-2,963
2766,063	-5	-3,073
2768,181	-5	-3,077
2770,305	-5,5	-3,197
2772,423	-6	-3,258
2774,541	-6	-3,28
2776,665	-6,5	-3,336
2778,783	-7,5	-3,374
2780,901	-7,5	-3,374
2783,024	-9	-3,43
2785,142	-9,5	-3,449
2787,254	-10	-3,464
2789,384	-10	-3,468
2791,502	-10	-3,472
2793,632	-10,5	-3,484
2795,756	-10,5	-3,488
2797,874	-10,5	-3,49
2800,015	-10,5	-3,495
2802,139	-10,5	-3,497
2804,257	-11	-3,497
2806,381	-10,5	-3,498
2808,499	-10,5	-3,498
2810,617	-10,5	-3,499
2812,741	-11	-3,499
2814,859	-10,5	-3,497
2816,976	-10,5	-3,45
2819,106	-10,5	-3,312
2821,23	-10,5	-3,265
2823,354	-10,5	-3,191
2825,472	-10	-3,1
2827,59	-8	-3,01
2829,708	-6	-2,84
2831,82	-5	-2,726
2833,938	-4,5	-2,615
2836,061	-3,5	-2,511
2838,185	-2,5	-2,402
2840,303	-3	-2,428
2842,427	-2,5	-2,32
2844,545	-1,5	-2,176
2846,669	-1,5	-2,088
2848,847	-0,5	-1,73
2850,965	-0,5	-1,65
2853,088	0	-1,504
2855,212	0	-1,463
2857,336	0	-1,296
2859,46	0	-1,224
2861,578	0	-1,165
2863,69	0	-1,159
2865,814	0	-1,065
2867,932	0,5	-1,014
2870,043	0,5	-0,925
2872,167	0,5	-0,801
2874,285	0,5	-0,71
2876,403	1	-0,669
2878,533	1	-0,524
2880,651	1,5	-0,471
2882,769	1	-0,429
2884,893	1,5	-0,32
2887,017	1,5	-0,23
2889,134	1,5	-0,195
2891,264	2	-0,146
2893,382	2	-0,137
2895,506	2,5	-0,112
2897,624	3	-0,069
2899,742	3	-0,06
2901,872	3	-0,058
2903,99	3	-0,057
2906,113	3,5	-0,034
2908,237	3,5	-0,019
2910,355	3,5	-0,016
2912,473	3,5	-0,015
2914,603	4	-0,009
2916,721	4	-0,006
2918,833	4	-0,004
2920,957	4	-0,005
2923,086	4	-0,003
2925,204	4	-0,003
2927,328	4	-0,003
2929,446	4	-0,002
2931,564	4	-0,002
2933,688	4	-0,001
2935,806	3,5	-0,001
2937,93	3,5	0
2940,053	3,5	-0,103
2942,171	3,5	-0,207
2944,289	3,5	-0,288
2946,413	3	-0,399
2948,531	2,5	-0,49
2950,649	1,5	-0,563
2952,773	2,5	-0,524
2954,891	2	-0,549
2957,009	1,5	-0,576
2959,138	0,5	-0,668
2961,256	0	-0,774
2963,374	0	-0,869
2965,498	-0,5	-0,968
2967,616	-0,5	-1,057
2969,734	-0,5	-1,151
2971,858	-0,5	-1,257
2973,976	-1	-1,342
2976,093	-0,5	-1,378
2978,217	-0,5	-1,413
2980,335	-1	-1,445
2982,459	-1	-1,56
2984,577	-1	-1,581
2986,695	-1	-1,591
2988,819	-1	-1,722
2990,937	-1	-1,779
2993,055	-1	-1,801
2995,178	-1,5	-1,878
2997,296	-1,5	-1,91
2999,414	-1,5	-1,994
3001,538	-1,5	-2,03
3003,662	-1,5	-2,086
3005,78	-1,5	-2,176
3007,904	-2	-2,264
3010,027	-2	-2,367
3012,145	-2	-2,389
3014,281	-2,5	-2,542
3016,393	-3	-2,586
3018,511	-3	-2,686
3020,635	-3	-2,743
3022,753	-3,5	-2,832
3024,871	-3,5	-2,881
3027,001	-4,5	-3,036
3029,124	-4,5	-3,066
3031,242	-4,5	-3,125
3033,372	-5,5	-3,198
3035,49	-5	-3,218
3037,614	-5,5	-3,216
3039,732	-5,5	-3,242
3041,856	-5,5	-3,259
3043,974	-6	-3,309
3046,097	-6,5	-3,35
3048,215	-7,5	-3,39
3050,333	-8	-3,415
3052,457	-9	-3,454
3054,581	-9	-3,462
3056,699	-9	-3,47
3058,823	-9	-3,469
3060,941	-9,5	-3,473
3063,058	-9,5	-3,474
3065,188	-9,5	-3,477
3067,306	-9,5	-3,479
3069,43	-9,5	-3,48
3071,554	-9,5	-3,484
3073,672	-9,5	-3,486
3075,802	-9,5	-3,492
3077,926	-9,5	-3,491
3080,044	-9,5	-3,492
3082,161	-9,5	-3,493
3084,285	-10	-3,495
3086,415	-10	-3,495
3088,533	-10	-3,495
3090,657	-10	-3,498
3092,775	-9,5	-3,498
3094,899	-10	-3,497
3097,023	-10	-3,497
3099,146	-9,5	-3,498
3101,264	-9,5	-3,499
3103,388	-9,5	-3,499
3105,512	-9,5	-3,499
3107,636	-9,5	-3,497
3109,754	-9,5	-3,419
3111,872	-9,5	-3,358
3113,99	-9,5	-3,289
3116,113	-9	-3,208
3118,237	-8	-3,076
3120,355	-6,5	-2,991
3122,479	-5,5	-2,888
3124,597	-5	-2,78
3126,715	-3,5	-2,734
3128,839	-3	-2,64
3130,963	-2,5	-2,509
3133,08	-2,5	-2,515
3135,21	-1,5	-2,376
3137,328	-1,5	-2,286
3139,446	-1	-2,18
3141,564	-0,5	-2,09
3143,682	-0,5	-1,974
3145,8	-0,5	-1,89
3147,924	0	-1,769
3150,041	0	-1,684
3152,153	0	-1,688
3154,277	0	-1,62
3156,395	0	-1,54
3157,019	3,5	-0,001