File: ensaios_Ciclicos/sem_TC/entrada/_5.txt
Time (s)	Load (N)	Displacement (mm)
0	0	-0,035
2,128	2	0
4,342	1,5	-0,002
6,454	1,5	0
8,566	1,5	-0,002
10,678	2	-0,003
12,796	1,5	-0,01
14,908	1	-0,055
17,037	-1,5	-0,214
19,149	-7	-0,739
21,267	-9	-0,946
23,379	-14	-1,418
25,497	-24	-2,056
27,615	-29	-2,689
29,727	-37	-3,283
31,857	-37	-3,499
33,968	-36,5	-3,494
36,08	-36,5	-3,486
38,192	-35	-3,471
40,316	-30,5	-3,334
42,44	-28,5	-3,12
44,564	-20,5	-2,49
46,676	-21	-2,63
48,8	-20,5	-2,366
50,996	-15,5	-2,241
53,113	-13,5	-1,836
55,237	-10	-1,435
57,349	-9	-1,374
59,473	-5	-0,951
61,591	-5,5	-1,03
63,703	-0,5	-0,543
65,821	2,5	-0,065
67,945	3	0
70,056	3	-0,001
72,168	3	-0,003
74,28	3	-0,01
76,41	3	-0,009
78,522	3	-0,006
80,634	2,5	-0,01
82,746	1,5	-0,046
84,864	2	-0,04
86,981	1,5	-0,051
89,099	2	-0,042
91,217	2,5	-0,04
93,335	2,5	-0,03
95,459	3	-0,031
97,571	2	-0,035
99,695	2,5	-0,042
101,813	1,5	-0,05
103,931	2	-0,046
106,048	2	-0,055
108,172	1,5	-0,058
110,29	2,5	-0,045
112,402	2	-0,05
114,514	2	-0,059
116,632	1,5	-0,061
118,744	1,5	-0,078
120,861	2,5	-0,048
122,973	2,5	-0,036
125,097	3	-0,031
127,209	3	-0,016
129,321	3	-0,018
131,434	3	-0,015
133,551	3	-0,016
135,669	3	-0,011
137,792	3	-0,008
139,922	3	-0,006
142,046	3,5	-0,002
144,164	3	-0,002
146,282	3	-0,001
148,406	3,5	-0,002
150,518	3	-0,002
152,648	3	-0,002
154,766	3,5	-0,003
156,895	3,5	-0,001
159,025	3	-0,001
161,155	3	0
163,279	3,5	-0,179
165,391	3	-0,3
167,527	2	-0,476
169,645	0,5	-0,6
171,769	-0,5	-0,75
173,886	-1,5	-0,841
176,016	-4	-0,96
178,14	-4,5	-1,036
180,264	-5,5	-1,183
182,382	-6	-1,272
184,506	-7,5	-1,495
186,624	-8	-1,547
188,742	-9,5	-1,707
190,865	-9,5	-1,741
192,977	-11,5	-1,902
195,101	-13	-2,054
197,225	-15,5	-2,332
199,349	-18,5	-2,501
201,467	-18,5	-2,619
203,597	-20,5	-2,736
205,721	-21	-2,782
207,851	-22,5	-2,936
209,968	-24	-3,037
212,098	-24,5	-3,177
214,222	-25	-3,235
216,34	-27,5	-3,347
218,458	-28,5	-3,376
220,576	-29	-3,387
222,688	-29	-3,382
224,812	-29,5	-3,4
226,935	-30	-3,431
229,065	-30	-3,442
231,189	-31,5	-3,463
233,307	-32	-3,474
235,437	-32,5	-3,489
237,555	-32,5	-3,491
239,673	-32,5	-3,494
241,791	-32,5	-3,494
243,92	-32,5	-3,495
246,038	-32,5	-3,496
248,162	-32,5	-3,496
250,286	-32,5	-3,496
252,416	-32	-3,496
254,54	-32,5	-3,497
256,664	-32,5	-3,498
258,782	-32	-3,499
260,911	-32	-3,499
263,029	-32	-3,475
265,159	-32	-3,263
267,289	-30,5	-3,117
269,419	-31	-3,095
271,555	-31,5	-3,031
273,679	-29	-2,959
275,803	-28,5	-3,009
277,92	-28	-2,919
280,056	-25,5	-2,649
282,186	-22,5	-2,504
284,31	-20,5	-2,309
286,44	-19	-2,105
288,564	-16	-1,954
290,694	-16,5	-1,926
292,83	-15	-1,81
294,954	-14	-1,712
297,083	-12	-1,588
299,207	-12,5	-1,658
301,331	-12	-1,576
303,461	-9	-1,4
305,579	-10,5	-1,454
307,703	-9,5	-1,435
309,839	-9,5	-1,304
311,969	-7	-1,126
314,098	-6,5	-1,045
316,222	-5	-0,968
318,352	-6	-1,019
320,482	-4,5	-0,88
322,6	-4,5	-0,87
324,724	-3,5	-0,741
326,86	-3	-0,73
328,984	-1,5	-0,498
331,113	-1	-0,337
333,249	-0,5	-0,266
335,379	0	-0,21
337,509	0,5	-0,171
339,633	0	-0,167
341,763	0	-0,192
343,893	0	-0,235
346,011	-0,5	-0,309
348,14	0	-0,247
350,27	0	-0,191
352,406	0	-0,254
354,536	0	-0,159
356,666	1,5	-0,122
358,79	1,5	-0,098
360,908	2	-0,082
363,032	2	-0,068
365,155	2,5	-0,06
367,285	3,5	-0,037
369,409	3,5	-0,022
371,533	3,5	-0,027
373,663	3,5	-0,019
375,793	3,5	-0,012
377,923	3,5	-0,01
380,053	3,5	-0,008
382,183	3,5	-0,005
384,3	4	-0,005
386,424	4	-0,003
388,554	3,5	-0,002
390,684	3,5	-0,002
392,814	3,5	-0,001
394,938	3,5	-0,001
397,068	3,5	0
399,204	3,5	-0,065
401,327	3,5	-0,059
403,463	3,5	-0,28
405,587	3	-0,293
407,717	2	-0,392
409,847	1,5	-0,499
411,971	0	-0,668
414,101	-0,5	-0,769
416,231	-2,5	-0,91
418,348	-3,5	-1,02
420,49	-5	-1,279
422,614	-7	-1,492
424,75	-6	-1,435
426,868	-5	-1,232
428,998	-6	-1,34
431,122	-6,5	-1,471
433,258	-8,5	-1,651
435,381	-8,5	-1,712
437,499	-9,5	-1,797
439,636	-11	-1,972
441,759	-12	-2,096
443,877	-13	-2,139
446,001	-12	-2,216
448,125	-14	-2,294
450,255	-13,5	-2,428
452,379	-13,5	-2,521
454,502	-17	-2,572
456,626	-17	-2,602
458,744	-17,5	-2,601
460,874	-16,5	-2,512
462,998	-17,5	-2,6
465,122	-15	-2,427
467,252	-15	-2,556
469,376	-14,5	-2,623
471,511	-20	-2,786
473,629	-18,5	-2,76
475,771	-21	-2,901
477,889	-21	-2,949
480,007	-21,5	-3,011
482,131	-23	-3,078
484,249	-23	-3,174
486,379	-22,5	-3,257
488,508	-24,5	-3,308
490,638	-27	-3,383
492,762	-26,5	-3,408
494,886	-25,5	-3,419
497,01	-28,5	-3,43
499,14	-28,5	-3,432
501,258	-28,5	-3,45
503,394	-29,5	-3,47
505,523	-30	-3,476
507,653	-30	-3,48
509,777	-29,5	-3,484
511,907	-30	-3,488
514,037	-30	-3,487
516,167	-29,5	-3,489
518,291	-30	-3,49
520,421	-30	-3,492
522,545	-30	-3,494
524,674	-30	-3,496
526,804	-30	-3,498
528,928	-30	-3,499
531,046	-30	-3,499
533,182	-30	-3,499
535,306	-30	-3,5
537,424	-30	-3,475
539,554	-30	-3,275
541,677	-30	-3,201
543,808	-25,5	-3,024
545,925	-26	-2,944
548,049	-25	-2,882
550,173	-27,5	-2,773
552,303	-22	-2,584
554,421	-22,5	-2,543
556,551	-21	-2,43
558,68	-19,5	-2,275
560,816	-17,5	-2,148
562,94	-15	-1,964
565,064	-14,5	-1,839
567,188	-12	-1,724
569,306	-11	-1,666
571,436	-10,5	-1,563
573,554	-9,5	-1,484
575,689	-7,5	-1,32
577,807	-7,5	-1,31
579,937	-7	-1,24
582,061	-7,5	-1,248
584,191	-5,5	-1,061
586,315	-6	-1,058
588,445	-4,5	-0,955
590,569	-3,5	-0,878
592,705	-3	-0,783
594,831	-2,5	-0,642
596,958	-1,5	-0,48
599,082	-0,5	-0,399
601,206	0	-0,28
603,324	0	-0,244
605,442	0	-0,236
607,572	0,5	-0,18
609,696	1	-0,14
611,819	1,5	-0,112
613,949	1,5	-0,106
616,079	2	-0,081
618,197	2,5	-0,057
620,327	3,5	-0,038
622,451	3,5	-0,031
624,575	3,5	-0,03
626,693	3,5	-0,028
628,822	3,5	-0,02
630,946	3,5	-0,016
633,07	3,5	-0,014
635,194	4	-0,01
637,318	4	-0,009
639,436	4	-0,009
641,554	4	-0,01
643,684	4	-0,008
645,807	4	-0,006
647,931	4	-0,004
650,103	4	-0,002
652,239	4	-0,001
654,357	3,5	-0,001
656,493	4	-0,001
658,611	4	-0,001
660,735	4	-0,012
662,858	4	-0,06
664,988	3,5	-0,072
667,106	4	-0,042
669,236	3,5	-0,085
671,36	4	-0,084
673,484	4	-0,176
675,608	3,5	-0,252
677,732	3,5	-0,304
679,849	3	-0,363
681,979	2,5	-0,423
684,109	1	-0,557
686,227	0,5	-0,606
688,357	-0,5	-0,691
690,481	-1,5	-0,768
692,611	-2	-0,902
694,735	-2,5	-0,981
696,865	-4	-1,098
698,982	-4	-1,172
701,106	-4,5	-1,26
703,236	-5,5	-1,384
705,36	-5,5	-1,536
707,484	-7	-1,645
709,608	-7,5	-1,739
711,732	-7,5	-1,725
713,85	-7,5	-1,79
715,979	-8,5	-1,827
718,091	-8	-1,824
720,215	-9	-1,842
722,345	-9	-1,918
724,481	-10	-2,029
726,599	-11	-2,114
728,729	-11,5	-2,216
730,853	-12,5	-2,34
732,982	-14,5	-2,465
735,106	-15	-2,536
737,23	-15	-2,566
739,348	-15,5	-2,619
741,472	-15,5	-2,665
743,596	-18	-2,747
745,714	-19,5	-2,871
747,844	-21	-3,025
749,967	-21,5	-3,13
752,085	-21,5	-3,102
754,215	-22,5	-3,161
756,333	-23,5	-3,233
758,451	-22,5	-3,228
760,581	-24,5	-3,33
762,699	-24,5	-3,332
764,829	-24	-3,328
766,953	-25,5	-3,366
769,082	-26	-3,41
771,212	-27	-3,422
773,33	-26	-3,423
775,454	-27,5	-3,44
777,578	-27,5	-3,448
779,702	-28	-3,461
781,82	-28,5	-3,474
783,944	-28,5	-3,482
786,067	-28,5	-3,486
788,197	-29	-3,489
790,315	-28,5	-3,489
792,439	-29	-3,49
794,563	-29	-3,494
796,687	-29	-3,493
798,805	-29	-3,495
800,923	-29	-3,496
803,05	-29	-3,496
805,17	-29	-3,498
807,3	-29	-3,498
809,424	-29	-3,499
811,548	-29	-3,498
813,666	-29	-3,498
815,79	-29	-3,498
817,914	-29	-3,498
820,038	-29	-3,498
822,161	-29	-3,498
824,297	-29	-3,498
826,421	-29	-3,498
828,545	-29	-3,499
830,669	-29	-3,499
832,793	-29	-3,499
834,905	-28,5	-3,499
837,029	-29	-3,499
839,164	-29	-3,499
841,289	-29	-3,499
843,412	-29	-3,499
845,53	-29	-3,499
847,66	-29	-3,5
849,778	-29	-3,5
851,908	-29	-3,462
854,026	-28,5	-3,5
856,149	-29	-3,425
858,267	-28,5	-3,382
860,391	-28,5	-3,343
862,515	-28,5	-3,321
864,627	-28,5	-3,29
866,751	-28,5	-3,238
868,869	-28,5	-3,239
870,987	-28,5	-3,299
873,11	-28,5	-3,236
875,234	-28,5	-3,19
877,358	-28,5	-3,18
879,482	-28,5	-3,177
881,606	-27	-3,143
883,736	-27	-3,076
885,86	-26	-3,025
887,978	-26,5	-3,059
890,102	-26,5	-3,028
892,225	-25,5	-3,04
894,343	-24,5	-3,01
896,473	-24	-2,934
898,603	-23	-2,848
900,721	-24,5	-2,906
902,845	-24	-2,935
904,969	-24	-2,906
907,087	-24	-2,928
909,216	-25	-2,974
911,34	-27	-3,072
913,458	-28	-3,176
915,588	-27	-3,152
917,706	-27,5	-3,196
919,83	-28,5	-3,263
921,948	-28,5	-3,338
924,072	-28,5	-3,289
926,195	-28,5	-3,348
928,319	-28,5	-3,338
930,443	-28,5	-3,466
932,567	-28,5	-3,499
934,691	-28,5	-3,5
936,827	-28,5	-3,498
938,945	-28,5	-3,499
941,075	-28,5	-3,499
943,204	-28,5	-3,499
945,328	-28,5	-3,499
947,446	-28,5	-3,499
949,564	-28,5	-3,498
951,688	-28,5	-3,498
953,806	-28,5	-3,498
955,936	-28,5	-3,498
958,06	-28,5	-3,494
960,177	-28	-3,492
962,301	-28,5	-3,488
964,437	-28	-3,487
966,555	-28	-3,476
968,679	-28	-3,48
970,797	-27,5	-3,472
972,927	-28	-3,483
975,057	-27,5	-3,483
977,169	-28	-3,485
979,298	-28,5	-3,488
981,422	-28,5	-3,49
983,546	-28,5	-3,491
985,67	-28,5	-3,494
987,8	-28,5	-3,496
989,918	-28,5	-3,496
992,042	-28,5	-3,497
994,16	-28,5	-3,497
996,289	-28,5	-3,499
998,413	-28,5	-3,499
1000,537	-28	-3,499
1002,661	-28,5	-3,5
1004,785	-28,5	-3,479
1006,915	-28,5	-3,498
1009,057	-28	-3,376
1011,181	-28,5	-3,424
1013,304	-28,5	-3,496
1015,44	-28,5	-3,475
1017,558	-28,5	-3,489
1019,682	-28	-3,455
1021,806	-28	-3,364
1023,93	-28	-3,267
1026,054	-28	-3,081
1028,19	-23,5	-2,89
1030,307	-22,5	-2,8
1032,431	-23	-2,813
1034,549	-23,5	-2,803
1036,685	-21,5	-2,718
1038,809	-20	-2,578
1040,927	-20,5	-2,599
1043,057	-20,5	-2,469
1045,175	-16,5	-2,359
1047,299	-16	-2,249
1049,429	-14,5	-2,073
1051,552	-19,5	-2,415
1053,682	-16,5	-2,26
1055,8	-15	-2,159
1057,924	-14	-2,055
1060,048	-13	-1,946
1062,166	-11,5	-1,808
1064,296	-10,5	-1,7
1066,413	-8,5	-1,594
1068,537	-7,5	-1,46
1070,661	-6,5	-1,354
1072,779	-6	-1,291
1074,903	-5,5	-1,234
1077,027	-5	-1,088
1079,151	-4,5	-0,979
1081,269	-3,5	-0,857
1083,392	-2	-0,743
1085,516	-2,5	-0,783
1087,64	-1,5	-0,609
1089,758	-1,5	-0,519
1091,876	-1	-0,509
1094	0	-0,33
1096,118	0	-0,232
1098,242	1,5	-0,128
1100,365	1	-0,132
1102,489	2,5	-0,08
1104,607	2,5	-0,063
1106,731	3,5	-0,05
1108,861	3,5	-0,033
1110,979	4	-0,02
1113,103	3,5	-0,024
1115,221	3,5	-0,016
1117,344	4	-0,012
1119,468	4	-0,008
1121,586	4	-0,007
1123,716	4	-0,006
1125,834	4	-0,006
1127,958	4	-0,006
1130,076	4	-0,007
1132,206	4	-0,006
1134,324	4	-0,004
1136,441	4	-0,005
1138,571	4	-0,005
1140,689	4	-0,006
1142,813	4	-0,005
1144,937	4	-0,004
1147,061	4	-0,004
1149,179	4	-0,002
1151,303	4	-0,002
1153,42	4	-0,002
1155,55	4	-0,002
1157,668	4	-0,001
1159,798	4	-0,001
1161,916	4	-0,001
1164,046	4	-0,001
1166,17	4	0
1168,294	4	-0,048
1170,417	4	-0,142
1172,535	4	-0,148
1174,665	4	-0,072
1176,783	4	-0,084
1178,907	3,5	-0,274
1181,025	4	-0,311
1183,155	4	-0,218
1185,273	4	-0,084
1187,402	4	-0,204
1189,52	4	-0,186
1191,65	4	-0,181
1193,768	4	-0,284
1195,898	3,5	-0,374
1198,016	2,5	-0,475
1200,134	2,5	-0,452
1202,252	2,5	-0,457
1204,382	0	-0,626
1206,511	-0,5	-0,736
1208,635	-2	-0,878
1210,759	-2,5	-1,025
1212,877	-3	-1,061
1215,007	-4	-1,246
1217,131	-4	-1,3
1219,255	-4,5	-1,435
1221,373	-5	-1,514
1223,496	-4,5	-1,491
1225,614	-4,5	-1,427
1227,744	-5	-1,475
1229,862	-4,5	-1,507
1231,992	-5	-1,52
1234,11	-5,5	-1,594
1236,24	-5,5	-1,674
1238,358	-5	-1,525
1240,481	-5,5	-1,534
1242,599	-4,5	-1,427
1244,729	-5,5	-1,56
1246,847	-5,5	-1,55
1248,977	-5	-1,546
1251,161	-7	-1,791
1253,285	-6	-1,635
1255,409	-5	-1,562
1257,532	-4,5	-1,4
1259,65	-4,5	-1,38
1261,768	-4,5	-1,347
1263,898	-4,5	-1,44
1266,016	-5	-1,507
1268,146	-4,5	-1,401
1270,264	-4,5	-1,338
1272,394	-4,5	-1,414
1274,512	-4,5	-1,408
1276,635	-4,5	-1,4
1278,759	-4	-1,285
1280,883	-4	-1,262
1283,001	-3,5	-1,187
1285,119	-3,5	-1,14
1287,237	-3	-1,134
1289,361	-2,5	-0,987
1291,491	-3,5	-1,175
1293,609	-4,5	-1,334
1295,732	-4	-1,37
1297,85	-4	-1,311
1299,98	-4	-1,348
1302,098	-4,5	-1,354
1304,228	-4	-1,328
1306,34	-4	-1,256
1308,464	-4	-1,291
1310,581	-3,5	-1,194
1312,711	-4	-1,296
1314,829	-3,5	-1,258
1316,959	-4,5	-1,302
1319,083	-4	-1,278
1321,201	-4	-1,251
1323,337	-4	-1,289
1325,455	-3,5	-1,304
1327,585	-4	-1,3
1329,702	-4,5	-1,332
1331,826	-4	-1,308
1333,95	-4,5	-1,396
1336,074	-4,5	-1,399
1338,192	-4,5	-1,404
1340,322	-5	-1,452
1342,44	-5	-1,463
1344,564	-5	-1,546
1346,675	-5,5	-1,568
1348,799	-6	-1,661
1350,917	-6	-1,72
1353,047	-6	-1,732
1355,165	-6,5	-1,763
1357,289	-6,5	-1,798
1359,413	-6,5	-1,812
1361,531	-6	-1,772
1363,66	-7,5	-1,861
1365,778	-8	-1,962
1367,908	-9	-2,076
1370,026	-8,5	-2,047
1372,15	-8,5	-2,029
1374,274	-9,5	-2,122
1376,404	-9,5	-2,224
1378,522	-11,5	-2,341
1380,651	-11,5	-2,401
1382,769	-11	-2,374
1384,899	-12,5	-2,432
1387,023	-12,5	-2,478
1389,141	-13	-2,505
1391,277	-15	-2,647
1393,395	-16	-2,77
1395,525	-16,5	-2,855
1397,642	-18	-2,977
1399,772	-21	-3,181
1401,89	-21,5	-3,28
1404,014	-23	-3,319
1406,138	-23,5	-3,362
1408,262	-25	-3,418
1410,38	-26	-3,449
1412,504	-26	-3,46
1414,628	-26,5	-3,473
1416,746	-27	-3,478
1418,869	-27	-3,485
1420,993	-27	-3,49
1423,123	-27	-3,492
1425,241	-27	-3,493
1427,359	-27	-3,494
1429,483	-27	-3,496
1431,607	-27	-3,497
1433,73	-27	-3,498
1435,848	-27	-3,498
1437,972	-27	-3,499
1440,096	-27,5	-3,499
1442,214	-27	-3,5
1444,338	-27	-3,425
1446,456	-27	-3,382
1448,586	-27	-3,233
1450,703	-27	-3,143
1452,827	-25	-3,021
1454,945	-26	-3,012
1457,075	-22,5	-2,908
1459,199	-21,5	-2,804
1461,317	-20,5	-2,72
1463,441	-19,5	-2,53
1465,559	-18,5	-2,35
1467,688	-19,5	-2,7
1469,806	-19,5	-2,583
1471,936	-17,5	-2,396
1474,066	-18,5	-2,31
1476,184	-14,5	-2,215
1478,308	-12,5	-2,128
1480,42	-12,5	-2,072
1482,544	-11	-1,903
1484,668	-8,5	-1,763
1486,791	-7	-1,584
1488,909	-6	-1,468
1491,045	-5,5	-1,32
1493,163	-5,5	-1,331
1495,287	-4	-1,179
1497,411	-3,5	-1,085
1499,535	-4	-1,135
1501,659	-3,5	-1,054
1503,783	-3,5	-1,008
1505,906	-2	-0,849
1508,03	-1,5	-0,752
1510,148	-1	-0,688
1512,272	-0,5	-0,531
1514,39	0	-0,473
1516,514	0	-0,379
1518,632	0	-0,396
1520,755	0,5	-0,263
1522,879	0,5	-0,279
1525,003	0	-0,287
1527,127	0	-0,341
1529,239	0,5	-0,247
1531,369	1	-0,214
1533,487	2	-0,138
1535,605	1	-0,231
1537,728	1,5	-0,124
1539,852	1,5	-0,152
1541,976	0	-0,293
1544,1	0	-0,272
1546,218	0,5	-0,178
1548,336	0,5	-0,168
1550,454	0,5	-0,215
1552,584	2,5	-0,1
1554,702	1,5	-0,102
1556,831	3	-0,063
1558,949	1,5	-0,144
1561,079	2	-0,089
1563,203	3	-0,075
1565,321	3,5	-0,05
1567,451	3,5	-0,03
1569,569	4	-0,021
1571,693	3,5	-0,029
1573,816	3,5	-0,03
1575,928	3,5	-0,038
1578,052	3,5	-0,032
1580,176	3,5	-0,035
1582,3	3,5	-0,035
1584,424	4	-0,025
1586,542	4	-0,023
1588,666	4	-0,021
1590,784	4	-0,017
1592,913	4	-0,011
1595,031	4	-0,011
1597,149	4	-0,012
1599,273	4	-0,01
1601,391	4	-0,008
1603,515	4	-0,005
1605,633	4	-0,006
1607,763	4	-0,005
1609,88	4	-0,004
1611,998	4	-0,003
1614,128	4	-0,003
1616,252	4	-0,002
1618,376	4	-0,002
1620,494	4	-0,002
1622,612	4	-0,002
1624,742	4	-0,002
1626,859	4	-0,001
1628,983	4	-0,001
1631,107	4	-0,001
1633,225	4	-0,001
1635,355	4	-0,001
1637,473	4	-0,001
1639,603	4	0
1641,721	4	-0,009
1643,843	4	-0,015
1645,962	4	-0,042
1648,086	4	-0,19
1650,21	4	-0,264
1652,334	3,5	-0,423
1654,458	2,5	-0,437
1656,582	1,5	-0,542
1658,7	0	-0,68
1660,83	-0,5	-0,82
1662,947	-0,5	-0,782
1665,071	-1	-0,858
1667,189	-2	-0,976
1669,307	-2,5	-1,055
1671,431	-2,5	-1,185
1673,549	-3	-1,28
1675,679	-4	-1,393
1677,796	-4,5	-1,495
1679,92	-4,5	-1,582
1682,038	-5	-1,614
1684,168	-5,5	-1,726
1686,292	-6	-1,862
1688,41	-6,5	-1,931
1690,528	-7	-1,968
1692,658	-8,5	-2,139
1694,776	-9,5	-2,225
1696,905	-9,5	-2,242
1699,029	-10	-2,346
1701,147	-10,5	-2,387
1703,277	-12	-2,532
1705,395	-13	-2,57
1707,531	-13,5	-2,712
1709,649	-15	-2,828
1711,773	-16	-2,879
1713,896	-16,5	-2,92
1716,014	-16,5	-2,914
1718,138	-17	-3,066
1720,268	-19	-3,173
1722,386	-19	-3,173
1724,516	-21	-3,293
1726,634	-21,5	-3,361
1728,752	-23,5	-3,386
1730,875	-23,5	-3,401
1732,999	-24,5	-3,431
1735,123	-24,5	-3,441
1737,241	-25	-3,451
1739,359	-24,5	-3,446
1741,483	-25	-3,46
1743,601	-25	-3,46
1745,725	-25	-3,466
1747,843	-25	-3,464
1749,96	-25	-3,464
1752,078	-25,5	-3,473
1754,196	-26	-3,481
1756,32	-26	-3,486
1758,444	-26	-3,486
1760,562	-26	-3,488
1762,686	-26	-3,489
1764,803	-26	-3,491
1766,921	-26	-3,49
1769,051	-26	-3,493
1771,175	-26	-3,496
1773,293	-26	-3,496
1775,411	-26	-3,497
1777,529	-26	-3,497
1779,659	-26	-3,498
1781,771	-26	-3,499
1783,888	-26	-3,499
1786,006	-26	-3,499
1788,124	-26	-3,499
1790,242	-26	-3,5
1792,36	-26	-3,486
1794,478	-26	-3,438
1796,608	-26	-3,347
1798,726	-26	-3,341
1800,843	-25,5	-3,353
1802,967	-25,5	-3,261
1805,091	-25,5	-3,233
1807,221	-25	-3,14
1809,339	-24,5	-3,093
1811,469	-23	-3,038
1813,593	-21,5	-2,901
1815,717	-20,5	-2,808
1817,84	-19	-2,668
1819,958	-18	-2,593
1822,076	-17	-2,539
1824,194	-16	-2,488
1826,312	-15,5	-2,494
1828,43	-15	-2,45
1830,554	-15,5	-2,448
1832,678	-15	-2,424
1834,796	-15	-2,434
1836,919	-15	-2,368
1839,043	-12,5	-2,269
1841,167	-12	-2,181
1843,291	-10,5	-2,055
1845,409	-10	-2,018
1847,533	-9,5	-1,947
1849,735	-5,5	-1,5
1851,865	-5,5	-1,531
1853,982	-6,5	-1,553
1856,106	-5	-1,454
1858,23	-5	-1,388
1860,348	-5	-1,441
1862,466	-5,5	-1,488
1864,596	-4,5	-1,349
1866,714	-4,5	-1,281
1868,838	-4	-1,188
1870,961	-3	-1,114
1873,079	-3	-1,089
1875,197	-2,5	-1,042
1877,321	-2	-1,002
1879,445	-1,5	-0,928
1881,575	-1,5	-0,838
1883,693	-1	-0,774
1885,811	-1	-0,754
1887,94	-1	-0,79
1890,058	-1,5	-0,789
1892,182	-0,5	-0,77
1894,306	-1	-0,746
1896,43	-0,5	-0,674
1898,548	-1	-0,703
1900,672	-1	-0,724
1902,79	-0,5	-0,74
1904,919	0	-0,569
1907,037	0	-0,533
1909,155	0	-0,528
1911,285	0	-0,405
1913,403	1	-0,28
1915,527	1,5	-0,226
1917,651	2	-0,158
1919,775	2,5	-0,105
1921,899	3,5	-0,067
1924,028	4	-0,046
1926,146	4	-0,057
1928,276	3,5	-0,05
1930,394	3,5	-0,042
1932,512	4	-0,028
1934,642	4	-0,019
1936,766	4,5	-0,015
1938,884	4	-0,017
1941,013	4	-0,013
1943,137	4,5	-0,01
1945,255	4,5	-0,01
1947,385	4,5	-0,008
1949,503	4,5	-0,007
1951,633	4	-0,005
1953,751	4,5	-0,005
1955,875	4,5	-0,004
1957,999	4,5	-0,007
1960,122	4,5	-0,005
1962,24	4,5	-0,005
1964,37	4,5	-0,004
1966,488	4,5	-0,003
1968,612	4,5	-0,002
1970,736	4	-0,003
1972,86	4,5	-0,002
1974,983	4,5	-0,002
1977,113	4,5	-0,002
1979,231	4,5	-0,001
1981,349	4,5	-0,001
1983,479	4,5	-0,001
1985,597	4	0
1987,715	4	0
1989,839	4,5	-0,015
1991,963	4,5	-0,059
1994,086	4,5	-0,232
1996,21	4	-0,332
1998,328	3,5	-0,374
2000,458	4	-0,162
2002,582	4	-0,249
2004,706	3	-0,409
2006,83	1,5	-0,544
2008,954	0	-0,68
2011,071	0	-0,712
2013,195	-1	-0,806
2015,313	-1,5	-0,864
2017,431	-1,5	-0,898
2019,555	-1,5	-0,909
2021,673	-1,5	-0,92
2023,797	-0,5	-0,792
2025,921	-0,5	-0,866
2028,033	-0,5	-0,885
2030,15	-1,5	-1,058
2032,28	-2	-1,204
2034,398	-2,5	-1,262
2036,528	-2,5	-1,337
2038,646	-2,5	-1,364
2040,764	-3	-1,427
2042,888	-3	-1,452
2045,017	-3	-1,453
2047,141	-3,5	-1,567
2049,265	-3,5	-1,597
2051,389	-3,5	-1,632
2053,519	-4,5	-1,804
2055,643	-4,5	-1,908
2057,761	-4,5	-1,912
2059,891	-5,5	-2,005
2062,015	-5,5	-2,028
2064,132	-5,5	-2,092
2066,256	-5,5	-2,158
2068,374	-6	-2,164
2070,492	-6	-2,206
2072,628	-6	-2,354
2074,746	-6,5	-2,396
2076,87	-7,5	-2,441
2079	-8	-2,597
2081,117	-8,5	-2,692
2083,247	-9	-2,805
2085,365	-9,5	-2,873
2087,483	-10	-2,964
2089,601	-10,5	-2,963
2091,725	-10	-2,992
2093,843	-10	-2,981
2095,961	-10,5	-3,02
2098,078	-11	-3,04
2100,196	-11	-3,061
2102,32	-11	-3,122
2104,45	-12,5	-3,232
2106,574	-13	-3,293
2108,698	-14	-3,36
2110,816	-15	-3,411
2112,946	-16	-3,445
2115,069	-16,5	-3,459
2117,187	-16,5	-3,463
2119,311	-17	-3,468
2121,429	-17	-3,477
2123,547	-17	-3,475
2125,671	-17	-3,48
2127,795	-16,5	-3,478
2129,913	-17	-3,486
2132,043	-16,5	-3,49
2134,16	-16,5	-3,49
2136,296	-16,5	-3,493
2138,408	-16,5	-3,494
2140,532	-16,5	-3,494
2142,65	-16,5	-3,494
2144,768	-16,5	-3,495
2146,886	-16	-3,496
2149,016	-15,5	-3,498
2151,139	-15,5	-3,499
2153,263	-15,5	-3,499
2155,387	-15,5	-3,499
2157,505	-15,5	-3,5
2159,635	-15,5	-3,499
2161,753	-15	-3,5
2163,877	-15	-3,406
2166,019	-15	-3,17
2168,142	-14,5	-3,091
2170,26	-13,5	-3
2172,39	-10,5	-2,839
2174,514	-9,5	-2,741
2176,644	-7	-2,548
2178,762	-7	-2,463
2180,886	-5,5	-2,364
2183,016	-5,5	-2,305
2185,133	-4,5	-2,178
2187,257	-4	-2,084
2189,381	-3,5	-1,969
2191,505	-2,5	-1,865
2193,629	-1,5	-1,665
2195,753	-1	-1,461
2197,871	-0,5	-1,461
2200,001	-0,5	-1,348
2202,118	-1	-1,523
2204,236	-1	-1,456
2206,36	-2,5	-1,893
2208,478	-2	-1,773
2210,608	-1	-1,644
2212,726	-1,5	-1,676
2214,844	-1	-1,602
2216,968	-0,5	-1,46
2219,086	0	-1,349
2221,203	0	-1,221
2223,327	0	-1,07
2225,439	0	-0,951
2227,551	1	-0,779
2229,675	1	-0,739
2231,793	1	-0,633
2233,917	1,5	-0,455
2236,035	1,5	-0,454
2238,152	2	-0,398
2240,276	2	-0,265
2242,394	2,5	-0,184
2244,512	3	-0,107
2246,636	4	-0,053
2248,754	4	-0,03
2250,878	4,5	-0,021
2252,996	4,5	-0,015
2255,119	4,5	-0,009
2257,237	4,5	-0,005
2259,355	4,5	-0,004
2261,479	4,5	-0,015
2263,597	4,5	-0,012
2265,715	4,5	-0,008
2267,839	4,5	-0,004
2269,957	4,5	-0,002
2272,075	4,5	-0,003
2274,198	4,5	-0,003
2276,322	4,5	-0,001
2278,446	4,5	0
2280,564	4,5	-0,084
2282,682	4,5	-0,186
2284,806	4	-0,298
2286,918	3,5	-0,39
2289,036	1,5	-0,601
2291,159	1	-0,706
2293,271	1	-0,826
2295,395	-0,5	-0,95
2297,513	-0,5	-1,031
2299,631	-0,5	-1,109
2301,755	-1	-1,276
2303,873	-1,5	-1,468
2305,991	-2	-1,521
2308,114	-2,5	-1,694
2310,232	-2,5	-1,784
2312,35	-3	-1,915
2314,474	-3	-1,962
2316,592	-3	-2,094
2318,716	-3,5	-2,269
2320,834	-4,5	-2,476
2322,952	-4,5	-2,613
2325,076	-5,5	-2,786
2327,193	-6	-2,909
2329,323	-6,5	-3,063
2331,441	-7,5	-3,211
2333,559	-8,5	-3,312
2335,677	-10	-3,397
2337,795	-11	-3,434
2339,913	-11,5	-3,457
2342,036	-12	-3,472
2344,154	-12	-3,481
2346,272	-12	-3,488
2348,396	-12	-3,492
2350,514	-12	-3,495
2352,644	-12	-3,497
2354,768	-12	-3,498
2356,886	-12	-3,5
2359,01	-12	-3,354
2361,127	-11,5	-3,172
2363,257	-7,5	-2,967
2365,375	-6	-2,844
2367,499	-5	-2,683
2369,623	-4	-2,514
2371,741	-3,5	-2,398
2373,859	-3	-2,297
2375,989	-1,5	-2,03
2378,107	-1	-1,924
2380,224	-0,5	-1,797
2382,348	0	-1,581
2384,472	0	-1,418
2386,596	0,5	-1,229
2388,714	1	-1,049
2390,832	1	-0,905
2392,962	1,5	-0,724
2395,086	1,5	-0,508
2397,209	2	-0,362
2399,327	2	-0,247
2401,445	3	-0,155
2403,575	3,5	-0,08
2405,699	4	-0,049
2407,817	4,5	-0,031
2409,941	4,5	-0,017
2412,071	4,5	-0,01
2414,188	4,5	-0,007
2416,306	4,5	-0,006
2418,424	4,5	-0,004
2420,554	4,5	-0,002
2422,672	4,5	-0,001
2424,79	4,5	-0,001
2426,914	4,5	0
2429,032	4,5	-0,102
2431,161	4,5	-0,243
2433,279	4	-0,376
2435,397	2,5	-0,504
2437,533	0,5	-0,742
2439,651	0	-0,929
2441,769	-0,5	-1,066
2443,893	-1	-1,246
2446,011	-1,5	-1,399
2448,134	-1,5	-1,572
2450,33	-3	-2,116
2452,454	-3	-2,23
2454,578	-3,5	-2,409
2456,696	-4	-2,514
2458,82	-4	-2,625
2460,944	-4,5	-2,765
2463,068	-5,5	-2,901
2465,185	-6	-3,045
2467,315	-6,5	-3,19
2469,445	-8	-3,294
2471,569	-9	-3,376
2473,687	-9,5	-3,4
2475,811	-10	-3,423
2477,935	-10,5	-3,454
2480,059	-10,5	-3,475
2482,177	-11	-3,48
2484,3	-11	-3,49
2486,418	-11	-3,493
2488,548	-11	-3,495
2490,666	-11	-3,498
2492,79	-11	-3,499
2494,914	-11	-3,5
2497,038	-11	-3,401
2499,162	-11	-3,242
2501,285	-7,5	-3,065
2503,409	-6	-2,908
2505,533	-5	-2,777
2507,651	-4	-2,66
2509,769	-3	-2,544
2511,893	-2,5	-2,408
2514,017	-2,5	-2,24
2516,135	-1	-2,091
2518,264	-0,5	-1,963
2520,382	-0,5	-1,91
2522,5	-0,5	-1,825
2524,63	0	-1,622
2526,748	0	-1,499
2528,878	0	-1,345
2530,996	0	-1,25
2533,114	0,5	-1,16
2535,243	1	-0,929
2537,361	1	-0,856
2539,485	1,5	-0,683
2541,609	1,5	-0,584
2543,727	1,5	-0,519
2545,851	2	-0,384
2547,975	2	-0,302
2550,093	2	-0,254
2552,223	3	-0,11
2554,34	3,5	-0,084
2556,458	4	-0,057
2558,582	4	-0,035
2560,7	4	-0,027
2562,824	4,5	-0,015
2564,942	4,5	-0,012
2567,06	4,5	-0,009
2569,184	4,5	-0,006
2571,307	4,5	-0,004
2573,425	4,5	-0,003
2575,549	4,5	-0,002
2577,667	4,5	-0,002
2579,791	4,5	-0,001
2581,909	4,5	-0,001
2584,033	4,5	-0,001
2586,157	4,5	-0,001
2588,28	4,5	0
2590,398	4,5	0
2592,522	4,5	-0,12
2594,64	4,5	-0,251
2596,758	3,5	-0,353
2598,882	2,5	-0,506
2601,006	1,5	-0,668
2603,13	0,5	-0,804
2605,254	0	-0,94
2607,377	0	-0,98
2609,495	-0,5	-1,026
2611,619	-0,5	-1,084
2613,743	-0,5	-1,241
2615,867	-1	-1,371
2617,985	-1	-1,526
2620,109	-1,5	-1,614
2622,232	-1,5	-1,786
2624,35	-2	-1,962
2626,474	-2,5	-2,114
2628,598	-2,5	-2,261
2630,716	-3	-2,371
2632,846	-3	-2,558
2634,97	-3,5	-2,726
2637,094	-4,5	-2,836
2639,218	-5	-3,03
2641,335	-5,5	-3,141
2643,459	-6	-3,258
2645,583	-7	-3,322
2647,707	-8	-3,407
2649,837	-10	-3,459
2651,961	-10,5	-3,475
2654,079	-10,5	-3,486
2656,209	-10,5	-3,492
2658,326	-10,5	-3,495
2660,45	-10,5	-3,498
2662,568	-10,5	-3,499
2664,686	-10,5	-3,5
2666,804	-10,5	-3,394
2668,928	-10,5	-3,257
2671,052	-8,5	-3,09
2673,176	-7	-2,964
2675,299	-5,5	-2,852
2677,417	-4	-2,685
2679,535	-3	-2,584
2681,659	-2,5	-2,454
2683,789	-2,5	-2,32
2685,907	-2	-2,214
2688,025	-1	-2,098
2690,143	-0,5	-1,976
2692,278	-0,5	-1,833
2694,396	0	-1,717
2696,526	0	-1,539
2698,65	0,5	-1,323
2700,768	0,5	-1,123
2702,886	0,5	-0,958
2705,01	1,5	-0,738
2707,134	1,5	-0,513
2709,252	1,5	-0,404
2711,375	2	-0,28
2713,493	2	-0,194
2715,617	3	-0,121
2717,741	3	-0,074
2719,877	3,5	-0,038
2722,001	4	-0,021
2724,119	4	-0,016
2726,237	4	-0,012
2728,366	4,5	-0,006
2730,484	4,5	-0,004
2732,602	4,5	-0,003
2734,72	4	-0,002
2736,838	4,5	-0,001
2738,968	4,5	-0,001
2741,086	4,5	-0,001
2743,21	4,5	0
2745,339	4,5	-0,083
2747,457	4	-0,207
2749,575	4	-0,218
2751,699	4,5	-0,282
2753,823	3,5	-0,42
2755,947	2	-0,512
2758,071	1	-0,642
2760,189	0,5	-0,712
2762,306	0	-0,802
2764,436	0	-0,952
2766,554	-0,5	-1,074
2768,678	-0,5	-1,119
2770,802	-0,5	-1,212
2772,92	-0,5	-1,212
2775,044	-0,5	-1,332
2777,168	-1	-1,496
2779,298	-1	-1,571
2781,415	-1	-1,606
2783,539	-1,5	-1,668
2785,657	-1,5	-1,652
2787,787	-1,5	-1,825
2789,905	-1,5	-1,93
2792,029	-2	-2,066
2794,153	-2	-2,121
2796,271	-2	-2,191
2798,389	-2,5	-2,281
2800,512	-3	-2,47
2802,63	-3	-2,566
2804,748	-3,5	-2,724
2806,872	-4,5	-2,935
2808,99	-5	-3,105
2811,114	-6	-3,3
2813,238	-7,5	-3,386
2815,361	-9	-3,44
2817,479	-9	-3,456
2819,597	-10	-3,474
2821,709	-10	-3,48
2823,833	-10,5	-3,487
2825,951	-10,5	-3,488
2828,081	-10,5	-3,493
2830,199	-10,5	-3,495
2832,322	-10,5	-3,496
2834,44	-10,5	-3,498
2836,57	-10,5	-3,499
2838,688	-10,5	-3,499
2840,812	-10	-3,5
2842,936	-10	-3,202
2845,054	-9,5	-3,164
2847,178	-9	-3,071
2849,302	-5,5	-2,956
2851,425	-4,5	-2,729
2853,549	-3	-2,647
2855,667	-2,5	-2,524
2857,785	-2,5	-2,53
2859,903	-1,5	-2,318
2862,021	-1	-2,18
2864,139	-0,5	-2,112
2866,263	-0,5	-2,013
2868,38	-0,5	-1,928
2870,504	-0,5	-1,872
2872,628	0	-1,752
2874,752	0	-1,569
2876,876	0	-1,549
2878,994	0	-1,512
2881,112	0	-1,47
2883,236	0	-1,36
2885,353	0	-1,314
2887,477	0	-1,295
2889,595	0,5	-1,226
2891,719	0,5	-1,159
2893,843	1	-1,064
2895,961	0,5	-1,044
2898,079	0,5	-1,018
2900,209	1	-0,804
2902,326	1	-0,688
2904,444	1	-0,598
2906,568	1,5	-0,446
2908,692	1,5	-0,363
2910,81	1,5	-0,271
2912,94	3	-0,128
2915,064	3,5	-0,076
2917,182	3,5	-0,053
2919,306	4	-0,029
2921,423	4	-0,018
2923,547	4	-0,012
2925,671	4	-0,007
2927,789	4	-0,005
2929,907	4,5	-0,003
2932,031	4	-0,002
2934,149	4	-0,001
2936,273	4	-0,041
2938,396	3,5	-0,267
2940,514	2	-0,465
2942,644	0,5	-0,727
2944,762	0	-0,966
2946,88	-0,5	-1,221
2949,01	-1	-1,505
2951,14	-1,5	-1,733
2953,258	-1,5	-1,945
2955,387	-2	-2,143
2957,505	-2,5	-2,33
2959,629	-2,5	-2,518
2961,753	-3,5	-2,771
2963,871	-3,5	-2,915
2965,989	-4	-2,935
2968,113	-5	-3,145
2970,237	-5,5	-3,217
2972,349	-6	-3,312
2974,472	-8,5	-3,412
2976,59	-8,5	-3,437
2978,708	-9,5	-3,464
2980,832	-10	-3,464
2982,962	-10	-3,48
2985,092	-10,5	-3,49
2987,21	-10	-3,495
2989,334	-10	-3,498
2991,457	-10,5	-3,499
2993,575	-10	-3,498
2995,699	-10	-3,5
2997,817	-10,5	-3,431
2999,929	-10,5	-3,305
3002,053	-6,5	-3,05
3004,171	-6	-3,04
3006,289	-4,5	-2,769
3008,418	-2,5	-2,594
3010,536	-1,5	-2,37
3012,654	-1	-2,143
3014,772	-0,5	-2,025
3016,896	0	-1,783
3019,014	0	-1,598
3021,138	0	-1,329
3023,256	0,5	-1,106
3025,373	0,5	-1,018
3027,503	0,5	-0,945
3029,621	1	-0,829
3031,739	1	-0,76
3033,863	1	-0,582
3035,981	1	-0,592
3038,099	1,5	-0,513
3040,223	1,5	-0,303
3042,34	1,5	-0,231
3044,464	2,5	-0,127
3046,588	2,5	-0,101
3048,706	2,5	-0,083
3050,884	4	-0,02
3053,02	4	-0,012
3055,144	4	-0,007
3057,262	4	-0,006
3059,386	4	-0,004
3061,503	4	-0,003
3063,627	4	-0,001
3065,751	4	-0,001
3067,875	4	0
3069,993	4	-0,012
3072,123	4	-0,217
3074,241	4	-0,4
3076,365	3	-0,541
3078,488	0,5	-0,704
3080,6	0,5	-0,791
3082,718	0	-0,966
3084,842	-0,5	-1,117
3086,96	-0,5	-1,287
3089,078	-0,5	-1,393
3091,208	-1	-1,602
3093,326	-1	-1,787
3095,443	-1	-1,92
3097,567	-1,5	-2,087
3099,691	-1,5	-2,245
3101,809	-2	-2,329
3103,939	-2,5	-2,511
3106,057	-2,5	-2,654
3108,175	-3	-2,76
3110,305	-3,5	-2,905
3112,422	-3,5	-2,957
3114,54	-4	-3,022
3116,67	-4,5	-3,151
3118,788	-5	-3,245
3120,912	-6	-3,342
3123,03	-7,5	-3,398
3125,154	-8,5	-3,437
3127,278	-8,5	-3,455
3129,396	-9	-3,463
3131,519	-9,5	-3,476
3133,637	-9,5	-3,483
3135,761	-10	-3,489
3137,885	-10	-3,494
3140,009	-10	-3,497
3142,127	-10	-3,497
3144,257	-10	-3,498
3146,375	-10	-3,498
3148,492	-10	-3,499
3150,61	-9,5	-3,489
3152,734	-10	-3,315
3154,852	-9,5	-3,146
3156,976	-6	-2,904
3159,1	-4,5	-2,778
3161,218	-3,5	-2,682
3162,088	4	-0,001