File: ensaios_Ciclicos/sem_TC/entrada/_6.txt
Time (s)	Load (N)	Displacement (mm)
0	0	-0,028
2,14	1	-0,238
4,27	1,5	-0,212
6,388	1,5	-0,251
8,499	1	-0,295
10,617	1,5	-0,074
12,729	1,5	-0,237
14,847	1,5	-0,334
16,959	2	-0,216
19,077	1,5	-0,281
21,189	2	-0,131
23,3	2	-0,033
25,412	2	-0,024
27,53	2	-0,111
29,648	2	-0,168
31,76	2,5	-0,044
33,878	2,5	-0,081
35,99	2	-0,039
38,108	2,5	-0,217
40,22	2	-0,162
42,337	2,5	-0,206
44,449	2,5	-0,212
46,567	2,5	-0,092
48,679	2,5	-0,01
50,797	2,5	-0,001
52,915	2,5	-0,001
55,033	3	-0,001
57,151	2,5	-0,002
59,269	2,5	-0,003
61,38	3	-0,003
63,498	2,5	-0,007
65,61	3	-0,011
67,722	2,5	-0,013
69,846	3	-0,015
71,964	3	-0,015
74,082	3	-0,021
76,2	2,5	-0,023
78,317	2,5	-0,026
80,435	2,5	-0,027
82,553	3	-0,016
84,671	3	-0,014
86,789	3	-0,017
88,901	2,5	-0,031
91,025	2,5	-0,039
93,137	1,5	-0,071
95,248	1	-0,095
97,36	0,5	-0,132
99,484	0,5	-0,122
101,596	-0,5	-0,226
103,714	-0,5	-0,274
105,832	-1	-0,375
107,944	-2	-0,435
110,062	-2,5	-0,469
112,173	-3,5	-0,706
114,291	-5	-0,814
116,403	-8,5	-1,13
118,527	-10	-1,234
120,639	-13,5	-1,604
122,757	-14,5	-1,706
124,875	-16	-1,754
126,993	-18	-2,01
129,105	-19,5	-2,11
131,216	-19,5	-2,129
133,328	-22,5	-2,394
135,446	-26	-2,708
137,558	-30	-3,01
139,67	-33	-3,278
141,782	-33	-3,499
143,894	-33,5	-3,498
146,011	-33	-3,496
148,123	-33	-3,493
150,241	-33	-3,483
152,353	-33	-3,482
154,471	-33	-3,474
156,583	-30,5	-3,422
158,707	-28,5	-3,36
160,819	-23,5	-3,007
162,93	-19,5	-2,594
165,042	-15,5	-2,297
167,16	-14,5	-2,154
169,272	-11,5	-1,81
171,39	-8,5	-1,485
173,508	-7	-1,23
175,632	-6	-1,196
177,744	-4	-0,952
179,862	-5,5	-1,122
181,979	-3	-0,829
184,097	0,5	-0,514
186,215	2,5	-0,343
188,327	3,5	0
190,439	3,5	-0,001
192,551	3,5	-0,001
194,675	3	-0,001
196,787	3,5	-0,002
198,91	3	-0,002
201,022	3,5	-0,004
203,14	3,5	-0,004
205,252	3,5	-0,004
207,37	3,5	-0,005
209,482	3,5	-0,008
211,606	3,5	-0,006
213,718	3,5	-0,004
215,829	3,5	-0,004
217,947	3,5	-0,003
220,059	3,5	-0,002
222,177	3,5	-0,003
224,295	3,5	-0,004
226,413	3,5	-0,006
228,531	3,5	-0,005
230,655	3,5	-0,005
232,766	3,5	-0,005
234,884	3,5	-0,006
236,996	3,5	-0,006
239,114	3,5	-0,007
241,232	3,5	-0,012
243,35	3,5	-0,011
245,462	3,5	-0,01
247,574	3,5	-0,008
249,692	3,5	-0,011
251,809	3,5	-0,011
253,927	3,5	-0,008
256,039	3,5	-0,008
258,157	3,5	-0,015
260,269	3,5	-0,015
262,387	3,5	-0,022
264,505	3,5	-0,029
266,629	3,5	-0,025
268,746	3	-0,035
270,876	3	-0,055
272,988	2,5	-0,071
275,106	2,5	-0,07
277,218	1,5	-0,088
279,342	1,5	-0,132
281,454	1	-0,16
283,578	2	-0,115
285,695	1	-0,141
287,807	0,5	-0,187
289,925	0	-0,273
292,037	0	-0,205
294,155	0	-0,166
296,273	0,5	-0,153
298,391	1,5	-0,1
300,509	1	-0,128
302,633	1	-0,12
304,75	1,5	-0,115
306,868	0,5	-0,147
308,986	0,5	-0,179
311,116	-0,5	-0,286
313,228	0	-0,279
315,346	0	-0,225
317,464	0	-0,271
319,582	-1	-0,37
321,699	-0,5	-0,38
323,817	-0,5	-0,3
325,941	0	-0,346
328,059	-1	-0,441
330,177	-1,5	-0,464
332,301	-0,5	-0,44
334,413	-2,5	-0,624
336,537	-2	-0,54
338,66	-2	-0,649
340,772	-3	-0,621
342,896	-3,5	-0,734
345,02	-2	-0,606
347,15	-2	-0,562
349,268	-3	-0,699
351,392	-2,5	-0,633
353,51	-1,5	-0,495
355,633	-1,5	-0,449
357,745	-2	-0,591
359,863	-3	-0,756
361,987	-5,5	-1,051
364,105	-6,5	-1,169
366,229	-7,5	-1,239
368,347	-7,5	-1,288
370,471	-8	-1,296
372,583	-9,5	-1,464
374,706	-11	-1,604
376,83	-13	-1,766
378,954	-14,5	-1,891
381,078	-15,5	-2,068
383,202	-18	-2,214
385,314	-20,5	-2,393
387,444	-21	-2,514
389,572	-22,5	-2,594
391,685	-23,5	-2,699
393,809	-25,5	-2,844
395,927	-27,5	-2,988
398,051	-30	-3,114
400,175	-29	-3,127
402,293	-30	-3,23
404,405	-30	-3,398
406,529	-30	-3,479
408,646	-30	-3,488
410,776	-30	-3,364
412,894	-30	-3,5
415,012	-30	-3,5
417,136	-30	-3,5
419,254	-30	-3,499
421,372	-30	-3,498
423,496	-30	-3,496
425,625	-30	-3,495
427,743	-29,5	-3,491
429,867	-29,5	-3,483
431,979	-29	-3,469
434,103	-29	-3,471
436,221	-29	-3,471
438,339	-29	-3,465
440,463	-27	-3,433
442,581	-26	-3,385
444,704	-27	-3,409
446,834	-28	-3,43
448,952	-26,5	-3,378
451,082	-25	-3,347
453,206	-24	-3,302
455,33	-24	-3,283
457,454	-24	-3,281
459,572	-25	-3,327
461,701	-24	-3,318
463,825	-23,5	-3,284
465,949	-24	-3,286
468,067	-22,5	-3,211
470,191	-22,5	-3,166
472,315	-24	-3,304
474,427	-24,5	-3,342
476,557	-24	-3,295
478,668	-21,5	-3,067
480,786	-18	-2,827
482,904	-19	-2,902
485,028	-19	-2,846
487,164	-19,5	-2,956
489,288	-20	-2,95
491,412	-19	-2,857
493,53	-17,5	-2,719
495,653	-16,5	-2,668
497,777	-16,5	-2,68
499,907	-19,5	-2,885
502,031	-20	-2,988
504,149	-19,5	-2,909
506,279	-20,5	-3,032
508,403	-20,5	-3,062
510,533	-21	-3,074
512,65	-22	-3,11
514,768	-23,5	-3,263
516,88	-25,5	-3,366
519,01	-27	-3,405
521,122	-25,5	-3,395
523,246	-25,5	-3,362
525,364	-25	-3,377
527,482	-25	-3,368
529,612	-27	-3,408
531,729	-26,5	-3,395
533,853	-28	-3,442
535,965	-28	-3,443
538,095	-28	-3,448
540,213	-28,5	-3,453
542,343	-28,5	-3,474
544,467	-29	-3,482
546,585	-29	-3,486
548,702	-29	-3,486
550,832	-29	-3,485
552,95	-29	-3,488
555,068	-29	-3,489
557,186	-29	-3,49
559,298	-29	-3,487
561,422	-29	-3,492
563,54	-29	-3,485
565,663	-28,5	-3,482
567,781	-29	-3,486
569,899	-29	-3,49
572,023	-29	-3,49
574,153	-29	-3,495
576,271	-29	-3,496
578,395	-29	-3,497
580,519	-29	-3,498
582,649	-29	-3,498
584,766	-29	-3,499
586,878	-29	-3,499
588,996	-29	-3,498
591,12	-29	-3,498
593,238	-29	-3,498
595,362	-29	-3,498
597,48	-29	-3,497
599,592	-29	-3,495
601,721	-29	-3,496
603,839	-29	-3,495
605,963	-28,5	-3,485
608,087	-29	-3,488
610,211	-28,5	-3,486
612,329	-28,5	-3,48
614,447	-28,5	-3,478
616,571	-28,5	-3,476
618,7	-28,5	-3,478
620,818	-28,5	-3,475
622,936	-28,5	-3,477
625,054	-27,5	-3,448
627,184	-28	-3,459
629,308	-27,5	-3,464
631,432	-27,5	-3,447
633,55	-28	-3,463
635,673	-28,5	-3,477
637,803	-28,5	-3,487
639,915	-28,5	-3,489
642,027	-28,5	-3,482
644,145	-28,5	-3,481
646,257	-28,5	-3,486
648,381	-29	-3,488
650,499	-28,5	-3,491
652,616	-28,5	-3,491
654,734	-28,5	-3,492
656,852	-28	-3,473
658,976	-28	-3,471
661,094	-27,5	-3,468
663,23	-28,5	-3,473
665,354	-28	-3,463
667,49	-27,5	-3,464
669,602	-26	-3,463
671,725	-27,5	-3,464
673,855	-28	-3,474
675,973	-27	-3,447
678,091	-26	-3,439
680,215	-24,5	-3,437
682,327	-27	-3,428
684,445	-27	-3,437
686,569	-27,5	-3,456
688,686	-27	-3,464
690,81	-27,5	-3,481
692,928	-28,5	-3,484
695,046	-28,5	-3,484
697,17	-28,5	-3,487
699,294	-28,5	-3,489
701,412	-28	-3,488
703,53	-28	-3,485
705,647	-28,5	-3,485
707,771	-28	-3,487
709,895	-28	-3,488
712,019	-28,5	-3,488
714,143	-28,5	-3,487
716,267	-28,5	-3,486
718,397	-28,5	-3,492
720,521	-28,5	-3,492
722,651	-28,5	-3,494
724,78	-28,5	-3,495
726,904	-28,5	-3,496
729,022	-28,5	-3,497
731,146	-28,5	-3,496
733,264	-28,5	-3,497
735,394	-28,5	-3,497
737,512	-28,5	-3,497
739,642	-28,5	-3,497
741,759	-28,5	-3,497
743,883	-28,5	-3,497
746,007	-28,5	-3,498
748,119	-28	-3,498
750,243	-28,5	-3,498
752,367	-28,5	-3,498
754,491	-28	-3,498
756,627	-28,5	-3,498
758,763	-28,5	-3,499
760,88	-28,5	-3,499
763,01	-28	-3,499
765,122	-28,5	-3,5
767,24	-28,5	-3,403
769,364	-28,5	-3,429
771,494	-28,5	-3,375
773,618	-28,5	-3,359
775,741	-28,5	-3,264
777,859	-28,5	-3,195
779,977	-28	-3,185
782,107	-28	-3,124
784,231	-25,5	-3,008
786,349	-26	-2,982
788,467	-25	-2,903
790,585	-23	-2,769
792,702	-22	-2,706
794,832	-19,5	-2,534
796,956	-19,5	-2,5
799,092	-16,5	-2,325
801,21	-15,5	-2,237
803,34	-15	-2,198
805,458	-14,5	-2,118
807,582	-14	-2,061
809,712	-13	-2,018
811,835	-11	-1,876
813,953	-10,5	-1,787
816,077	-9,5	-1,709
818,201	-10,5	-1,749
820,313	-9	-1,657
822,437	-9	-1,648
824,561	-8,5	-1,587
826,679	-9	-1,65
828,796	-9,5	-1,668
830,92	-8,5	-1,574
833,038	-7	-1,441
835,168	-6	-1,339
837,304	-6	-1,309
839,422	-6	-1,271
841,546	-5,5	-1,248
843,658	-5,5	-1,256
845,787	-5	-1,207
847,905	-5,5	-1,287
850,023	-6	-1,283
852,141	-5,5	-1,24
854,265	-4,5	-1,194
856,389	-4,5	-1,165
858,507	-4,5	-1,17
860,619	-5,5	-1,212
862,743	-5	-1,198
864,86	-4,5	-1,124
866,984	-4	-1,074
869,102	-4	-1,021
871,232	-3	-0,93
873,344	-3	-0,944
875,468	-3	-0,919
877,592	-2,5	-0,842
879,71	-2,5	-0,848
881,839	-2,5	-0,744
883,963	-1,5	-0,679
886,087	-0,5	-0,527
888,211	-0,5	-0,507
890,329	0	-0,425
892,453	0	-0,409
894,577	0	-0,364
896,695	0	-0,327
898,825	1	-0,197
900,942	1,5	-0,17
903,06	1,5	-0,132
905,184	2	-0,125
907,302	2	-0,148
909,426	1,5	-0,156
911,544	1,5	-0,149
913,662	1,5	-0,165
915,791	2	-0,112
917,915	2,5	-0,091
920,039	2	-0,091
922,163	3	-0,085
924,287	3	-0,076
926,405	3,5	-0,052
928,529	3,5	-0,036
930,653	3,5	-0,029
932,77	4	-0,021
934,894	4	-0,016
937,018	4	-0,012
939,142	4	-0,012
941,26	4	-0,008
943,378	4	-0,007
945,502	4	-0,006
947,62	4	-0,006
949,744	4	-0,006
951,867	4	-0,004
953,991	4	-0,003
956,115	4	-0,004
958,245	4	-0,002
960,363	4	-0,002
962,493	4	-0,001
964,611	4	-0,001
966,741	4	-0,001
968,852	4	-0,001
970,976	4	-0,001
973,1	4	-0,026
975,224	4	-0,081
977,342	4	-0,081
979,46	4	-0,148
981,584	4	-0,174
983,702	4	-0,138
985,825	4	-0,258
987,943	4	-0,264
990,067	2,5	-0,448
992,191	3	-0,484
994,309	3	-0,446
996,433	3	-0,45
998,563	2	-0,477
1000,681	3	-0,424
1002,81	2,5	-0,457
1004,922	2,5	-0,448
1007,046	2,5	-0,489
1009,158	2	-0,485
1011,288	0	-0,661
1013,406	0	-0,666
1015,53	1,5	-0,686
1017,654	1	-0,63
1019,772	-0,5	-0,767
1021,895	-2	-0,856
1024,013	-1,5	-0,882
1026,131	-2	-0,94
1028,249	-3	-1,05
1030,379	-3,5	-1,181
1032,503	-4	-1,204
1034,627	-4	-1,266
1036,745	-4	-1,276
1038,862	-4	-1,281
1040,98	-4,5	-1,387
1043,098	-4,5	-1,376
1045,222	-4,5	-1,422
1047,346	-5	-1,51
1049,464	-5	-1,531
1051,594	-5,5	-1,585
1053,718	-5,5	-1,668
1055,835	-6,5	-1,731
1057,959	-6	-1,728
1060,083	-6,5	-1,791
1062,207	-7	-1,873
1064,325	-8	-1,969
1066,455	-9	-2,065
1068,573	-10,5	-2,203
1070,697	-10,5	-2,28
1072,814	-10	-2,2
1074,938	-10,5	-2,262
1077,05	-9,5	-2,199
1079,174	-11	-2,277
1081,286	-10	-2,241
1083,41	-10	-2,281
1085,532	-10,5	-2,252
1087,652	-11	-2,284
1089,782	-11	-2,354
1091,899	-10,5	-2,316
1094,029	-12	-2,408
1096,147	-12	-2,471
1098,265	-12,5	-2,52
1100,383	-13,5	-2,572
1102,513	-15	-2,701
1104,631	-15,5	-2,727
1106,743	-15	-2,75
1108,866	-15	-2,763
1110,99	-16,5	-2,846
1113,114	-17,5	-2,924
1115,238	-17,5	-2,983
1117,362	-18	-3,032
1119,486	-18	-3,045
1121,61	-19,5	-3,111
1123,728	-20	-3,174
1125,857	-21,5	-3,294
1127,981	-22	-3,324
1130,093	-22,5	-3,339
1132,217	-23,5	-3,367
1134,347	-24,5	-3,403
1136,471	-25,5	-3,43
1138,601	-25,5	-3,451
1140,725	-26	-3,465
1142,848	-26,5	-3,472
1144,972	-26	-3,475
1147,096	-26	-3,482
1149,214	-26,5	-3,484
1151,338	-27	-3,487
1153,462	-26,5	-3,487
1155,58	-27	-3,489
1157,71	-27	-3,491
1159,827	-27	-3,493
1161,951	-27	-3,494
1164,069	-27	-3,495
1166,193	-27	-3,496
1168,317	-26,5	-3,496
1170,435	-26,5	-3,495
1172,559	-26,5	-3,492
1174,677	-26,5	-3,491
1176,807	-26,5	-3,492
1178,93	-26,5	-3,494
1181,048	-27	-3,494
1183,166	-27	-3,496
1185,29	-26,5	-3,495
1187,414	-26,5	-3,495
1189,538	-26,5	-3,496
1191,656	-27	-3,494
1193,78	-26,5	-3,492
1195,897	-26,5	-3,493
1198,027	-26,5	-3,494
1200,151	-26,5	-3,495
1202,275	-26,5	-3,496
1204,393	-26,5	-3,497
1206,511	-26,5	-3,498
1208,623	-26,5	-3,497
1210,747	-26,5	-3,497
1212,865	-26,5	-3,497
1214,994	-26,5	-3,498
1217,112	-26,5	-3,498
1219,236	-26,5	-3,498
1221,354	-26,5	-3,499
1223,484	-26,5	-3,499
1225,602	-26,5	-3,499
1227,72	-26,5	-3,499
1229,844	-26,5	-3,499
1231,967	-26,5	-3,488
1234,091	-26,5	-3,448
1236,209	-26,5	-3,485
1238,327	-26,5	-3,495
1240,451	-26,5	-3,392
1242,587	-26,5	-3,233
1244,705	-25,5	-3,222
1246,823	-25,5	-3,238
1248,94	-25,5	-3,222
1251,052	-26,5	-3,218
1253,182	-26	-3,188
1255,3	-26,5	-3,217
1257,424	-25,5	-3,12
1259,548	-25,5	-3,074
1261,666	-23,5	-2,953
1263,778	-22,5	-2,85
1265,901	-20,5	-2,75
1268,019	-19,5	-2,699
1270,143	-19	-2,604
1272,261	-18,5	-2,61
1274,385	-17	-2,479
1276,503	-16,5	-2,432
1278,633	-15	-2,277
1280,745	-13,5	-2,169
1282,862	-11,5	-2,009
1284,98	-10,5	-1,946
1287,104	-9,5	-1,815
1289,222	-8,5	-1,715
1291,346	-7,5	-1,605
1293,458	-7,5	-1,684
1295,582	-7,5	-1,607
1297,706	-7	-1,556
1299,83	-6	-1,424
1301,947	-6	-1,458
1304,071	-5,5	-1,385
1306,189	-6	-1,39
1308,313	-5,5	-1,324
1310,431	-4,5	-1,234
1312,555	-4,5	-1,188
1314,673	-4	-1,13
1316,797	-3	-1,064
1318,915	-3,5	-1,017
1321,038	-2,5	-0,959
1323,162	-2,5	-0,888
1325,274	-3	-0,902
1327,392	-2,5	-0,887
1329,51	-2,5	-0,883
1331,634	-2	-0,799
1333,758	-1,5	-0,738
1335,881	-1	-0,618
1338,005	-0,5	-0,513
1340,129	0	-0,437
1342,253	0	-0,344
1344,383	0	-0,336
1346,507	0	-0,324
1348,631	0	-0,279
1350,755	1	-0,254
1352,879	1	-0,221
1354,996	1	-0,206
1357,114	1,5	-0,178
1359,238	1,5	-0,138
1361,356	2,5	-0,102
1363,48	2,5	-0,098
1365,598	2	-0,108
1367,722	3	-0,077
1369,84	3	-0,071
1371,969	3,5	-0,054
1374,093	3,5	-0,045
1376,217	4	-0,031
1378,341	4	-0,032
1380,465	4	-0,026
1382,589	4	-0,017
1384,713	4	-0,013
1386,837	4	-0,01
1388,954	4	-0,009
1391,078	4	-0,007
1393,196	4	-0,005
1395,326	4	-0,003
1397,444	4	-0,002
1399,568	4	-0,001
1401,686	4	-0,001
1403,81	4	0
1405,933	4	-0,033
1408,057	4	-0,2
1410,181	3	-0,399
1412,305	1	-0,61
1414,429	1,5	-0,608
1416,553	-0,5	-0,722
1418,677	-1,5	-0,843
1420,795	-2	-0,938
1422,918	-3	-1,106
1425,036	-3	-1,207
1427,166	-4	-1,405
1429,284	-4,5	-1,478
1431,414	-5,5	-1,666
1433,532	-6	-1,777
1435,656	-7	-1,903
1437,774	-7,5	-1,987
1439,904	-7,5	-2,078
1442,021	-8,5	-2,168
1444,139	-9	-2,228
1446,269	-10,5	-2,351
1448,387	-11	-2,408
1450,511	-12	-2,507
1452,635	-12,5	-2,563
1454,765	-12,5	-2,628
1456,883	-12,5	-2,622
1459,006	-14	-2,694
1461,124	-14,5	-2,768
1463,236	-15	-2,807
1465,36	-15	-2,895
1467,484	-15	-2,909
1469,614	-16,5	-2,963
1471,732	-17,5	-3,027
1473,856	-18	-3,098
1475,973	-19	-3,151
1478,097	-21,5	-3,35
1480,215	-23	-3,402
1482,327	-24,5	-3,439
1484,451	-24,5	-3,45
1486,569	-25	-3,459
1488,693	-25	-3,468
1490,817	-25,5	-3,482
1492,94	-25,5	-3,486
1495,064	-25,5	-3,491
1497,188	-26	-3,495
1499,312	-25,5	-3,496
1501,43	-26	-3,497
1503,554	-25,5	-3,498
1505,672	-26	-3,498
1507,796	-25,5	-3,499
1509,914	-25,5	-3,499
1512,037	-25,5	-3,469
1514,161	-25,5	-3,369
1516,285	-25,5	-3,242
1518,403	-21,5	-2,947
1520,527	-20	-2,805
1522,645	-18,5	-2,694
1524,763	-17	-2,598
1526,887	-15,5	-2,479
1529,004	-15	-2,464
1531,128	-14	-2,3
1533,246	-13,5	-2,285
1535,364	-12	-2,184
1537,482	-13	-2,235
1539,606	-14,5	-2,246
1541,73	-12,5	-2,2
1543,848	-12	-2,169
1545,971	-11	-2,038
1548,089	-10,5	-2,049
1550,219	-11	-2,011
1552,337	-10,5	-2,011
1554,461	-8,5	-1,869
1556,585	-8,5	-1,824
1558,703	-8	-1,813
1560,821	-8	-1,82
1562,938	-8,5	-1,762
1565,062	-6	-1,615
1567,186	-5	-1,468
1569,304	-4,5	-1,304
1571,422	-3,5	-1,172
1573,546	-3	-1,041
1575,676	-2	-0,848
1577,794	-1	-0,684
1579,918	-0,5	-0,505
1582,035	0	-0,4
1584,147	1	-0,264
1586,271	1,5	-0,178
1588,389	2	-0,133
1590,519	3,5	-0,069
1592,637	3,5	-0,047
1594,761	4	-0,032
1596,873	4	-0,022
1598,996	4	-0,013
1601,12	4	-0,008
1603,244	4	-0,006
1605,368	4,5	-0,006
1607,492	4,5	-0,005
1609,622	4	-0,004
1611,734	4	-0,004
1613,858	4	-0,004
1615,969	4	-0,004
1618,093	4,5	-0,004
1620,217	4	-0,002
1622,335	4	-0,002
1624,453	4	-0,001
1626,571	4,5	-0,001
1628,695	4,5	0
1630,819	4,5	-0,12
1632,93	4	-0,233
1635,054	3,5	-0,366
1637,172	2,5	-0,489
1639,296	-0,5	-0,672
1641,42	-1,5	-0,851
1643,544	-2	-0,998
1645,668	-3	-1,166
1647,786	-3	-1,229
1649,909	-3,5	-1,333
1652,027	-4,5	-1,535
1654,145	-5,5	-1,704
1656,269	-6	-1,841
1658,393	-7	-2,009
1660,511	-8	-2,141
1662,635	-9,5	-2,241
1664,753	-9	-2,298
1666,871	-10	-2,414
1668,988	-11,5	-2,514
1671,112	-15	-2,841
1673,23	-15	-2,852
1675,348	-16	-2,98
1677,472	-16	-3,122
1679,59	-17,5	-3,278
1681,702	-21,5	-3,357
1683,82	-22,5	-3,39
1685,943	-23,5	-3,43
1688,055	-24	-3,438
1690,173	-23,5	-3,455
1692,291	-23	-3,454
1694,421	-24,5	-3,475
1696,533	-25	-3,48
1698,657	-25	-3,487
1700,775	-25	-3,49
1702,898	-25	-3,494
1705,01	-25	-3,496
1707,134	-25	-3,497
1709,258	-25,5	-3,498
1711,376	-25,5	-3,498
1713,496	-25,5	-3,499
1715,612	-25	-3,5
1717,736	-25	-3,454
1719,86	-25	-3,424
1721,978	-25,5	-3,367
1724,095	-25	-3,305
1726,207	-24,5	-3,21
1728,319	-25	-3,219
1730,443	-24	-3,125
1732,561	-21,5	-2,975
1734,685	-23,5	-2,871
1736,803	-22	-2,807
1738,92	-18,5	-2,654
1741,038	-16,5	-2,527
1743,156	-14,5	-2,362
1745,28	-12,5	-2,183
1747,398	-12	-2,12
1749,516	-9,5	-1,954
1751,64	-9	-1,846
1753,764	-7	-1,652
1755,881	-6	-1,524
1758,005	-6	-1,484
1760,123	-4,5	-1,304
1762,241	-4	-1,188
1764,359	-3	-1,054
1766,489	-1	-0,761
1768,607	-0,5	-0,66
1770,731	0	-0,487
1772,843	0	-0,327
1774,96	0,5	-0,233
1777,084	1	-0,16
1779,202	2	-0,1
1781,32	3	-0,069
1783,444	3,5	-0,048
1785,562	3,5	-0,041
1787,674	4	-0,026
1789,804	4	-0,016
1791,921	4	-0,012
1794,039	4	-0,008
1796,157	4	-0,006
1798,281	4	-0,004
1800,405	4	-0,002
1802,529	4	-0,002
1804,653	4	-0,001
1806,777	4	-0,001
1808,894	4	0
1811,012	4	-0,013
1813,13	4	-0,11
1815,26	4	-0,23
1817,378	4	-0,274
1819,496	3,5	-0,405
1821,62	3	-0,48
1823,738	1,5	-0,575
1825,855	1,5	-0,575
1827,973	0	-0,702
1830,085	-1	-0,767
1832,209	-1,5	-0,931
1834,333	-2	-1,067
1836,451	-2,5	-1,129
1838,575	-3	-1,233
1840,693	-3	-1,254
1842,823	-3,5	-1,304
1844,934	-3,5	-1,385
1847,052	-4	-1,51
1849,176	-4,5	-1,584
1851,294	-4	-1,557
1853,412	-4,5	-1,662
1855,53	-4,5	-1,684
1857,654	-4,5	-1,697
1859,772	-4,5	-1,725
1861,895	-5	-1,827
1864,019	-5,5	-1,873
1866,143	-6,5	-1,941
1868,261	-6,5	-1,946
1870,379	-7	-2,093
1872,497	-7	-2,088
1874,627	-7,5	-2,142
1876,745	-8,5	-2,233
1878,868	-9	-2,358
1880,992	-9,5	-2,398
1883,116	-10	-2,47
1885,234	-11	-2,558
1887,364	-12	-2,673
1889,486	-13,5	-2,798
1891,612	-14	-2,897
1893,73	-15	-3,02
1895,847	-16,5	-3,125
1897,977	-17,5	-3,255
1900,095	-19	-3,331
1902,213	-20,5	-3,387
1904,337	-21	-3,401
1906,461	-22	-3,412
1908,585	-22,5	-3,431
1910,709	-22,5	-3,437
1912,826	-23	-3,453
1914,95	-23,5	-3,468
1917,068	-24	-3,476
1919,192	-24	-3,48
1921,316	-24	-3,484
1923,44	-24	-3,487
1925,564	-24	-3,491
1927,682	-24	-3,492
1929,8	-24	-3,494
1931,917	-24	-3,495
1934,041	-24	-3,495
1936,159	-24	-3,496
1938,277	-24	-3,496
1940,395	-24	-3,497
1942,519	-24	-3,498
1944,637	-24	-3,498
1946,761	-24	-3,499
1948,884	-24	-3,5
1951,008	-24	-3,482
1953,126	-24	-3,43
1955,25	-24	-3,283
1957,368	-24	-3,234
1959,498	-22,5	-3,109
1961,622	-20,5	-2,951
1963,734	-21	-2,928
1965,851	-20	-2,88
1967,969	-19,5	-2,828
1970,087	-18	-2,733
1972,211	-17,5	-2,66
1974,329	-17	-2,644
1976,453	-16,5	-2,609
1978,571	-16,5	-2,578
1980,689	-15,5	-2,546
1982,807	-14,5	-2,457
1984,924	-14,5	-2,457
1987,042	-13,5	-2,388
1989,166	-12	-2,231
1991,29	-10	-2,048
1993,414	-7,5	-1,889
1995,538	-7,5	-1,828
1997,662	-6,5	-1,703
1999,786	-6	-1,658
2001,903	-6	-1,563
2004,015	-5	-1,566
2006,139	-5	-1,526
2008,251	-5,5	-1,477
2010,363	-4,5	-1,428
2012,487	-4	-1,328
2014,605	-3,5	-1,254
2016,723	-3	-1,128
2018,852	-1,5	-0,95
2020,97	-1,5	-0,824
2023,1	-0,5	-0,722
2025,212	-0,5	-0,757
2027,336	0	-0,684
2029,454	0	-0,517
2031,578	0,5	-0,4
2033,696	0,5	-0,401
2035,813	0,5	-0,384
2037,931	1	-0,354
2040,043	0,5	-0,286
2042,173	2	-0,158
2044,285	2	-0,131
2046,427	3	-0,067
2048,539	3	-0,079
2050,663	3,5	-0,061
2052,78	3,5	-0,045
2054,904	3,5	-0,037
2057,022	4	-0,03
2059,146	4	-0,018
2061,264	4	-0,015
2063,388	4,5	-0,013
2065,506	4	-0,012
2067,63	4	-0,01
2069,748	4,5	-0,01
2071,865	4	-0,008
2073,983	4,5	-0,008
2076,107	4,5	-0,006
2078,231	4,5	-0,004
2080,349	4,5	-0,003
2082,473	4	-0,002
2084,591	4	-0,001
2086,709	4,5	-0,001
2088,832	4	-0,001
2090,956	4,5	-0,001
2093,074	4,5	-0,001
2095,192	4	0
2097,31	4	-0,007
2099,428	4	-0,038
2101,558	4	-0,148
2103,676	4	-0,203
2105,805	3,5	-0,32
2107,923	3	-0,447
2110,047	1	-0,526
2112,171	0	-0,646
2114,295	0	-0,712
2116,413	-0,5	-0,771
2118,537	-1,5	-0,933
2120,655	-2	-1,061
2122,773	-2,5	-1,156
2124,896	-2,5	-1,255
2127,02	-3	-1,342
2129,138	-3	-1,369
2131,262	-3,5	-1,489
2133,38	-4	-1,574
2135,498	-4	-1,642
2137,628	-5	-1,808
2139,74	-5	-1,863
2141,857	-5	-1,879
2143,975	-5,5	-1,931
2146,099	-6	-2,036
2148,217	-6	-2,083
2150,341	-7	-2,145
2152,459	-7	-2,165
2154,601	-7,5	-2,248
2156,725	-9	-2,341
2158,842	-10,5	-2,495
2160,96	-10,5	-2,637
2163,09	-12	-2,751
2165,208	-13	-2,819
2167,326	-13,5	-2,851
2169,45	-14	-2,966
2171,568	-15	-3,03
2173,692	-15,5	-3,117
2175,809	-17	-3,244
2177,933	-18	-3,306
2180,045	-18	-3,313
2182,169	-19	-3,358
2184,287	-19,5	-3,374
2186,417	-19,5	-3,384
2188,535	-19,5	-3,393
2190,659	-18	-3,392
2192,782	-20	-3,402
2194,906	-20	-3,409
2197,018	-19	-3,391
2199,148	-20	-3,417
2201,266	-20,5	-3,42
2203,396	-20	-3,436
2205,52	-20,5	-3,442
2207,638	-19	-3,441
2209,762	-20	-3,459
2211,879	-21	-3,46
2213,991	-21	-3,468
2216,109	-21	-3,476
2218,239	-21	-3,484
2220,357	-20,5	-3,485
2222,475	-21	-3,482
2224,593	-21	-3,484
2226,711	-21	-3,486
2228,829	-21	-3,486
2230,952	-21	-3,487
2233,07	-20,5	-3,487
2235,194	-20	-3,487
2237,318	-20	-3,487
2239,436	-20	-3,49
2241,548	-20	-3,49
2243,672	-19,5	-3,493
2245,783	-19,5	-3,494
2247,907	-19,5	-3,496
2250,025	-19	-3,496
2252,143	-19	-3,497
2254,267	-18,5	-3,498
2256,379	-18,5	-3,498
2258,497	-18,5	-3,498
2260,621	-18	-3,499
2262,738	-18,5	-3,499
2264,856	-18	-3,499
2266,974	-18	-3,499
2269,092	-18	-3,5
2271,21	-18	-3,5
2273,328	-18	-3,485
2275,44	-17,5	-3,405
2277,558	-17,5	-3,454
2279,675	-17	-3,376
2281,793	-16,5	-3,343
2283,911	-16,5	-3,343
2286,035	-16,5	-3,222
2288,153	-15,5	-3,077
2290,271	-14	-2,965
2292,395	-11	-2,834
2294,507	-11	-2,8
2296,625	-10,5	-2,754
2298,748	-10	-2,714
2300,866	-9,5	-2,654
2302,984	-7,5	-2,518
2305,102	-7	-2,453
2307,22	-7	-2,475
2309,338	-6	-2,348
2311,462	-4,5	-2,169
2313,58	-4,5	-2,149
2315,697	-4,5	-2,149
2317,815	-4	-2,069
2319,933	-3	-1,974
2322,057	-2,5	-1,818
2324,175	-2	-1,684
2326,293	-1	-1,52
2328,417	-0,5	-1,438
2330,535	0	-1,294
2332,653	0	-1,188
2334,77	0	-1,104
2336,888	0	-0,983
2339	0	-0,938
2341,124	0,5	-0,839
2343,242	0,5	-0,786
2345,36	1	-0,629
2347,484	1	-0,609
2349,596	1	-0,585
2351,719	1	-0,539
2353,843	1,5	-0,52
2355,961	1,5	-0,457
2358,079	1,5	-0,388
2360,197	1,5	-0,299
2362,315	2,5	-0,218
2364,439	3	-0,165
2366,551	3	-0,176
2368,668	3	-0,147
2370,78	3,5	-0,105
2372,898	3,5	-0,092
2375,016	3,5	-0,084
2377,146	3,5	-0,064
2379,264	4	-0,049
2381,382	4	-0,04
2383,5	4	-0,043
2385,617	4	-0,034
2387,741	4,5	-0,033
2389,859	4	-0,031
2391,977	4,5	-0,022
2394,095	4,5	-0,023
2396,213	4,5	-0,018
2398,331	4,5	-0,015
2400,455	4,5	-0,012
2402,573	4,5	-0,009
2404,69	4,5	-0,01
2406,814	4,5	-0,007
2408,932	4,5	-0,006
2411,05	4,5	-0,007
2413,174	4,5	-0,005
2415,292	4,5	-0,005
2417,416	4,5	-0,004
2419,534	4,5	-0,004
2421,645	4,5	-0,005
2423,763	4,5	-0,003
2425,887	4,5	-0,002
2428,005	4,5	-0,002
2430,129	4,5	-0,001
2432,247	4,5	-0,001
2434,365	4,5	-0,001
2436,483	4,5	-0,002
2438,6	4,5	-0,002
2440,718	4,5	-0,001
2442,842	4,5	-0,055
2444,96	4,5	-0,024
2447,078	4,5	-0,001
2449,202	4,5	-0,06
2451,32	4,5	-0,133
2453,444	4,5	-0,232
2455,555	4,5	-0,272
2457,673	3,5	-0,406
2459,797	3	-0,491
2461,909	2	-0,539
2464,027	2	-0,56
2466,157	1	-0,7
2468,275	0,5	-0,763
2470,393	0	-0,79
2472,51	-0,5	-0,912
2474,628	-0,5	-0,975
2476,746	-0,5	-1,046
2478,87	-1	-1,147
2480,988	-1	-1,142
2483,112	-1	-1,166
2485,23	-1,5	-1,309
2487,348	-1,5	-1,331
2489,466	-1,5	-1,473
2491,583	-2	-1,467
2493,701	-2	-1,494
2495,819	-1,5	-1,504
2497,937	-2	-1,557
2500,055	-2	-1,56
2502,179	-1,5	-1,596
2504,291	-2	-1,603
2506,403	-2	-1,712
2508,52	-2,5	-1,843
2510,638	-2,5	-1,897
2512,756	-3	-1,955
2514,88	-2,5	-2,016
2516,998	-3	-2,021
2519,116	-3	-2,058
2521,234	-3	-2,111
2523,352	-3,5	-2,201
2525,469	-3,5	-2,275
2527,587	-4	-2,307
2529,705	-4,5	-2,498
2531,823	-4,5	-2,53
2533,941	-5	-2,625
2536,053	-5	-2,647
2538,177	-5	-2,767
2540,295	-6	-2,937
2542,412	-6	-2,979
2544,536	-6,5	-3,051
2546,654	-6,5	-3,051
2548,772	-7	-3,124
2550,896	-7,5	-3,179
2553,014	-8	-3,264
2555,132	-8,5	-3,312
2557,256	-9,5	-3,385
2559,374	-10	-3,404
2561,491	-10,5	-3,417
2563,615	-10,5	-3,434
2565,733	-11,5	-3,458
2567,851	-12	-3,473
2569,975	-12	-3,483
2572,093	-12	-3,485
2574,217	-12	-3,489
2576,335	-12	-3,492
2578,452	-12,5	-3,495
2580,576	-12,5	-3,497
2582,694	-12	-3,498
2584,812	-12	-3,498
2586,936	-12	-3,499
2589,054	-12	-3,499
2591,172	-12	-3,5
2593,296	-12	-3,348
2595,414	-11,5	-3,17
2597,531	-9,5	-3,092
2599,655	-9,5	-3,13
2601,773	-10	-3,066
2603,897	-6	-2,839
2606,015	-5,5	-2,749
2608,133	-5,5	-2,68
2610,257	-3,5	-2,545
2612,369	-4	-2,521
2614,486	-3	-2,394
2616,61	-2,5	-2,312
2618,728	-2	-2,169
2620,846	-1	-2,014
2622,97	-1	-1,915
2625,088	-0,5	-1,9
2627,206	-0,5	-1,773
2629,33	0	-1,543
2631,447	0	-1,436
2633,565	0	-1,319
2635,683	0	-1,262
2637,801	0,5	-1,234
2639,925	0,5	-1,072
2642,043	1	-0,934
2644,161	1	-0,914
2646,285	1,5	-0,735
2648,402	1,5	-0,607
2650,526	1,5	-0,456
2652,644	2	-0,371
2654,762	2	-0,26
2656,886	2,5	-0,181
2659,004	3	-0,141
2661,122	3	-0,106
2663,246	3,5	-0,09
2665,364	3,5	-0,098
2667,481	3,5	-0,068
2669,611	4	-0,054
2671,729	4	-0,037
2673,847	4	-0,028
2675,971	4,5	-0,022
2678,089	4,5	-0,015
2680,213	4,5	-0,011
2682,325	4,5	-0,013
2684,442	4,5	-0,012
2686,566	4,5	-0,009
2688,684	4,5	-0,007
2690,802	4,5	-0,005
2692,92	4,5	-0,005
2695,044	4,5	-0,003
2697,162	4,5	-0,002
2699,286	4,5	-0,001
2701,403	4,5	-0,001
2703,521	4,5	-0,002
2705,639	4,5	-0,001
2707,763	4,5	-0,001
2709,887	4,5	0
2712,011	4,5	0
2714,129	4,5	-0,003
2716,247	4,5	-0,137
2718,37	4	-0,334
2720,488	3,5	-0,429
2722,612	2,5	-0,55
2724,73	2	-0,566
2726,848	2	-0,571
2728,96	1,5	-0,683
2731,084	0,5	-0,792
2733,202	0	-0,9
2735,319	0	-1,016
2737,443	-0,5	-1,162
2739,561	-0,5	-1,273
2741,679	-0,5	-1,305
2743,803	-1	-1,425
2745,921	-0,5	-1,372
2748,045	-1	-1,47
2750,163	-1	-1,587
2752,28	-1	-1,618
2754,404	-1,5	-1,744
2756,528	-1,5	-1,753
2758,652	-1,5	-1,836
2760,776	-1,5	-1,871
2762,9	-1,5	-1,963
2765,018	-1,5	-1,984
2767,148	-2	-2,05
2769,266	-2	-2,033
2771,383	-2	-2,086
2773,513	-2	-2,241
2775,631	-2,5	-2,305
2777,749	-2,5	-2,373
2779,867	-3	-2,362
2781,985	-3	-2,383
2784,103	-3	-2,483
2786,227	-3	-2,512
2788,344	-3	-2,528
2790,474	-3	-2,588
2792,586	-3	-2,536
2794,71	-3	-2,565
2796,834	-3	-2,623
2798,958	-3	-2,642
2801,07	-3	-2,621
2803,194	-3	-2,676
2805,312	-3,5	-2,789
2807,429	-4	-2,874
2809,559	-4	-2,965
2811,677	-4	-3,018
2813,795	-4,5	-2,996
2815,919	-5	-3,127
2818,037	-5,5	-3,259
2820,155	-6	-3,286
2822,285	-6	-3,286
2824,402	-7,5	-3,363
2826,532	-7,5	-3,381
2828,65	-7	-3,363
2830,774	-6	-3,321
2832,892	-6	-3,318
2835,016	-6	-3,322
2837,134	-6,5	-3,347
2839,258	-6,5	-3,354
2841,375	-6,5	-3,361
2843,493	-6	-3,388
2845,611	-7,5	-3,405
2847,735	-8	-3,437
2849,859	-9	-3,462
2851,977	-9,5	-3,473
2854,101	-10	-3,482
2856,213	-10	-3,485
2858,342	-10	-3,49
2860,46	-10	-3,49
2862,584	-10	-3,493
2864,702	-10	-3,494
2866,826	-10	-3,496
2868,944	-10	-3,497
2871,074	-10	-3,498
2873,192	-10	-3,498
2875,315	-10	-3,499
2877,433	-10,5	-3,499
2879,551	-10	-3,499
2881,675	-10	-3,5
2883,799	-10	-3,5
2885,917	-10	-3,491
2888,035	-10	-3,466
2890,153	-10	-3,382
2892,283	-10	-3,38
2894,406	-10	-3,299
2896,53	-10	-3,365
2898,654	-10	-3,242
2900,772	-10	-3,21
2902,902	-10	-3,247
2905,02	-10	-3,38
2907,132	-10	-3,394
2909,256	-10	-3,305
2911,379	-10	-3,3
2913,497	-9,5	-3,236
2915,621	-8,5	-3,102
2917,745	-9	-3,12
2919,863	-10	-3,158
2921,987	-10	-3,293
2924,105	-10	-3,332
2926,223	-10	-3,491
2928,34	-10	-3,465
2930,464	-10	-3,5
2932,582	-10	-3,5
2934,706	-10	-3,5
2936,818	-10	-3,5
2938,942	-10	-3,485
2941,066	-10	-3,494
2943,184	-10	-3,492
2945,302	-10	-3,5
2947,431	-10	-3,444
2949,549	-10	-3,354
2951,661	-10	-3,353
2953,791	-10	-3,482
2955,909	-10	-3,5
2958,033	-10	-3,499
2960,157	-10	-3,495
2962,275	-10	-3,5
2964,392	-10	-3,5
2966,522	-10	-3,499
2968,64	-10	-3,5
2970,758	-10	-3,499
2972,882	-10	-3,5
2975	-10	-3,5
2977,118	-10	-3,5
2979,248	-10	-3,418
2981,365	-10	-3,338
2983,489	-10	-3,264
2985,619	-10	-3,293
2987,737	-10	-3,445
2989,855	-10	-3,491
2991,979	-10	-3,5
2994,097	-10,5	-3,5
2996,215	-10	-3,499
2998,338	-10	-3,499
3000,456	-10,5	-3,498
3002,58	-10	-3,498
3004,704	-10,5	-3,496
3006,822	-10	-3,495
3008,94	-10	-3,494
3011,064	-10	-3,493
3013,182	-10	-3,493
3015,305	-10	-3,489
3017,435	-10	-3,49
3019,553	-10	-3,481
3021,677	-9,5	-3,482
3023,795	-9,5	-3,466
3025,919	-9	-3,462
3028,037	-9	-3,444
3030,161	-9	-3,437
3032,279	-8,5	-3,429
3034,396	-9	-3,444
3036,514	-8	-3,413
3038,644	-6,5	-3,368
3040,762	-5,5	-3,288
3042,88	-4	-2,996
3045,004	-4	-3,021
3047,122	-4	-2,968
3049,24	-3,5	-2,94
3051,369	-4	-2,994
3053,493	-4,5	-3,082
3055,611	-4,5	-3,098
3057,741	-5	-3,21
3059,859	-5,5	-3,259
3061,983	-5,5	-3,311
3064,107	-6	-3,307
3066,231	-6,5	-3,346
3068,348	-6,5	-3,324
3070,472	-7	-3,37
3072,59	-7,5	-3,38
3074,714	-6	-3,32
3076,838	-6	-3,342
3078,962	-5,5	-3,363
3081,074	-6,5	-3,366
3083,198	-6	-3,308
3085,316	-5,5	-3,249
3087,439	-5	-3,239
3089,569	-6	-3,28
3091,687	-7	-3,362
3093,811	-7,5	-3,396
3095,935	-6,5	-3,357
3098,053	-5	-3,16
3100,171	-5	-3,231
3102,289	-4,5	-3,121
3104,412	-4	-3,018
3106,53	-5	-3,14
3108,648	-3,5	-2,852
3110,778	-3,5	-2,939
3112,896	-4	-2,97
3115,014	-2,5	-2,624
3117,138	-2	-2,4
3119,262	-2,5	-2,498
3121,379	-2	-2,338
3123,509	-2	-2,322
3125,627	-1,5	-1,982
3127,745	-1,5	-1,849
3129,869	-1	-1,646
3131,987	-1	-1,633
3134,111	-0,5	-1,366
3136,229	-1	-1,418
3138,352	-0,5	-1,187
3140,47	0	-0,9
3142,588	0	-0,819
3144,712	0	-0,775
3146,83	0,5	-0,668
3148,948	1	-0,592
3151,072	2,5	-0,489
3153,19	3,5	-0,324
3155,307	4	-0,136
3157,431	4	-0,143
3159,549	4	-0,093
3161,667	4	0
3163,791	4	-0,128
3165,909	4	-0,08
3168,027	4	-0,012
3170,127	4	-0,001