File: ensaios_Ciclicos/sem_TC/entrada/_7.txt
Time (s)	Load (N)	Displacement (mm)
0	-0,5	-0,036
2,231	-1,5	-0,564
4,397	-3	-0,644
6,557	-1,5	-0,651
8,717	-2	-0,566
10,877	0	-0,367
13,037	1	-0,245
15,197	1,5	-0,208
17,357	1,5	-0,154
19,516	1,5	-0,219
21,682	1,5	-0,092
23,842	1,5	-0,108
26,002	1,5	0
28,168	1,5	0
30,334	2	-0,018
32,494	2	-0,053
34,66	1,5	-0,249
36,819	1,5	-0,29
38,985	2	-0,274
41,151	1,5	-0,274
43,317	0,5	-0,42
45,483	0,5	-0,426
47,649	1,5	-0,4
49,815	1	-0,362
51,981	0,5	-0,432
54,146	0,5	-0,476
56,306	1	-0,425
58,466	1,5	-0,394
60,626	1,5	-0,36
62,792	1,5	-0,316
64,952	2,5	-0,154
67,112	2,5	-0,001
69,277	2,5	0
71,449	2	0
73,621	2,5	-0,012
75,787	2,5	0
77,953	3	0
80,125	2,5	0
82,291	2,5	-0,004
84,451	2,5	0
86,622	2,5	0
88,794	2,5	0
90,966	2,5	0
93,132	2,5	0
95,304	2,5	0
97,47	2,5	-0,005
99,636	3	0
101,802	2,5	0
103,962	2,5	-0,001
106,121	3	-0,001
108,293	3	-0,001
110,453	2,5	-0,001
112,625	3	-0,001
114,791	3	-0,001
116,951	3	-0,002
119,111	3	-0,002
121,271	3	-0,002
123,43	3	-0,003
125,602	3	-0,004
127,78	3	-0,004
129,952	3	-0,006
132,124	3	-0,008
134,284	3	-0,018
136,456	3	-0,02
138,628	3	-0,021
140,788	2,5	-0,042
142,947	1,5	-0,082
145,107	1	-0,111
147,273	0,5	-0,135
149,433	0	-0,163
151,599	-0,5	-0,209
153,771	0	-0,218
155,937	0	-0,203
158,102	-1	-0,269
160,262	-1,5	-0,324
162,422	-3	-0,449
164,588	-3	-0,528
166,76	-4	-0,588
168,932	-4	-0,621
171,104	-3,5	-0,612
173,264	-4,5	-0,732
175,424	-6	-0,942
177,589	-6,5	-0,969
179,755	-8,5	-1,118
181,915	-9,5	-1,22
184,087	-10,5	-1,319
186,253	-10,5	-1,313
188,413	-12	-1,433
190,585	-11,5	-1,481
192,756	-13,5	-1,564
194,934	-13	-1,561
197,1	-14	-1,609
199,272	-13	-1,563
201,432	-15	-1,677
203,592	-15	-1,786
205,77	-14,5	-1,738
207,93	-16	-1,862
210,108	-16,5	-1,876
212,273	-17	-1,897
214,439	-18,5	-1,982
216,611	-18,5	-2,031
218,789	-19	-2,072
220,955	-20	-2,14
223,127	-19,5	-2,115
225,299	-20	-2,128
227,465	-19	-2,144
229,624	-20,5	-2,264
231,796	-21,5	-2,318
233,974	-21,5	-2,332
236,146	-22	-2,44
238,318	-25	-2,644
240,496	-27	-2,789
242,668	-32	-3,139
244,84	-32,5	-3,426
247,011	-32	-3,5
249,189	-32,5	-3,499
251,367	-32,5	-3,498
253,545	-32	-3,499
255,705	-32	-3,498
257,877	-32	-3,494
260,037	-32	-3,491
262,202	-32	-3,478
264,368	-31	-3,456
266,528	-30,5	-3,445
268,688	-29	-3,409
270,86	-29,5	-3,41
273,038	-30	-3,417
275,21	-29	-3,409
277,388	-28	-3,382
279,553	-28	-3,39
281,731	-26	-3,322
283,897	-24,5	-3,168
286,063	-23	-3,025
288,235	-22,5	-3,067
290,419	-23,5	-3,046
292,591	-22,5	-3,057
294,763	-23,5	-3,08
296,928	-20	-2,798
299,088	-17,5	-2,551
301,254	-18	-2,54
303,432	-19	-2,707
305,604	-17,5	-2,526
307,776	-16,5	-2,427
309,942	-15	-2,311
312,114	-15	-2,241
314,285	-14	-2,239
316,451	-12,5	-2,117
318,629	-13	-2,157
320,801	-10,5	-1,856
322,967	-8,5	-1,697
325,139	-9,5	-1,733
327,311	-8	-1,652
329,477	-8,5	-1,652
331,648	-9	-1,773
333,82	-8,5	-1,654
335,992	-8	-1,542
338,164	-5	-1,157
340,336	-4	-0,942
342,508	-4,5	-1,069
344,68	-4,5	-1,056
346,858	-4,5	-1,097
349,023	-4,5	-1,139
351,183	-4,5	-1,098
353,343	-4,5	-1,042
355,515	-4,5	-1,067
357,693	-5	-1,111
359,853	-4,5	-0,997
362,019	-3,5	-0,944
364,185	-2,5	-0,866
366,356	-3,5	-0,916
368,528	-1,5	-0,83
370,7	-2	-0,812
372,872	-1	-0,694
375,032	-1	-0,696
377,204	-0,5	-0,695
379,382	2,5	-0,387
381,548	3,5	0
383,713	3,5	0
385,885	3,5	0
388,057	3,5	0
390,223	3,5	-0,001
392,395	3,5	-0,001
394,567	3	-0,001
396,739	3,5	-0,002
398,911	3,5	-0,002
401,083	3,5	-0,002
403,26	3,5	-0,001
405,432	3,5	-0,002
407,604	3,5	-0,003
409,782	3,5	-0,002
411,96	3,5	-0,003
414,126	3,5	-0,014
416,298	3	-0,017
418,47	3,5	-0,012
420,629	3	-0,018
422,795	3	-0,018
424,961	3	-0,023
427,133	3	-0,022
429,293	2	-0,037
431,459	2	-0,061
433,631	3	-0,054
435,803	2,5	-0,055
437,974	2,5	-0,068
440,134	2	-0,066
442,3	0	-0,162
444,472	1	-0,125
446,65	1	-0,152
448,81	1,5	-0,128
450,97	0	-0,256
453,142	1	-0,132
455,316	0,5	-0,164
457,479	0	-0,21
459,657	1	-0,113
461,829	1,5	-0,1
463,995	2	-0,068
466,167	2	-0,092
468,333	1,5	-0,091
470,511	2,5	-0,054
472,682	2,5	-0,054
474,854	1	-0,145
477,026	2	-0,101
479,204	1,5	-0,104
481,382	1,5	-0,108
483,554	1,5	-0,104
485,726	2,5	-0,081
487,898	2	-0,08
490,075	1	-0,16
492,247	1,5	-0,158
494,419	1,5	-0,112
496,597	2	-0,088
498,793	3	-0,04
500,977	3,5	-0,028
503,149	3	-0,034
505,327	3	-0,036
507,498	3	-0,04
509,67	3	-0,027
511,848	3,5	-0,022
514,02	3,5	-0,02
516,18	3,5	-0,033
518,358	3,5	-0,02
520,53	3,5	-0,022
522,714	3,5	-0,017
524,885	3,5	-0,012
527,051	3,5	-0,02
529,223	3,5	-0,026
531,401	3	-0,049
533,585	2,5	-0,079
535,751	2,5	-0,069
537,923	2,5	-0,088
540,089	1,5	-0,127
542,26	0,5	-0,2
544,426	0,5	-0,196
546,604	1	-0,173
548,776	1,5	-0,105
550,948	1,5	-0,118
553,126	1,5	-0,104
555,31	3	-0,066
557,476	3	-0,053
559,653	3	-0,049
561,831	3	-0,049
564,009	3,5	-0,032
566,187	3,5	-0,026
568,359	3,5	-0,024
570,537	3,5	-0,02
572,709	3,5	-0,022
574,875	3	-0,035
577,041	3,5	-0,034
579,218	3,5	-0,027
581,39	3,5	-0,035
583,562	3,5	-0,028
585,728	3,5	-0,028
587,894	3,5	-0,022
590,078	3,5	-0,021
592,25	3,5	-0,024
594,427	3,5	-0,031
596,593	3	-0,038
598,765	3	-0,046
600,931	3	-0,047
603,103	3	-0,053
605,275	2,5	-0,052
607,453	2,5	-0,058
609,619	3	-0,06
611,791	2,5	-0,068
613,968	2,5	-0,062
616,134	2	-0,086
618,3	1,5	-0,135
620,466	1,5	-0,113
622,638	1	-0,168
624,798	0	-0,281
626,976	1	-0,228
629,154	0,5	-0,226
631,325	0	-0,304
633,503	0	-0,376
635,675	-0,5	-0,452
637,847	-1	-0,5
640,019	-1	-0,55
642,197	-0,5	-0,426
644,363	-0,5	-0,384
646,54	0	-0,318
648,712	0	-0,352
650,878	0	-0,325
653,044	-0,5	-0,365
655,21	-1,5	-0,446
657,382	-1	-0,458
659,554	-1	-0,454
661,726	-1	-0,386
663,897	-0,5	-0,383
666,063	-1,5	-0,393
668,235	-0,5	-0,405
670,407	-1	-0,402
672,573	-0,5	-0,438
674,745	-1	-0,425
676,911	-1	-0,504
679,083	-1,5	-0,542
681,243	-3	-0,726
683,414	-2,5	-0,706
685,598	-2	-0,615
687,77	-2,5	-0,74
689,936	-3	-0,792
692,108	-3,5	-0,81
694,274	-4	-0,932
696,446	-5,5	-1,06
698,624	-5	-1,044
700,789	-4,5	-1,079
702,955	-5	-1,085
705,127	-6	-1,135
707,299	-6,5	-1,22
709,477	-6	-1,234
711,643	-8	-1,369
713,803	-10,5	-1,53
715,981	-10	-1,619
718,165	-10	-1,592
720,336	-10	-1,636
722,508	-10	-1,66
724,674	-12	-1,727
726,846	-11,5	-1,708
729,018	-11	-1,714
731,184	-12	-1,81
733,362	-12	-1,76
735,527	-10,5	-1,734
737,693	-12	-1,823
739,859	-14	-1,971
742,025	-14,5	-1,981
744,191	-14	-2,002
746,363	-16,5	-2,154
748,535	-15	-2,095
750,701	-17,5	-2,244
752,872	-18,5	-2,364
755,038	-19,5	-2,453
757,204	-20,5	-2,516
759,376	-20	-2,502
761,548	-22	-2,764
763,708	-23,5	-2,862
765,898	-24	-2,865
768,064	-26	-2,955
770,23	-28,5	-3,158
772,395	-28	-3,109
774,567	-28	-3,147
776,739	-28	-3,106
778,911	-28,5	-3,162
781,077	-28,5	-3,13
783,243	-29	-3,238
785,415	-29	-3,305
787,592	-28,5	-3,166
789,758	-28,5	-3,182
791,93	-28,5	-3,206
794,102	-27,5	-3,061
796,274	-25	-2,95
798,449	-24	-2,936
800,612	-24,5	-2,947
802,784	-23,5	-2,895
804,955	-24,5	-2,913
807,115	-26	-3,012
809,287	-25	-2,996
811,459	-26	-2,972
813,631	-25,5	-2,979
815,797	-25	-2,946
817,963	-23	-2,871
820,135	-23,5	-2,851
822,306	-22	-2,764
824,466	-22	-2,75
826,638	-22,5	-2,736
828,81	-21	-2,679
830,988	-21	-2,676
833,16	-21,5	-2,631
835,332	-21	-2,638
837,498	-21	-2,616
839,657	-21	-2,62
841,835	-20,5	-2,548
844,007	-19	-2,464
846,179	-19,5	-2,471
848,345	-18	-2,385
850,517	-18,5	-2,38
852,683	-17,5	-2,365
854,855	-17,5	-2,308
857,021	-16	-2,292
859,192	-16	-2,199
861,364	-14,5	-2,094
863,53	-14,5	-2,066
865,708	-13	-1,964
867,874	-13	-1,958
870,046	-12,5	-1,944
872,218	-12,5	-1,865
874,395	-12	-1,809
876,555	-11,5	-1,786
878,733	-10,5	-1,7
880,905	-10,5	-1,776
883,071	-10,5	-1,722
885,237	-10	-1,69
887,403	-9	-1,663
889,575	-9	-1,569
891,734	-9	-1,55
893,9	-7	-1,444
896,072	-7	-1,366
898,238	-5	-1,232
900,416	-5	-1,119
902,594	-4,5	-1,047
904,766	-4	-1,017
906,926	-4	-1,03
909,098	-3	-0,915
911,269	-3	-0,885
913,435	-2,5	-0,818
915,607	-3	-0,817
917,779	-2	-0,739
919,945	-2,5	-0,704
922,111	-2	-0,68
924,283	-1,5	-0,623
926,46	-0,5	-0,525
928,626	-1	-0,498
930,798	-0,5	-0,5
932,964	-1	-0,51
935,13	-1	-0,493
937,308	-0,5	-0,427
939,474	0	-0,299
941,646	0	-0,29
943,812	0	-0,305
945,983	0,5	-0,215
948,149	0,5	-0,192
950,321	1	-0,166
952,487	2	-0,099
954,665	1,5	-0,102
956,837	3	-0,075
959,003	2,5	-0,074
961,175	3	-0,065
963,352	3,5	-0,047
965,53	3,5	-0,032
967,696	3,5	-0,024
969,868	3,5	-0,019
972,034	3,5	-0,017
974,206	3,5	-0,015
976,378	3,5	-0,011
978,544	3,5	-0,007
980,715	3,5	-0,005
982,893	3,5	-0,004
985,053	3,5	-0,004
987,231	3,5	-0,003
989,409	3,5	-0,002
991,575	3,5	-0,002
993,747	3,5	-0,001
995,913	3,5	-0,001
998,09	3,5	-0,001
1000,262	3,5	-0,001
1002,44	3,5	0
1004,606	3,5	0
1006,784	3,5	-0,181
1008,95	3	-0,254
1011,128	2,5	-0,45
1013,3	1,5	-0,506
1015,471	0	-0,617
1017,643	0	-0,691
1019,809	-1,5	-0,712
1021,981	-1,5	-0,806
1024,153	-2	-0,831
1026,331	-3	-0,913
1028,497	-2,5	-0,913
1030,663	-2	-0,892
1032,822	-2,5	-0,937
1034,994	-2,5	-0,942
1037,166	-2,5	-1,003
1039,332	-3	-1,062
1041,498	-3	-1,078
1043,664	-3	-1,096
1045,842	-3,5	-1,208
1048,014	-4	-1,301
1050,179	-5	-1,468
1052,351	-6	-1,551
1054,529	-6,5	-1,633
1056,695	-5,5	-1,638
1058,873	-7,5	-1,768
1061,039	-7	-1,758
1063,211	-7,5	-1,815
1065,383	-7,5	-1,882
1067,548	-9	-1,957
1069,72	-9	-2,03
1071,886	-10,5	-2,146
1074,058	-11	-2,236
1076,23	-11,5	-2,262
1078,396	-12	-2,321
1080,562	-11,5	-2,332
1082,728	-12	-2,372
1084,899	-12,5	-2,42
1087,077	-14,5	-2,582
1089,243	-13	-2,487
1091,415	-12,5	-2,417
1093,587	-14,5	-2,542
1095,753	-15	-2,65
1097,925	-17,5	-2,812
1100,085	-17,5	-2,84
1102,262	-17,5	-2,923
1104,428	-18	-2,901
1106,6	-17,5	-3,027
1108,772	-21	-3,181
1110,938	-21,5	-3,269
1113,116	-21	-3,341
1115,294	-24	-3,397
1117,46	-25,5	-3,427
1119,631	-26,5	-3,442
1121,797	-26	-3,456
1123,969	-27	-3,471
1126,141	-27	-3,474
1128,307	-27	-3,479
1130,485	-27	-3,486
1132,651	-27,5	-3,489
1134,823	-27	-3,492
1136,988	-27,5	-3,493
1139,16	-27,5	-3,494
1141,338	-27,5	-3,496
1143,504	-27,5	-3,496
1145,676	-27,5	-3,496
1147,842	-27,5	-3,497
1150,014	-27,5	-3,497
1152,186	-27,5	-3,497
1154,351	-27,5	-3,497
1156,529	-27	-3,498
1158,695	-27,5	-3,498
1160,867	-27,5	-3,499
1163,039	-27,5	-3,499
1165,211	-27	-3,499
1167,377	-27	-3,499
1169,543	-27,5	-3,499
1171,714	-27	-3,499
1173,88	-27	-3,5
1176,052	-27	-3,5
1178,224	-27,5	-3,439
1180,396	-27,5	-3,402
1182,568	-27,5	-3,343
1184,734	-27,5	-3,248
1186,906	-27	-3,221
1189,071	-27	-3,247
1191,243	-26,5	-3,157
1193,415	-27	-3,181
1195,587	-26	-3,116
1197,753	-27	-3,496
1199,919	-27,5	-3,497
1202,091	-27	-3,355
1204,263	-27	-3,26
1206,435	-27	-3,212
1208,6	-27	-3,202
1210,778	-24,5	-3,039
1212,944	-24,5	-3,017
1215,11	-26	-3,066
1217,288	-23,5	-2,92
1219,454	-22,5	-2,849
1221,626	-22	-2,819
1223,798	-21	-2,778
1225,969	-20	-2,656
1228,135	-20,5	-2,636
1230,307	-18,5	-2,52
1232,479	-16	-2,356
1234,645	-16	-2,346
1236,817	-15	-2,294
1238,989	-15	-2,22
1241,161	-15,5	-2,314
1243,332	-16	-2,283
1245,498	-14,5	-2,23
1247,676	-13,5	-2,159
1249,848	-13,5	-2,1
1252,02	-11,5	-1,948
1254,186	-10,5	-1,874
1256,352	-11	-1,852
1258,524	-9	-1,725
1260,695	-7,5	-1,589
1262,855	-7,5	-1,576
1265,021	-7	-1,517
1267,205	-5,5	-1,316
1269,371	-4,5	-1,124
1271,543	-3,5	-1,04
1273,709	-3,5	-0,98
1275,875	-3	-0,964
1278,046	-3	-0,892
1280,218	-2	-0,804
1282,39	-1,5	-0,73
1284,55	-2	-0,744
1286,728	-1,5	-0,674
1288,894	-1	-0,666
1291,066	-1,5	-0,679
1293,232	-1	-0,614
1295,403	-1	-0,57
1297,575	-0,5	-0,49
1299,747	0	-0,391
1301,919	0	-0,342
1304,079	0	-0,365
1306,251	0	-0,345
1308,411	0	-0,374
1310,583	0	-0,365
1312,754	0	-0,292
1314,926	0	-0,31
1317,092	0	-0,351
1319,264	0	-0,306
1321,436	0	-0,301
1323,602	0,5	-0,241
1325,774	1	-0,189
1327,94	1,5	-0,111
1330,117	2,5	-0,088
1332,283	3	-0,064
1334,461	3,5	-0,043
1336,627	3,5	-0,037
1338,805	3,5	-0,023
1340,971	4	-0,018
1343,143	4	-0,014
1345,315	4	-0,013
1347,48	4	-0,01
1349,646	4	-0,008
1351,812	3,5	-0,008
1353,99	4	-0,004
1356,156	4	-0,003
1358,328	4	-0,002
1360,494	4	-0,002
1362,672	4	-0,001
1364,837	4	-0,001
1367,009	4	-0,001
1369,175	4	-0,001
1371,347	4	-0,001
1373,513	4	-0,001
1375,685	4	0
1377,863	4	0
1380,029	4	0
1382,206	4	-0,078
1384,372	4	-0,248
1386,544	4	-0,108
1388,704	4	-0,076
1390,876	3,5	-0,164
1393,048	4	-0,114
1395,22	3,5	-0,251
1397,386	3,5	-0,251
1399,557	4	-0,244
1401,723	3,5	-0,178
1403,889	3,5	-0,148
1406,055	3,5	-0,143
1408,227	4	-0,107
1410,399	3,5	-0,203
1412,571	4	-0,225
1414,731	4	-0,192
1416,897	4	-0,253
1419,074	4	-0,272
1421,24	3,5	-0,316
1423,406	3	-0,343
1425,578	3	-0,347
1427,744	2	-0,416
1429,91	2	-0,466
1432,082	2,5	-0,49
1434,248	1,5	-0,486
1436,419	1,5	-0,549
1438,591	1	-0,562
1440,763	0	-0,592
1442,935	0,5	-0,596
1445,107	0	-0,616
1447,279	0	-0,658
1449,451	0	-0,608
1451,617	1	-0,576
1453,788	0	-0,617
1455,96	1,5	-0,546
1458,132	1,5	-0,508
1460,298	2,5	-0,455
1462,47	1,5	-0,517
1464,636	1,5	-0,556
1466,808	1	-0,542
1468,974	1,5	-0,516
1471,145	0	-0,611
1473,311	1,5	-0,542
1475,483	0	-0,572
1477,661	0	-0,617
1479,827	0	-0,612
1481,999	1,5	-0,551
1484,171	1,5	-0,508
1486,331	2	-0,467
1488,502	1,5	-0,466
1490,674	3	-0,363
1492,84	3	-0,33
1495,012	4	-0,28
1497,184	3,5	-0,284
1499,35	3,5	-0,29
1501,522	3	-0,316
1503,694	3,5	-0,32
1505,865	3,5	-0,28
1508,037	4	-0,207
1510,209	3,5	-0,155
1512,375	4	-0,137
1514,547	4	-0,259
1516,713	3,5	-0,32
1518,897	3,5	-0,374
1521,069	1,5	-0,516
1523,234	2,5	-0,458
1525,406	3	-0,392
1527,578	1,5	-0,466
1529,744	2,5	-0,418
1531,916	2	-0,506
1534,088	3	-0,356
1536,26	2	-0,424
1538,432	3	-0,391
1540,603	1,5	-0,517
1542,775	0	-0,595
1544,941	0	-0,628
1547,107	0	-0,697
1549,273	0	-0,676
1551,451	0	-0,651
1553,617	-2	-0,892
1555,789	-1,5	-0,895
1557,954	-2	-0,926
1560,126	-2,5	-1,048
1562,292	-2,5	-1,139
1564,464	-3	-1,153
1566,636	-3	-1,216
1568,808	-3,5	-1,288
1570,98	-3,5	-1,277
1573,152	-3	-1,264
1575,317	-3,5	-1,271
1577,483	-3,5	-1,297
1579,649	-3,5	-1,382
1581,821	-4	-1,418
1583,987	-4	-1,414
1586,165	-4,5	-1,521
1588,325	-4,5	-1,492
1590,497	-5	-1,57
1592,662	-5	-1,608
1594,834	-5,5	-1,654
1597	-6	-1,756
1599,166	-6	-1,866
1601,332	-7	-1,896
1603,504	-7	-1,951
1605,676	-8	-1,997
1607,842	-8	-2,035
1610,013	-7,5	-1,959
1612,179	-8	-2,071
1614,357	-8	-2,046
1616,523	-8	-2,052
1618,701	-9	-2,176
1620,861	-8,5	-2,131
1623,039	-9	-2,175
1625,199	-9	-2,156
1627,364	-9	-2,22
1629,53	-9,5	-2,178
1631,696	-7,5	-2,088
1633,862	-7	-2,035
1636,028	-7	-2,052
1638,188	-6	-1,942
1640,36	-7,5	-2,047
1642,526	-7	-2,021
1644,697	-7	-1,982
1646,869	-7,5	-2,018
1649,035	-7,5	-2,092
1651,219	-7	-2,023
1653,391	-7,5	-2,001
1655,563	-7,5	-2,036
1657,735	-7,5	-2,072
1659,907	-7,5	-2,06
1662,078	-7,5	-2,027
1664,25	-6,5	-1,94
1666,422	-7	-1,986
1668,594	-6,5	-2,011
1670,76	-8	-2,113
1672,932	-8,5	-2,202
1675,104	-7,5	-2,111
1677,282	-10	-2,306
1679,454	-10	-2,36
1681,619	-10	-2,424
1683,785	-8	-2,185
1685,957	-8,5	-2,216
1688,123	-7,5	-2,136
1690,295	-8,5	-2,167
1692,467	-9,5	-2,256
1694,633	-9,5	-2,261
1696,805	-8,5	-2,217
1698,97	-8,5	-2,165
1701,142	-6,5	-1,967
1703,308	-7,5	-2,046
1705,48	-7	-2,06
1707,646	-6	-1,822
1709,824	-6	-1,93
1711,99	-5	-1,696
1714,155	-5	-1,734
1716,327	-6	-1,834
1718,493	-5,5	-1,786
1720,665	-6	-1,88
1722,831	-5	-1,753
1725,003	-5,5	-1,821
1727,169	-5,5	-1,715
1729,341	-4,5	-1,772
1731,506	-6,5	-1,921
1733,672	-5,5	-1,831
1735,844	-6,5	-1,915
1738,01	-6	-1,925
1740,182	-4	-1,568
1742,348	-3	-1,324
1744,52	-4	-1,502
1746,686	-3,5	-1,354
1748,852	-3	-1,291
1751,017	-3	-1,228
1753,189	-2	-1,04
1755,361	-2	-1,076
1757,533	-2,5	-1,127
1759,699	-1,5	-0,984
1761,865	-2	-1,011
1764,037	-2	-1,031
1766,208	-2	-1,04
1768,38	-2	-1,066
1770,546	-1,5	-0,933
1772,718	-2	-1,086
1774,896	-2	-1,056
1777,074	-2,5	-1,152
1779,24	-3	-1,302
1781,412	-3	-1,21
1783,578	-2,5	-1,132
1785,743	-2	-0,966
1787,909	0,5	-0,62
1790,081	3	-0,342
1792,253	4	-0,405
1794,419	4	-0,335
1796,591	4	-0,208
1798,757	4	-0,231
1800,929	3	-0,376
1803,1	3,5	-0,277
1805,272	3	-0,48
1807,438	0,5	-0,57
1809,604	0,5	-0,607
1811,776	0	-0,698
1813,942	0	-0,746
1816,12	-0,5	-0,716
1818,286	1	-0,566
1820,457	2,5	-0,516
1822,623	4	-0,232
1824,795	4	-0,186
1826,961	3,5	-0,264
1829,127	3,5	-0,35
1831,299	3	-0,356
1833,471	3,5	-0,375
1835,643	3	-0,436
1837,808	2,5	-0,454
1839,98	3	-0,361
1842,152	4	-0,274
1844,318	4	-0,096
1846,484	4	-0,095
1848,65	4	-0,059
1850,822	4	-0,022
1852,988	4	0
1855,165	4	0
1857,337	4	-0,015
1859,509	4	-0,018
1861,681	4	-0,036
1863,847	4	-0,007
1866,013	4	0
1868,185	4	0
1870,351	4	-0,031
1872,516	4	-0,137
1874,688	4	-0,216
1876,854	4	-0,243
1879,026	4	-0,241
1881,192	4	-0,258
1883,358	4	-0,152
1885,53	4	-0,268
1887,696	3,5	-0,306
1889,873	3,5	-0,319
1892,039	4	-0,078
1894,205	4	-0,181
1896,371	4	-0,217
1898,549	4	-0,003
1900,715	4	-0,001
1902,881	4	0
1905,053	4	0
1907,218	4	0
1909,396	4	-0,023
1911,562	4	-0,103
1913,728	4	-0,148
1915,894	4	0
1918,066	4	-0,018
1920,238	4	-0,137
1922,41	3,5	-0,325
1924,575	3	-0,352
1926,741	3	-0,412
1928,913	2,5	-0,448
1931,079	1,5	-0,527
1933,239	2	-0,492
1935,417	1,5	-0,627
1937,583	-0,5	-0,793
1939,749	-1	-0,942
1941,92	-2	-1,052
1944,086	-2	-1,101
1946,264	-2,5	-1,22
1948,43	-3	-1,257
1950,602	-3	-1,287
1952,768	-3	-1,324
1954,934	-3,5	-1,351
1957,106	-3	-1,435
1959,277	-4	-1,529
1961,443	-4	-1,615
1963,609	-5	-1,748
1965,787	-5,5	-1,962
1967,953	-4,5	-1,735
1970,125	-4	-1,579
1972,291	-4,5	-1,654
1974,457	-4	-1,552
1976,629	-3,5	-1,572
1978,794	-3,5	-1,45
1980,96	-3	-1,387
1983,132	-3	-1,354
1985,298	-2,5	-1,163
1987,47	-2,5	-1,216
1989,636	-2	-1,109
1991,802	-1,5	-0,96
1993,967	-2	-0,95
1996,133	-1,5	-0,95
1998,305	-1,5	-1,022
2000,471	-2,5	-1,161
2002,655	-3	-1,3
2004,821	-3	-1,422
2006,987	-3	-1,365
2009,153	-2,5	-1,137
2011,319	-2,5	-1,18
2013,484	-2	-1,086
2015,65	-3	-1,232
2017,822	-2,5	-1,206
2019,988	-2,5	-1,221
2022,169	-2,5	-1,154
2024,332	-2	-1,054
2026,498	-1,5	-1,073
2028,664	-1,5	-1,043
2030,835	-2	-1,053
2033,007	-2	-1,051
2035,173	-2	-1,062
2037,339	-1,5	-0,966
2039,505	-1,5	-0,882
2041,671	-1	-0,808
2043,843	0	-0,748
2046,015	0	-0,752
2048,18	0,5	-0,672
2050,346	0	-0,672
2052,512	0	-0,662
2054,678	2	-0,516
2056,844	0	-0,604
2059,01	0	-0,642
2061,176	0	-0,706
2063,342	0	-0,712
2065,513	-0,5	-0,759
2067,679	1,5	-0,572
2069,845	0	-0,701
2072,017	-0,5	-0,79
2074,183	-0,5	-0,79
2076,355	-0,5	-0,836
2078,515	1	-0,604
2080,681	2	-0,615
2082,852	2	-0,507
2085,018	1	-0,61
2087,19	1	-0,602
2089,356	0,5	-0,671
2091,528	0	-0,745
2093,694	1,5	-0,681
2095,86	0	-0,825
2098,032	-1,5	-1,008
2100,191	-1,5	-1,071
2102,357	-2	-1,236
2104,523	-2,5	-1,326
2106,683	-3	-1,478
2108,855	-3,5	-1,695
2111,027	-4,5	-1,83
2113,199	-5	-1,99
2115,365	-6	-2,116
2117,524	-6	-2,14
2119,696	-5,5	-2,06
2121,862	-5,5	-2,085
2124,028	-5,5	-2,112
2126,194	-5,5	-2,081
2128,36	-5	-2,087
2130,532	-5,5	-2,192
2132,698	-5	-2,22
2134,863	-6	-2,379
2137,029	-7,5	-2,613
2139,201	-9	-2,739
2141,367	-9	-2,792
2143,539	-9,5	-2,833
2145,705	-8	-2,686
2147,871	-7	-2,548
2150,043	-8,5	-2,748
2152,208	-9	-2,866
2154,38	-9	-2,837
2156,546	-9	-2,891
2158,712	-8,5	-2,86
2160,878	-10	-2,977
2163,038	-8,5	-2,756
2165,21	-9	-2,85
2167,376	-8	-2,776
2169,541	-9	-2,909
2171,713	-9,5	-3,046
2173,885	-10,5	-3,15
2176,057	-14	-3,36
2178,223	-14,5	-3,397
2180,395	-15	-3,43
2182,561	-15	-3,448
2184,727	-15	-3,453
2186,892	-14	-3,399
2189,052	-14,5	-3,418
2191,218	-15	-3,443
2193,384	-15,5	-3,465
2195,556	-16	-3,472
2197,728	-15	-3,444
2199,894	-16	-3,473
2202,072	-16	-3,477
2204,237	-16,5	-3,481
2206,409	-16,5	-3,486
2208,575	-16,5	-3,484
2210,747	-15,5	-3,47
2212,913	-16	-3,474
2215,079	-15	-3,446
2217,251	-16	-3,47
2219,423	-16,5	-3,481
2221,595	-15	-3,442
2223,766	-14,5	-3,425
2225,932	-15	-3,429
2228,104	-15	-3,444
2230,27	-15	-3,447
2232,436	-15	-3,464
2234,614	-14,5	-3,419
2236,78	-15	-3,436
2238,957	-15	-3,435
2241,123	-13	-3,378
2243,301	-12	-3,34
2245,473	-10,5	-3,175
2247,645	-11	-3,3
2249,811	-13,5	-3,382
2251,971	-12	-3,302
2254,137	-10	-3,123
2256,303	-10	-3,197
2258,48	-10,5	-3,251
2260,646	-10	-3,168
2262,812	-11	-3,243
2264,984	-8,5	-3,007
2267,15	-8	-2,843
2269,322	-9,5	-3,145
2271,488	-10,5	-3,282
2273,66	-9	-3,058
2275,831	-9,5	-3,1
2277,997	-8,5	-2,999
2280,169	-9,5	-3,104
2282,347	-8	-2,956
2284,519	-9,5	-3,152
2286,685	-8	-2,962
2288,851	-9	-3,004
2291,023	-8	-2,96
2293,188	-9	-3,002
2295,354	-7,5	-2,87
2297,526	-6,5	-2,8
2299,692	-8,5	-2,981
2301,864	-7,5	-2,962
2304,03	-9,5	-3,086
2306,196	-10	-3,214
2308,374	-10	-3,172
2310,539	-10	-3,225
2312,711	-10	-3,193
2314,877	-9,5	-3,198
2317,043	-8,5	-3,06
2319,221	-6,5	-2,819
2321,393	-6,5	-2,732
2323,559	-6	-2,69
2325,731	-6,5	-2,714
2327,896	-6,5	-2,71
2330,068	-6,5	-2,661
2332,234	-6	-2,607
2334,406	-6	-2,649
2336,572	-6	-2,666
2338,744	-6,5	-2,786
2340,916	-7,5	-2,847
2343,088	-9	-3,012
2345,259	-9,5	-3,201
2347,425	-12	-3,314
2349,597	-9,5	-3,184
2351,763	-9,5	-3,195
2353,935	-9	-3,118
2356,107	-9	-3,033
2358,279	-7	-2,813
2360,451	-7,5	-2,87
2362,616	-6,5	-2,866
2364,782	-7	-2,839
2366,96	-7,5	-2,968
2369,126	-9	-3,106
2371,298	-7	-2,898
2373,464	-6	-2,712
2375,636	-5	-2,537
2377,814	-6,5	-2,82
2379,979	-6,5	-2,83
2382,145	-7,5	-2,889
2384,311	-6,5	-2,788
2386,477	-6,5	-2,847
2388,649	-6,5	-2,926
2390,815	-7	-2,968
2392,987	-7,5	-2,946
2395,153	-7	-2,93
2397,324	-7,5	-3,041
2399,49	-7	-3,088
2401,662	-8	-3,172
2403,834	-8,5	-3,186
2406	-8	-3,207
2408,166	-9	-3,254
2410,338	-9	-3,272
2412,504	-10	-3,326
2414,681	-10,5	-3,349
2416,847	-10	-3,346
2419,013	-10	-3,365
2421,185	-10,5	-3,387
2423,351	-10,5	-3,384
2425,529	-10,5	-3,402
2427,695	-10,5	-3,39
2429,867	-11	-3,41
2432,032	-9,5	-3,344
2434,21	-10	-3,397
2436,37	-10	-3,376
2438,536	-9,5	-3,372
2440,708	-11	-3,416
2442,874	-10,5	-3,42
2445,034	-10,5	-3,408
2447,206	-11,5	-3,43
2449,377	-11	-3,43
2451,549	-11,5	-3,44
2453,727	-12	-3,461
2455,893	-12	-3,462
2458,071	-12	-3,47
2460,237	-12	-3,466
2462,409	-12	-3,465
2464,569	-12	-3,454
2466,74	-12,5	-3,471
2468,906	-12,5	-3,475
2471,072	-12,5	-3,479
2473,25	-12,5	-3,483
2475,416	-12,5	-3,482
2477,582	-12,5	-3,482
2479,754	-12	-3,484
2481,92	-12	-3,484
2484,091	-12	-3,478
2486,257	-12	-3,48
2488,417	-12	-3,478
2490,595	-11,5	-3,482
2492,761	-12	-3,484
2494,933	-12	-3,486
2497,093	-11,5	-3,482
2499,267	-11,5	-3,49
2501,437	-11,5	-3,49
2503,602	-12	-3,492
2505,78	-11,5	-3,495
2507,946	-11,5	-3,493
2510,118	-11,5	-3,495
2512,284	-11,5	-3,494
2514,45	-11,5	-3,496
2516,622	-11,5	-3,496
2518,787	-11,5	-3,498
2520,959	-11	-3,498
2523,131	-11,5	-3,498
2525,297	-11,5	-3,499
2527,469	-11,5	-3,499
2529,635	-11	-3,499
2531,807	-11	-3,499
2533,973	-11	-3,5
2536,139	-11	-3,5
2538,31	-11	-3,5
2540,476	-11	-3,396
2542,648	-11	-3,311
2544,814	-8,5	-3,106
2546,992	-6,5	-2,989
2549,152	-6	-2,97
2551,324	-6	-2,897
2553,49	-4,5	-2,689
2555,655	-3,5	-2,62
2557,827	-4	-2,552
2559,993	-3	-2,531
2562,165	-3	-2,458
2564,331	-2,5	-2,43
2566,497	-3	-2,494
2568,669	-3	-2,469
2570,835	-2,5	-2,5
2573,006	-2,5	-2,411
2575,172	-2	-2,369
2577,338	-3,5	-2,64
2579,51	-3	-2,651
2581,682	-3	-2,553
2583,86	-2,5	-2,423
2586,032	-1,5	-2,334
2588,198	-1,5	-2,243
2590,369	-1,5	-2,213
2592,529	-1,5	-2,28
2594,707	-1,5	-2,262
2596,873	-1	-2,129
2599,039	-1,5	-2,245
2601,211	-1,5	-2,236
2603,377	-1,5	-2,246
2605,549	-1	-2,072
2607,714	-1	-2,12
2609,892	-1	-2,145
2612,058	-1	-2,17
2614,224	-1	-2,128
2616,396	-0,5	-1,996
2618,562	-0,5	-1,96
2620,728	-0,5	-1,873
2622,906	-0,5	-1,824
2625,071	-0,5	-1,839
2627,237	0	-1,822
2629,409	0	-1,861
2631,575	0	-1,792
2633,747	0	-1,756
2635,913	0	-1,799
2638,079	-0,5	-1,873
2640,251	0	-1,789
2642,422	0	-1,785
2644,588	0	-1,758
2646,754	0	-1,758
2648,926	0	-1,824
2651,098	-0,5	-1,867
2653,258	-0,5	-1,945
2655,43	-0,5	-1,872
2657,602	-0,5	-1,825
2659,767	0	-1,766
2661,945	0	-1,733
2664,111	0	-1,562
2666,283	0	-1,639
2668,449	0	-1,69
2670,615	0	-1,706
2672,787	0	-1,618
2674,953	0	-1,606
2677,124	0	-1,507
2679,296	0	-1,471
2681,462	0	-1,567
2683,634	0	-1,617
2685,794	0	-1,53
2687,966	0	-1,551
2690,138	0	-1,595
2692,304	0	-1,585
2694,469	0	-1,547
2696,635	0	-1,489
2698,813	0	-1,428
2700,979	0	-1,465
2703,151	0	-1,402
2705,329	0	-1,401
2707,495	0,5	-1,279
2709,667	0,5	-1,248
2711,832	0,5	-1,259
2713,998	0,5	-1,247
2716,17	0,5	-1,212
2718,336	0,5	-1,136
2720,508	1	-0,92
2722,674	1	-0,962
2724,846	1	-0,863
2727,018	1	-0,859
2729,183	1	-0,865
2731,361	1,5	-0,739
2733,527	1	-0,724
2735,693	1,5	-0,696
2737,865	1,5	-0,559
2740,031	1,5	-0,575
2742,203	1,5	-0,577
2744,369	1,5	-0,545
2746,535	1,5	-0,475
2748,706	1,5	-0,418
2750,878	1,5	-0,428
2753,05	1,5	-0,389
2755,216	1,5	-0,436
2757,382	1,5	-0,516
2759,554	1,5	-0,506
2761,732	1,5	-0,495
2763,898	1	-0,574
2766,063	1,5	-0,615
2768,223	1,5	-0,71
2770,395	1,5	-0,764
2772,561	1,5	-0,742
2774,739	1,5	-0,734
2776,905	1,5	-0,74
2779,065	1	-0,8
2781,233	1	-0,78
2783,396	1	-0,849
2785,568	1	-0,871
2787,734	1	-0,887
2789,9	1	-0,919
2792,072	1	-0,915
2794,262	1,5	-0,715
2796,428	1,5	-0,688
2798,606	1,5	-0,617
2800,771	1	-0,728
2802,943	1,5	-0,671
2805,109	1,5	-0,628
2807,275	1	-0,623
2809,453	1,5	-0,556
2811,619	1,5	-0,53
2813,785	1,5	-0,556
2815,957	1,5	-0,525
2818,122	1,5	-0,615
2820,294	1,5	-0,595
2822,466	1,5	-0,587
2824,632	1,5	-0,57
2826,804	1,5	-0,524
2828,97	1,5	-0,545
2831,136	1	-0,683
2833,302	1	-0,624
2835,467	1,5	-0,559
2837,639	1,5	-0,513
2839,805	1,5	-0,657
2841,971	1	-0,588
2844,143	1,5	-0,6
2846,315	1,5	-0,616
2848,487	1	-0,614
2850,659	1,5	-0,556
2852,824	1,5	-0,486
2854,996	1,5	-0,44
2857,162	1,5	-0,413
2859,328	1,5	-0,389
2861,5	1,5	-0,377
2863,672	1,5	-0,432
2865,85	1,5	-0,45
2868,016	1,5	-0,308
2870,187	1,5	-0,288
2872,353	2	-0,202
2874,519	2	-0,214
2876,691	2	-0,214
2878,863	2	-0,167
2881,029	2	-0,156
2883,201	2	-0,168
2885,373	3	-0,106
2887,538	3	-0,101
2889,716	3	-0,09
2891,876	3	-0,078
2894,054	3,5	-0,062
2896,22	4	-0,037
2898,38	4	-0,026
2900,546	4	-0,024
2902,712	4	-0,026
2904,877	4	-0,019
2907,049	4	-0,02
2909,215	4	-0,02
2911,387	4	-0,019
2913,553	4	-0,016
2915,713	4	-0,015
2917,891	4	-0,012
2920,057	4	-0,012
2922,24	4	-0,008
2924,406	4	-0,01
2926,578	4	-0,007
2928,75	4	-0,006
2930,922	4	-0,004
2933,088	4	-0,004
2935,254	4	-0,003
2937,426	4	-0,003
2939,591	4	-0,003
2941,757	4	-0,003
2943,929	4	-0,003
2946,095	4	-0,003
2948,261	4	-0,002
2950,427	4	-0,002
2952,593	4	-0,002
2954,759	4	-0,002
2956,93	4	-0,002
2959,096	4	-0,003
2961,268	4	-0,002
2963,434	4	-0,002
2965,606	4	-0,002
2967,778	4	-0,002
2969,944	4	-0,001
2972,11	4	-0,001
2974,281	4	-0,002
2976,441	4	-0,001
2978,619	4	-0,001
2980,785	4	-0,001
2982,951	4	0
2985,123	4	0
2987,289	4	0
2989,461	4	0
2991,632	4	0
2993,798	4	-0,009
2995,97	4	-0,015
2998,136	4	-0,12
3000,302	4	-0,17
3002,48	4	-0,243
3004,646	4	-0,194
3006,818	4	-0,232
3008,99	3,5	-0,295
3011,161	3	-0,461
3013,327	2	-0,514
3015,499	1,5	-0,618
3017,665	0	-0,762
3019,831	0	-0,862
3022,003	0	-0,873
3024,169	0	-0,788
3026,347	0	-0,77
3028,512	0	-0,816
3030,672	0	-0,942
3032,844	-0,5	-1,211
3035,01	-0,5	-1,201
3037,176	-0,5	-1,398
3039,348	-0,5	-1,439
3041,52	-1	-1,623
3043,686	-1	-1,715
3045,857	-1	-1,803
3048,023	-1	-1,772
3050,189	-1	-1,783
3052,355	-1	-1,767
3054,521	-1	-1,794
3056,693	-1	-1,845
3058,859	-1,5	-2,017
3061,031	-1,5	-2,142
3063,196	-1,5	-2,117
3065,362	-1,5	-2,126
3067,528	-1,5	-2,122
3069,7	-1,5	-2,164
3071,866	-1,5	-2,158
3074,032	-1,5	-2,132
3076,198	-1	-2,053
3078,37	-1,5	-2,116
3080,541	-1,5	-2,14
3082,713	-1	-1,996
3084,885	-1	-2,036
3087,057	-1	-2,024
3089,223	-1	-2,093
3091,395	-1,5	-2,192
3093,561	-1,5	-2,279
3095,727	-2	-2,406
3097,898	-2	-2,555
3100,064	-2,5	-2,596
3102,23	-2,5	-2,623
3104,402	-2,5	-2,637
3106,58	-3	-2,772
3108,746	-3	-2,837
3110,924	-4	-3,03
3113,09	-4,5	-3,106
3115,267	-4,5	-3,192
3117,433	-5	-3,222
3119,599	-4,5	-3,228
3121,771	-4,5	-3,244
3123,937	-5	-3,295
3126,103	-6	-3,36
3128,275	-7	-3,394
3130,441	-7	-3,407
3132,606	-7,5	-3,438
3134,778	-8,5	-3,453
3136,944	-8,5	-3,462
3139,11	-8,5	-3,471
3141,282	-9	-3,475
3143,454	-9	-3,48
3145,62	-9	-3,478
3147,792	-8,5	-3,476
3149,963	-9	-3,481
3152,129	-9	-3,483
3154,301	-9	-3,488
3156,467	-9	-3,49
3158,645	-9	-3,492
3160,811	-9	-3,493
3162,983	-9,5	-3,495
3165,155	-9,5	-3,496
3167,32	-9,5	-3,496
3169,486	-9,5	-3,496
3171,658	-9,5	-3,498
3173,824	-9,5	-3,497
3175,99	-9,5	-3,498
3178,168	-9,5	-3,498
3180,334	-9,5	-3,499
3182,5	-9	-3,499
3184,677	-9	-3,499
3186,843	-9,5	-3,499
3189,009	-9	-3,499
3191,181	-9	-3,499
3193,353	-9	-3,499
3195,519	-9	-3,499
3197,685	-9,5	-3,5
3199,851	-9	-3,5
3202,022	-9	-3,5
3204,188	-9	-3,49
3206,354	-9,5	-3,5
3208,526	-9	-3,5
3210,698	-9,5	-3,457
3212,864	-9	-3,498
3215,036	-9	-3,318
3217,208	-9	-3,333
3219,373	-9	-3,378
3221,545	-9	-3,362
3223,711	-9	-3,452
3225,877	-9	-3,288
3228,049	-9	-3,223
3230,215	-9	-3,195
3232,387	-9	-3,121
3234,559	-6	-2,969
3236,724	-5,5	-2,899
3238,896	-4	-2,825
3241,062	-4	-2,776
3243,234	-3,5	-2,763
3245,406	-3,5	-2,732
3247,572	-2,5	-2,658
3249,738	-2	-2,55
3250,608	4	0