File: Cycling_tests/_20perc/_2gap/entrada/_1.txt
Time (s)	Load (N)	Displacement (mm)
83,067	-13	-1,804
83,247	-4	-0,905
83,415	1,5	-0,144
83,607	3,5	-0,007
83,808	3,5	-0,084
84,009	-3,5	-1,063
84,195	-10,5	-1,998
84,375	-19,5	-2,893
84,555	-28	-3,452
84,723	-29	-3,496
84,909	-29	-3,258
85,107	-18	-2,263
85,689	3,5	-0,016
85,869	3,5	-0,001
86,097	-2	-0,848
86,289	-8,5	-1,809
86,481	-17,5	-2,828
86,661	-27	-3,43
86,841	-29	-3,496
87,081	-28	-3,096
87,279	-15	-2,105
87,459	-6	-1,145
87,651	0	-0,252
87,831	3,5	-0,016
88,011	3,5	-0,001
88,209	0	-0,68
88,389	-7	-1,581
88,569	-14,5	-2,486
88,767	-25	-3,372
88,94	-29	-3,492
89,144	-29	-3,479
89,349	-20,5	-2,495
89,54	-9,5	-1,505
89,727	-2	-0,606
89,925	3,5	-0,035
90,098	3,5	-0,002
90,29	3,5	-0,306
90,47	-5,5	-1,238
90,663	-12	-2,168
90,866	-21,5	-3,188
91,034	-28,5	-3,477
91,226	-29	-3,498
91,394	-27	-2,998
91,593	-14,5	-2,072
91,778	-5,5	-1,138
91,97	0	-0,207
92,15	3,5	-0,01
92,348	3,5	-0,001
92,522	0	-0,671
92,715	-7,5	-1,632
92,894	-15	-2,531
93,104	-26	-3,409
93,272	-29	-3,494
93,488	-29	-3,358
93,692	-18	-2,376
93,86	-9,5	-1,531
94,04	-1,5	-0,581
94,239	3	-0,039
94,412	3,5	-0,002
94,598	3,5	-0,338
94,778	-5	-1,184
94,946	-10	-2,024
95,138	-19,5	-3,009
95,324	-28	-3,467
95,504	-29	-3,498
95,685	-28,5	-3,151
95,864	-17	-2,25
96,032	-7,5	-1,41
96,218	-0,5	-0,475
96,398	3,5	-0,032
96,578	3,5	-0,002
96,77	2	-0,41
96,962	-5,5	-1,366
97,172	-14,5	-2,416
97,34	-22,5	-3,249
97,526	-28,5	-3,486
97,732	-29	-3,499
97,91	-24	-2,808
98,102	-13	-1,848
98,282	-4	-0,893
98,481	2	-0,102
98,66	3,5	-0,005
98,864	3,5	-0,089
99,032	-3	-0,945
99,218	-9	-1,94
99,416	-18,5	-2,864
99,596	-27,5	-3,448
99,782	-29	-3,497
99,968	-28,5	-3,227
100,166	-17	-2,234
100,352	-6,5	-1,304
100,538	0	-0,349
100,718	3,5	-0,023
100,922	3,5	-0,001
101,108	1	-0,645
101,294	-6,5	-1,515
101,468	-13,5	-2,385
101,66	-22,5	-3,328
101,846	-28,5	-3,49
102,044	-29	-3,5
102,212	-21,5	-2,701
102,404	-11,5	-1,741
102,585	-3	-0,836
102,77	2	-0,089
102,962	3,5	-0,004
103,13	3,5	0
103,334	-3,5	-1,008
103,502	-9	-1,848
103,67	-16	-2,718
103,862	-25,5	-3,426
104,048	-28,5	-3,496
104,222	-28,5	-3,489
104,414	-19,5	-2,515
104,594	-10	-1,615
104,762	-3	-0,776
104,954	3	-0,066
105,146	3,5	-0,003
105,374	2	-0,42
105,578	-6	-1,446
105,758	-13,5	-2,341
105,949	-22,5	-3,279
106,118	-28,5	-3,49
106,346	-28,5	-3,499
106,555	-20	-2,525
106,753	-9,5	-1,57
106,934	-2	-0,67
107,107	2,5	-0,062
107,293	3,5	-0,003
107,516	2	-0,436
107,695	-5,5	-1,366
107,881	-12,5	-2,266
108,08	-22,5	-3,249
108,266	-28,5	-3,486
108,433	-28,5	-3,499
108,62	-24,5	-2,86
108,811	-13	-1,95
109,004	-4,5	-0,99
109,195	2	-0,127
109,381	3,5	-0,007
109,585	3,5	-0,012
109,778	-3,5	-0,994
109,97	-10	-1,954
110,167	-18,5	-2,944
110,335	-27,5	-3,451
110,527	-28,5	-3,497
110,695	-28,5	-3,321
110,894	-17	-2,322
111,079	-7,5	-1,393
111,247	-1,5	-0,553
111,427	3	-0,04
111,607	3,5	-0,002
111,823	2	-0,51
112,015	-6	-1,44
112,218	-14,5	-2,455
112,387	-22,5	-3,282
112,579	-28,5	-3,489
112,777	-28,5	-3,499
112,969	-23,5	-2,737
113,167	-12	-1,777
113,737	3,5	-0,004
113,93	3,5	-0,212
114,115	-4,5	-1,152
114,325	-11,5	-2,202
114,505	-20	-3,097
114,703	-28	-3,482
114,877	-28,5	-3,499
115,105	-23,5	-2,739
115,291	-12	-1,874
115,501	-3	-0,824
115,687	2	-0,084
115,873	3,5	-0,004
116,053	3,5	-0,022
116,233	-3	-0,95
116,419	-9	-1,874
116,605	-17	-2,834
116,791	-27	-3,444
116,995	-28,5	-3,498
117,205	-27	-3,077
117,385	-16	-2,181
117,565	-7	-1,182
117,787	1,5	-0,197
117,991	3,5	-0,008
118,165	3,5	-0,001
118,387	-2,5	-0,938
118,555	-8,5	-1,778
118,741	-16	-2,713
118,939	-26,5	-3,438
119,131	-28,5	-3,498
119,353	-26	-3,07
119,551	-14	-2,079
119,731	-5	-1,179
119,917	0,5	-0,175
120,109	3,5	-0,013
120,301	4	0
120,499	-1,5	-0,849
120,691	-8,5	-1,809
120,883	-16,5	-2,809
121,075	-27	-3,452
121,285	-28,5	-3,498
121,459	-28,5	-3,268
121,663	-16,5	-2,244
121,831	-7	-1,404
122,011	-0,5	-0,454
122,209	3,5	-0,026
122,407	3,5	-0,001
122,641	-0,5	-0,762
122,821	-7	-1,662
123,019	-15,5	-2,652
123,211	-26,5	-3,417
123,402	-28,5	-3,496
123,601	-28,5	-3,196
123,793	-16,5	-2,295
123,973	-7	-1,394
124,17	0	-0,404
124,368	3,5	-0,019
124,56	3,5	-0,001
124,753	-0,5	-0,689
124,95	-8	-1,679
125,13	-15	-2,579
125,322	-25	-3,396
125,527	-28,5	-3,496
125,715	-28,5	-3,269
125,904	-18,5	-2,389
126,085	-9	-1,494
126,282	-1	-0,504
126,45	3	-0,042
126,654	3,5	-0,002
126,864	1	-0,578
127,032	-6	-1,418
127,206	-12	-2,283
127,387	-22	-3,183
127,585	-28	-3,485
127,758	-28,5	-3,499
127,944	-24,5	-2,924
128,112	-14	-2,084
128,31	-4,5	-1,093
128,496	1	-0,195
128,694	3,5	-0,009
128,877	3,5	-0,001
129,073	-2	-0,837
129,252	-8	-1,732
129,457	-16,5	-2,752
129,636	-26,5	-3,427
129,816	-28,5	-3,496
130,008	-28,5	-3,383
130,201	-18	-2,408
130,404	-7,5	-1,389
130,608	0	-0,369
130,811	3,5	-0,016
130,98	3,5	-0,001
131,214	-1,5	-0,827
131,4	-8	-1,792
131,604	-15,5	-2,746
131,779	-26	-3,42
131,977	-28,5	-3,496
132,168	-28	-3,316
132,36	-17,5	-2,348
132,54	-8	-1,383
132,726	-1	-0,518
132,93	3,5	-0,024
133,11	3,5	-0,002
133,326	0,5	-0,65
133,524	-7	-1,645
133,71	-15	-2,57
133,884	-24	-3,372
134,095	-28,5	-3,495
134,28	-28,5	-3,483
134,46	-20	-2,56
134,634	-10	-1,626
134,838	-1,5	-0,671
135,024	3	-0,043
135,222	4	-0,002
135,432	2,5	-0,458
135,606	-5	-1,308
135,804	-12	-2,268
135,983	-21	-3,173
136,181	-28	-3,485
136,362	-28,5	-3,499
136,542	-24,5	-2,917
136,746	-13	-1,896
136,95	-3,5	-0,876
137,13	2,5	-0,09
137,33	3,5	-0,005
137,52	3,5	-0,071
137,688	-3	-0,978
137,874	-9	-1,863
138,054	-17	-2,763
138,246	-27	-3,441
138,426	-28,5	-3,497
138,63	-27	-3,149
138,816	-16	-2,248
139,002	-7	-1,253
139,2	0	-0,323
139,398	3,5	-0,014
139,578	3,5	-0,001
139,806	-1	-0,865
139,998	-8	-1,766
140,562	-28	-3,496
140,741	-28	-3,359
140,916	-18,5	-2,478
141,101	-9	-1,548
141,296	-1	-0,583
141,504	3,5	-0,028
141,69	3,5	-0,002
141,918	0	-0,689
142,097	-7	-1,674
142,295	-15	-2,57
142,521	-26,5	-3,44
142,715	-28	-3,497
142,926	-27,5	-3,136
143,117	-15	-2,174
143,286	-7	-1,335
143,484	0	-0,345
143,675	3,5	-0,017
143,843	3,5	-0,001
144,023	1,5	-0,539
144,191	-5,5	-1,379
144,365	-11,5	-2,279
144,539	-20,5	-3,119
144,719	-27,5	-3,476
144,905	-28	-3,498
145,115	-24	-2,883
145,301	-13,5	-1,983
145,524	-3	-0,873
145,703	2	-0,108
145,878	3,5	-0,007
146,066	3,5	0
146,243	-1,5	-0,933
146,453	-9	-1,933
146,646	-17,5	-2,883
146,837	-26,5	-3,46
147,017	-28	-3,497
147,215	-26,5	-3,121
147,395	-15,5	-2,22
147,575	-6,5	-1,321
147,774	0	-0,269
147,953	3,5	-0,02
148,127	3,5	-0,001
148,319	1,5	-0,524
148,487	-5,5	-1,435
148,691	-13,5	-2,385
148,871	-22,5	-3,271
149,039	-27,5	-3,483
149,207	-28	-3,498
149,399	-25,5	-3,012
149,579	-14,5	-2,106
149,759	-5,5	-1,211
149,939	0	-0,311
150,143	3,5	-0,013
150,323	3,5	-0,001
150,521	-0,5	-0,758
150,707	-7	-1,673
150,887	-15	-2,673
151,097	-25,5	-3,421
151,277	-28	-3,495
151,463	-28	-3,432
151,631	-19,5	-2,567
151,799	-10,5	-1,727
151,979	-2,5	-0,822
152,165	3	-0,084
152,339	3,5	-0,006
152,525	3,5	-0,031
152,729	-3,5	-1,017
152,909	-9,5	-1,917
153,124	-18,5	-3,002
153,299	-27	-3,462
153,51	-28	-3,498
153,695	-25,5	-3,051
153,881	-15	-2,095
154,067	-5	-1,196
154,265	0,5	-0,219
154,445	4	-0,014
154,631	3,5	-0,001
154,829	-1	-0,725
155,003	-6	-1,659
155,213	-15	-2,644
155,393	-24	-3,4
155,573	-28	-3,496
155,765	-27,5	-3,463
155,933	-19,5	-2,594
156,101	-10,5	-1,754
156,287	-2	-0,819
156,467	3	-0,092
156,653	4	-0,005
156,839	3,5	-0,089
157,025	-3	-1,03
157,204	-8,5	-1,93
157,406	-19	-2,949
157,577	-26,5	-3,452
157,757	-27,5	-3,497
157,936	-28	-3,305
158,105	-17,5	-2,433
158,291	-8	-1,533
158,501	-0,5	-0,473
158,681	3,5	-0,032
158,861	4	-0,002
159,041	3	-0,342
159,215	-4,5	-1,218
159,397	-10,5	-2,118
159,574	-19,5	-3,013
159,748	-27	-3,464
159,922	-27,5	-3,498
160,09	-27,5	-3,254
160,288	-15	-2,2
160,468	-6	-1,36
160,66	0	-0,396
160,834	4	-0,027
161,026	4	-0,001
161,219	1	-0,584
161,399	-5,5	-1,484
161,584	-12,5	-2,414
161,77	-23	-3,312
161,938	-27,5	-3,486
162,13	-27,5	-3,499
162,298	-23	-2,859
162,491	-11,5	-1,899
162,694	-3	-0,884
162,874	2,5	-0,111
163,049	4	-0,007
163,252	3,5	-0,03
163,42	-1,5	-0,897
163,6	-7,5	-1,797
163,774	-15	-2,667
163,967	-26	-3,421
164,134	-27,5	-3,494
164,302	-27,5	-3,499
164,482	-21	-2,689
164,675	-10	-1,724
164,878	-1,5	-0,709
283,971	-13	-2,507
284,139	-22	-3,312
284,331	-26	-3,491
284,505	-26	-3,499
284,709	-24,5	-2,689
284,902	-8,5	-1,734
285,081	-1,5	-0,834
285,292	3,5	-0,059
285,459	4	-0,004
285,627	4	-0,011
285,813	-2,5	-0,992
285,987	-7,5	-1,832
286,168	-15	-2,732
286,341	-24	-3,415
286,528	-26	-3,496
286,712	-26	-3,48
286,881	-20	-2,616
287,055	-9	-1,701
287,235	-2,5	-0,846
287,416	3	-0,099
287,608	4	-0,005
287,775	4	0
287,961	-1,5	-0,97
288,141	-7	-1,82
288,315	-13,5	-2,695
288,495	-23	-3,412
288,687	-26	-3,496
288,855	-26	-3,5
289,035	-20	-2,654
289,215	-10	-1,754
289,383	-2,5	-0,914
289,557	1,5	-0,134
289,731	4	-0,009
289,9	4	-0,001
290,079	0,5	-0,638
290,271	-5,5	-1,599
290,439	-12	-2,438
290,619	-21	-3,306
290,787	-26	-3,486
290,955	-26	-3,499
291,135	-25	-3,026
291,303	-16	-2,186
291,471	-6	-1,341
291,645	0	-0,476
292,209	3	-0,432
292,383	-4,5	-1,302
292,563	-10	-2,207
292,743	-18	-3,162
292,935	-25,5	-3,479
293,109	-26	-3,498
293,277	-25,5	-3,088
293,445	-15	-2,243
293,631	-5,5	-1,318
293,817	0	-0,388
293,985	3,5	-0,029
294,165	4	-0,002
294,345	3,5	-0,367
294,519	-4	-1,238
294,699	-9	-2,228
294,891	-17,5	-3,098
295,071	-25,5	-3,475
295,239	-26	-3,498
295,437	-25,5	-3,059
295,611	-14,5	-2,188
295,791	-5,5	-1,198
295,989	0,5	-0,299
296,169	4	-0,018
296,367	4	-0,001
296,541	1	-0,612
296,709	-4,5	-1,483
296,907	-11,5	-2,438
297,086	-20,5	-3,306
297,261	-26	-3,487
297,453	-26	-3,499
297,627	-21	-2,805
297,794	-12	-1,964
297,987	-3	-1,004
298,167	1,5	-0,162
298,347	4	-0,01
298,539	4	0
298,707	0	-0,762
298,887	-5,5	-1,657
299,067	-12,5	-2,562
299,246	-21,5	-3,366
299,42	-25,5	-3,492
299,6	-26	-3,499
299,774	-20,5	-2,724
299,961	-9,5	-1,799
300,14	-2,5	-0,894
300,32	2,5	-0,117
300,512	4	-0,006
300,68	4	0
300,849	0	-0,792
301,022	-5,5	-1,662
301,196	-12	-2,532
301,364	-21	-3,325
301,532	-25,5	-3,487
301,712	-26	-3,499
301,904	-20,5	-2,724
302,084	-10	-1,799
302,258	-2,5	-0,959
302,426	1,5	-0,17
302,594	4	-0,011
302,774	4	-0,001
302,954	1,5	-0,652
303,122	-5	-1,492
303,29	-10,5	-2,387
303,482	-20,5	-3,276
303,656	-25,5	-3,485
303,824	-26	-3,499
303,992	-24	-3,002
304,16	-13,5	-2,156
304,346	-4,5	-1,201
304,52	0,5	-0,361
304,689	4	-0,026
304,862	4	-0,002
305,054	3,5	-0,434
305,222	-4	-1,274
305,39	-8,5	-2,114
305,57	-16,5	-3,014
305,738	-24,5	-3,47
305,924	-26	-3,498
306,104	-25,5	-3,15
306,284	-14,5	-2,249
306,47	-5,5	-1,314
306,638	0	-0,479
306,824	4	-0,029
306,992	4	-0,002
307,178	4	-0,302
307,346	-3	-1,144
307,514	-7,5	-1,989
307,682	-15	-2,884
307,862	-24,5	-3,442
308,042	-25,5	-3,496
308,246	-25,5	-3,257
308,414	-17	-2,413
308,59	-7	-1,543
308,774	-0,5	-0,613
308,942	3,5	-0,058
309,116	4	-0,004
309,296	4	-0,142
309,488	-3	-1,11
309,656	-7	-1,95
309,86	-16,5	-2,97
310,028	-24,5	-3,455
310,202	-25,5	-3,497
310,388	-25,5	-3,216
310,568	-15	-2,308
310,736	-6	-1,473
310,928	0	-0,518
311,108	4	-0,036
311,288	4	-0,002
311,486	3,5	-0,479
311,672	-4	-1,345
311,84	-9,5	-2,185
312,02	-18	-3,084
312,194	-25	-3,471
312,374	-25,5	-3,498
312,554	-25,5	-3,101
312,722	-14,5	-2,26
312,902	-5,5	-1,36
313,07	0	-0,52
313,256	4	-0,033
313,43	4	-0,002
313,598	4	-0,226
313,797	-3	-1,219
313,964	-8,5	-2,059
314,132	-15	-2,899
314,312	-24,5	-3,453
314,504	-26	-3,497
314,672	-26	-3,269
314,845	-16	-2,394
315,026	-6,5	-1,494
315,217	0	-0,534
315,398	4	-0,037
315,566	4	-0,003
315,764	4	-0,29
315,937	-3,5	-1,163
316,105	-8	-2,003
316,286	-15,5	-2,968
316,477	-25	-3,462
316,651	-26	-3,497
316,855	-25,5	-3,145
317,024	-15	-2,304
317,191	-6,5	-1,464
317,359	-0,5	-0,624
317,534	3,5	-0,055
317,713	4,5	-0,003
317,893	4	-0,153
318,075	-2,5	-1,062
318,247	-7,5	-1,932
318,427	-15	-2,831
318,613	-24	-3,448
318,787	-26	-3,496
318,968	-26	-3,401
319,135	-18,5	-2,546
319,327	-7,5	-1,586
319,495	-1,5	-0,746
319,687	3,5	-0,061
319,861	4	-0,004
320,053	4	-0,126
320,233	-2	-1,037
320,413	-7	-1,937
320,593	-15	-2,836
320,785	-24,5	-3,454
320,959	-26	-3,497
321,134	-25,5	-3,318
321,313	-16,5	-2,347
321,506	-6	-1,452
321,691	-0,5	-0,522
321,889	4	-0,027
322,057	4	-0,002
322,225	3,5	-0,341
322,393	-3	-1,213
437,515	4	-0,045
437,688	4	-0,003
437,881	4	-0,239
438,049	-2,5	-1,083
438,217	-7	-1,923
438,396	-15	-2,878
438,589	-24	-3,452
438,757	-25	-3,496
438,931	-25	-3,36
439,11	-16	-2,502
439,29	-6,5	-1,608
439,458	-1,5	-0,763
439,626	2,5	-0,094
439,806	4,5	-0,006
439,974	4	0
440,154	-1	-0,847
440,328	-5,5	-1,717
440,509	-12	-2,617
440,688	-22,5	-3,399
440,862	-25	-3,493
441,03	-25	-3,499
441,204	-20	-2,767
441,384	-10	-1,872
441,564	-2,5	-0,968
441,732	2	-0,174
441,912	4	-0,011
442,08	4,5	-0,001
442,272	0	-0,763
442,452	-5,5	-1,588
442,633	-11,5	-2,488
442,8	-19,5	-3,3
442,986	-25	-3,489
443,154	-25	-3,499
443,322	-22,5	-2,939
443,508	-11,5	-2,008
443,694	-3	-1,078
443,874	1,5	-0,204
444,042	4	-0,015
444,21	4	-0,001
444,378	2	-0,516
444,558	-4	-1,357
444,726	-8,5	-2,197
444,894	-16,5	-3,037
445,062	-24	-3,464
445,242	-25	-3,498
445,434	-24	-3,112
445,602	-14,5	-2,271
445,776	-5	-1,401
445,956	0	-0,501
446,136	4	-0,034
446,304	4	-0,002
446,485	4	-0,243
446,652	-3	-1,148
446,862	-8,5	-2,137
447,03	-16,5	-2,977
447,198	-24	-3,456
447,372	-25	-3,498
447,564	-25	-3,23
447,732	-15	-2,388
447,9	-6,5	-1,548
448,074	-0,5	-0,618
448,266	3,5	-0,049
448,435	4	-0,004
448,602	4	-0,046
448,776	-2	-0,942
448,944	-6	-1,782
449,131	-14	-2,712
449,298	-22,5	-3,4
449,478	-25	-3,494
449,658	-25	-3,5
449,838	-18,5	-2,645
450,018	-8,5	-1,75
450,192	-1,5	-0,88
450,372	3	-0,108
450,558	4	-0,006
450,732	4	0
450,9	-0,5	-0,905
451,092	-6	-1,795
451,26	-12,5	-2,64
451,428	-21	-3,372
451,602	-25	-3,492
451,782	-25	-3,5
451,962	-18,5	-2,652
452,142	-8,5	-1,752
452,322	-1,5	-0,857
452,49	2,5	-0,12
452,658	4	-0,007
452,85	4,5	0
453,018	0	-0,726
453,198	-5	-1,621
453,384	-11,5	-2,551
453,552	-20,5	-3,336
453,73	-25	-3,49
453,9	-25	-3,499
454,086	-20,5	-2,804
454,266	-10	-1,904
454,434	-3	-1,064
454,602	1	-0,236
454,769	4	-0,018
454,961	4	-0,001
455,142	1,5	-0,623
455,31	-4,5	-1,458
455,502	-10,5	-2,418
455,681	-19,5	-3,294
455,861	-25	-3,487
456,029	-25	-3,499
456,221	-22	-2,937
456,389	-11,5	-2,097
456,558	-4	-1,258
456,725	0	-0,417
456,893	4	-0,032
457,074	4,5	-0,002
457,265	3,5	-0,402
457,433	-3,5	-1,248
457,601	-7,5	-2,083
457,769	-15,5	-2,923
457,949	-24	-3,457
458,124	-25	-3,497
458,291	-25	-3,316
458,478	-15,5	-2,438
458,657	-6	-1,538
458,831	-0,5	-0,668
458,999	3,5	-0,069
459,173	4	-0,004
459,341	4	-0,149
459,534	-2,5	-0,988
459,707	-6	-1,858
459,887	-14,5	-2,758
460,055	-22,5	-3,414
460,223	-25	-3,494
460,409	-25	-3,5
460,577	-18,5	-2,694
460,745	-9,5	-1,854
460,913	-2,5	-1,014
461,081	1,5	-0,201
461,261	4	-0,012
461,441	4	-0,001
461,615	1	-0,606
461,783	-4,5	-1,446
461,963	-10	-2,346
462,143	-18,5	-3,241
462,311	-24,5	-3,481
462,479	-25	-3,498
462,671	-24,5	-3,172
462,839	-14,5	-2,33
463,007	-6	-1,49
463,175	-0,5	-0,65
463,343	3	-0,047
463,529	4	-0,003
463,715	4	-0,246
463,889	-3	-1,114
464,057	-7	-1,954
464,249	-15,5	-2,914
464,429	-24	-3,455
464,597	-25	-3,496
464,771	-25	-3,42
464,951	-15,5	-2,493
465,119	-7,5	-1,653
465,287	-1,5	-0,813
465,461	2,5	-0,098
465,629	4	-0,007
465,815	4	0
465,983	0	-0,782
466,151	-5,5	-1,622
466,326	-12	-2,492
466,505	-19,5	-3,336
466,673	-25	-3,488
466,847	-25	-3,499
467,015	-22	-2,971
467,183	-12,5	-2,125
467,363	-4	-1,23
467,537	0,5	-0,36
467,705	3,5	-0,026
467,885	4,5	-0,002
468,071	2,5	-0,445
468,239	-3,5	-1,28
468,413	-8,5	-2,155
468,593	-17	-3,056
468,773	-24	-3,472
468,947	-25	-3,498
469,115	-25	-3,251
469,283	-15,5	-2,407
469,451	-6	-1,567
469,643	-0,5	-0,608
469,811	3,5	-0,057
469,979	4	-0,004
470,147	4	-0,031
470,315	-1,5	-0,899
470,483	-5,5	-1,739
470,651	-12,5	-2,638
470,843	-21,5	-3,396
471,011	-24,5	-3,493
471,185	-25	-3,499
471,353	-19,5	-2,808
471,533	-9,5	-1,908
471,707	-2,5	-1,038
471,875	1,5	-0,218
472,055	4	-0,014
472,234	4	-0,001
472,409	1	-0,597
472,577	-4,5	-1,438
472,756	-10	-2,337
472,924	-17,5	-3,178
473,11	-24,5	-3,482
473,29	-25	-3,499
473,458	-23	-3,023
473,65	-11	-2,062
473,818	-4	-1,222
473,986	0,5	-0,382
474,166	4	-0,024
474,334	4	-0,002
474,526	2,5	-0,453
474,694	-4	-1,294
474,874	-9	-2,194
475,042	-16	-3,034
550,086	-5,5	-1,698
550,254	-11,5	-2,538
550,422	-20,5	-3,329
550,614	-24,5	-3,491
550,788	-24,5	-3,499
550,956	-20	-2,827
551,124	-10	-1,987
551,298	-3	-1,116
551,49	1,5	-0,191
551,658	4	-0,014
551,826	4	-0,001
551,994	2,5	-0,483
552,162	-4	-1,324
552,351	-9,5	-2,253
552,516	-16,5	-3,093
552,684	-24	-3,47
552,858	-24,5	-3,498
553,026	-24,5	-3,227
553,218	-14	-2,32
553,386	-5,5	-1,48
553,554	-0,5	-0,64
553,734	3,5	-0,052
553,914	4,5	-0,003
554,082	4	-0,165
554,25	-2	-1,008
554,43	-6,5	-1,902
554,598	-13	-2,742
554,784	-23	-3,432
554,952	-24,5	-3,495
555,12	-24,5	-3,498
555,294	-17,5	-2,626
555,462	-7,5	-1,785
555,63	-2	-0,946
555,816	2,5	-0,123
555,984	4,5	-0,009
556,152	4	-0,001
556,326	0	-0,733
556,518	-5	-1,688
556,692	-11,5	-2,558
556,866	-20,5	-3,354
557,034	-24,5	-3,49
557,226	-24,5	-3,499
557,394	-19,5	-2,828
557,562	-9,5	-1,988
557,748	-2,5	-1,058
557,957	2,5	-0,12
558,126	4,5	-0,009
558,294	4	-0,001
558,462	0	-0,672
558,636	-4,5	-1,512
558,804	-9	-2,352
558,996	-19	-3,29
559,164	-24,5	-3,484
559,338	-24,5	-3,499
559,506	-22,5	-3,071
559,674	-13	-2,235
559,847	-4,5	-1,361
560,015	0	-0,521
560,195	4	-0,036
560,364	4,5	-0,002
560,532	4	-0,179
560,711	-2,5	-1,085
560,891	-7	-1,984
561,072	-15	-2,884
561,239	-22,5	-3,442
561,42	-24,5	-3,497
561,594	-24,5	-3,408
561,761	-15,5	-2,552
561,929	-7,5	-1,712
562,097	-1,5	-0,871
562,283	3	-0,098
562,451	4,5	-0,007
562,625	4,5	0
562,793	0	-0,751
562,961	-5	-1,591
563,153	-11,5	-2,551
563,321	-20,5	-3,336
563,489	-24	-3,488
563,663	-24,5	-3,499
563,831	-20	-2,898
564,011	-10,5	-2,062
564,185	-4	-1,193
564,365	1	-0,293
564,533	4	-0,022
564,713	4,5	-0,001
564,881	3	-0,492
565,049	-4	-1,333
565,217	-8	-2,173
565,385	-16	-3,013
565,571	-23,5	-3,47
565,739	-24,5	-3,498
565,907	-24,5	-3,256
566,075	-15	-2,412
566,243	-6	-1,572
566,411	-1	-0,732
566,603	3,5	-0,058
566,777	4	-0,004
566,945	4	-0,041
567,113	-1	-0,909
567,293	-5,5	-1,864
567,473	-13	-2,709
567,647	-22	-3,408
567,815	-24,5	-3,493
567,989	-24,5	-3,5
568,169	-17,5	-2,676
568,337	-8,5	-1,836
568,518	-2	-0,936
568,691	2	-0,144
568,871	4,5	-0,009
569,039	4,5	-0,001
569,207	0,5	-0,644
569,375	-4,5	-1,484
569,549	-10	-2,354
569,741	-19,5	-3,291
569,909	-24,5	-3,484
570,077	-24,5	-3,499
570,245	-22,5	-3,062
570,413	-12,5	-2,222
570,593	-4,5	-1,317
570,767	0	-0,452
570,935	3,5	-0,035
571,109	4	-0,002
571,277	4	-0,226
571,457	-3	-1,129
571,637	-7,5	-2,03
571,805	-15	-2,869
571,973	-23	-3,438
572,141	-24,5	-3,496
572,309	-24,5	-3,5
572,501	-16	-2,58
572,669	-7,5	-1,739
572,837	-2	-0,9
573,017	2,5	-0,117
573,185	4	-0,008
573,365	4	0
573,539	0	-0,783
573,707	-5	-1,623
573,875	-10,5	-2,462
574,055	-19,5	-3,32
574,235	-24,5	-3,489
574,403	-24,5	-3,499
574,571	-21	-2,943
574,757	-10,5	-2,012
574,931	-3	-1,142
575,099	0,5	-0,302
575,267	4	-0,022
575,441	4	-0,002
575,633	2	-0,514
575,801	-4	-1,354
575,975	-8,5	-2,224
576,143	-17	-3,065
576,311	-24	-3,466
576,479	-24,5	-3,497
576,659	-24,5	-3,244
576,839	-14,5	-2,341
577,006	-5,5	-1,501
577,181	0	-0,631
577,348	3,5	-0,061
577,541	4	-0,003
577,709	4	-0,165
577,89	-2,5	-1,072
578,057	-6	-1,912
578,224	-13,5	-2,752
578,392	-22	-3,412
578,573	-24,5	-3,495
578,741	-24,5	-3,5
578,914	-17,5	-2,642
579,083	-7,5	-1,802
579,275	-1,5	-0,842
579,454	3	-0,098
579,622	4,5	-0,007
579,791	4	-0,001
579,958	0,5	-0,703
580,15	-5	-1,664
580,33	-11,5	-2,564
580,498	-19,5	-3,344
580,666	-24,5	-3,488
580,834	-24,5	-3,499
581,014	-21	-2,913
581,182	-10,5	-2,013
581,362	-3	-1,173
581,53	0,5	-0,333
581,71	4	-0,02
581,897	4	-0,001
582,064	2	-0,488
582,244	-4,5	-1,388
582,412	-9	-2,228
582,598	-17	-3,158
582,767	-24	-3,475
582,934	-24,5	-3,498
583,102	-24	-3,188
583,27	-14	-2,35
583,45	-5	-1,445
583,63	0	-0,546
583,798	3,5	-0,047
583,966	4,5	-0,003
584,141	4	-0,284
584,32	-3	-1,126
584,5	-7,5	-2,026
584,674	-14,5	-2,896
584,842	-23	-3,444
585,034	-24,5	-3,497
585,202	-24,5	-3,382
585,37	-16	-2,527
585,538	-7,5	-1,687
585,706	-1	-0,847
585,892	3	-0,091
586,072	4	-0,005
586,24	4	0
586,408	0	-0,784
586,576	-5	-1,624
586,762	-12	-2,553
586,93	-20	-3,336
587,098	-24	-3,488
662,388	-24	-3,499
662,58	-20,5	-2,868
662,748	-10	-2,027
662,916	-3	-1,183
663,096	1,5	-0,289
663,288	4	-0,015
663,456	4	-0,001
663,624	1,5	-0,536
663,798	-4	-1,406
663,966	-9	-2,246
664,146	-16	-3,146
664,326	-24	-3,48
664,5	-24,5	-3,498
664,68	-22,5	-3,119
664,859	-12,5	-2,218
665,034	-4,5	-1,348
665,201	0	-0,508
665,37	4	-0,042
665,537	4	-0,003
665,729	3,5	-0,294
665,903	-3	-1,166
666,072	-7	-2,001
666,239	-14,5	-2,841
666,425	-23	-3,45
666,594	-24	-3,496
666,761	-24	-3,408
666,941	-15	-2,488
667,109	-6,5	-1,648
667,283	-1	-0,769
667,463	3	-0,08
667,643	4	-0,004
667,817	4	-0,009
667,985	-1,5	-0,873
668,153	-5,5	-1,708
668,339	-12,5	-2,638
668,507	-17,5	-3,376
668,675	-24	-3,491
668,843	-24	-3,499
669,011	-21	-2,856
669,179	-9,5	-2,016
669,371	-2,5	-1,056
669,551	1,5	-0,19
669,72	4	-0,014
669,887	4	-0,001
670,055	1,5	-0,505
670,235	-4,5	-1,406
670,403	-9	-2,246
670,571	-16	-3,086
670,739	-23,5	-3,469
670,907	-24	-3,498
671,099	-24	-3,161
671,279	-12	-2,26
671,447	-4,5	-1,42
671,615	0	-0,58
671,783	3,5	-0,052
671,951	4,5	-0,004
672,131	4	-0,242
672,305	-2,5	-1,086
672,473	-6	-1,926
672,647	-13,5	-2,795
672,815	-22,5	-3,423
672,995	-24	-3,495
673,163	-24	-3,471
673,331	-16,5	-2,547
673,511	-7	-1,702
673,679	-1	-0,862
673,865	3	-0,095
674,033	4,5	-0,007
674,201	4	0
674,369	-0,5	-0,799
674,537	-5	-1,644
674,705	-10,5	-2,478
674,885	-18,5	-3,329
675,053	-24	-3,487
675,221	-24	-3,499
675,389	-22,5	-2,96
675,557	-10,5	-2,12
675,749	-3	-1,16
675,917	1	-0,31
676,085	4	-0,023
676,259	4,5	-0,002
676,427	3	-0,381
676,595	-3	-1,222
676,769	-7,5	-2,092
676,937	-15	-2,932
677,105	-21,5	-3,45
677,279	-24	-3,496
677,447	-24	-3,37
677,633	-15	-2,432
677,801	-5,5	-1,592
677,969	-1	-0,753
678,137	3,5	-0,09
678,305	4	-0,006
678,497	4	-0,009
678,665	-1,5	-0,864
678,833	-5	-1,704
679,001	-11,5	-2,544
679,169	-19,5	-3,332
679,343	-24	-3,489
679,517	-24	-3,499
679,697	-22	-2,883
679,865	-11	-2,043
680,039	-3	-1,173
680,207	0,5	-0,328
680,387	4	-0,02
680,555	4	-0,001
680,723	3	-0,42
680,891	-3	-1,261
681,059	-8	-2,101
681,227	-15	-2,941
681,395	-22,5	-3,451
681,575	-24	-3,497
681,743	-24	-3,396
681,923	-15	-2,482
682,09	-6,5	-1,642
682,259	-1	-0,802
682,439	3,5	-0,086
682,607	4	-0,006
682,774	4	-0,002
682,942	-1	-0,845
683,11	-5,5	-1,684
683,279	-11,5	-2,524
683,446	-19,5	-3,322
683,626	-24	-3,49
683,806	-24	-3,499
683,974	-22,5	-2,923
684,143	-10,5	-2,078
684,31	-3,5	-1,243
684,49	0,5	-0,342
684,659	4	-0,025
684,826	4	-0,002
685,006	3	-0,472
685,174	-4	-1,313
685,366	-9	-2,273
685,534	-17	-3,118
685,702	-23	-3,471
685,871	-24	-3,498
686,038	-24	-3,252
686,206	-14,5	-2,408
686,392	-5	-1,483
686,561	0	-0,633
686,728	3,5	-0,063
686,896	4	-0,004
687,064	4	-0,03
687,244	-2	-0,956
687,424	-6	-1,857
687,592	-12	-2,696
687,76	-21,5	-3,396
687,928	-24	-3,492
688,096	-24	-3,499
688,264	-19,5	-2,883
688,444	-9,5	-1,983
688,612	-3	-1,143
688,78	1	-0,303
688,948	4	-0,022
689,116	4,5	-0,002
689,296	3	-0,466
689,488	-4	-1,427
689,656	-9,5	-2,267
689,824	-16,5	-3,107
689,992	-23	-3,471
690,16	-24	-3,498
690,328	-24	-3,258
690,52	-12,5	-2,294
690,689	-5	-1,449
690,856	0	-0,614
691,036	4	-0,048
691,205	4	-0,003
691,372	4	-0,116
691,564	-3	-1,093
691,732	-6	-1,928
691,912	-13,5	-2,828
692,08	-21,5	-3,43
692,272	-24	-3,496
692,44	-24	-3,48
692,608	-19	-2,614
692,776	-7	-1,774
692,944	-1,5	-0,869
693,136	3	-0,108
693,304	4	-0,008
693,472	4	-0,001
693,64	0	-0,724
693,808	-4,5	-1,564
693,976	-10,5	-2,408
694,144	-18	-3,239
694,324	-24	-3,484
694,504	-24	-3,499
694,672	-22	-3,014
694,84	-11	-2,173
695,008	-4	-1,333
695,199	0,5	-0,373
695,368	4	-0,028
695,536	4,5	-0,002
695,704	3,5	-0,303
695,872	-3	-1,144
696,04	-7	-1,984
696,208	-13,5	-2,83
696,394	-22	-3,447
696,562	-24	-3,496
696,73	-24	-3,489
696,898	-19,5	-2,638
697,072	-7,5	-1,768
697,252	-1,5	-0,868
697,42	2,5	-0,128
697,588	4	-0,01
697,756	4	-0,001
697,924	0,5	-0,648
698,092	-4	-1,484
698,284	-10,5	-2,448
698,452	-18	-3,27
698,62	-24	-3,483
698,8	-24	-3,499
698,968	-22,5	-3,054
699,136	-11	-2,214
3211,738	4	0
3211,906	0	-0,878
3212,086	-1	-1,718
3212,254	-3	-2,553
3212,422	-7	-3,339
3212,59	-9,5	-3,488
3212,758	-9,5	-3,499
3212,926	-7	-2,995
3213,094	-1,5	-2,155
3213,262	0	-1,32
3213,442	1,5	-0,415
3213,61	4	-0,031
3213,778	4,5	-0,002
3213,946	4	-0,293
3214,114	0	-1,134
3214,282	-1,5	-1,974
3214,45	-3,5	-2,814
3214,618	-8,5	-3,428
3214,786	-9,5	-3,495
3214,954	-9,5	-3,498
3215,134	-4	-2,652
3215,302	-0,5	-1,812
3215,47	0,5	-0,972
3215,638	2	-0,176
3215,806	4	-0,013
3215,974	4	-0,001
3216,022	4,5	0