File: Cycling_tests/_20perc/_2gap/entrada/_4.txt
Time (s)	Load (N)	Displacement (mm)
0	0	-0,04
1,896	0,5	-0,018
3,847	-4,5	-0,485
5,761	-16	-1,734
7,668	-31,5	-3,019
9,618	-33	-3,498
11,616	-32	-3,475
14,01	-32,5	-3,499
15,894	-30	-3,429
17,808	-16,5	-2,416
19,722	-6	-1,075
21,605	1,5	-0,001
23,537	1,5	-0,025
25,441	-4,5	-0,716
27,39	-15,5	-1,859
29,381	-25,5	-2,798
31,259	-31,5	-3,497
33,245	-30	-3,455
35,201	-20	-2,757
37,258	-15	-2,23
39,13	-1,5	-0,716
41,02	2	-0,002
42,946	-0,5	-0,109
44,8	-12,5	-1,643
46,684	-28,5	-3,048
48,556	-30,5	-3,493
50,47	-22,5	-3,13
52,45	-13,5	-2,266
54,328	-2,5	-0,794
56,235	2	-0,002
58,155	1	-0,074
60,064	-7,5	-1,157
62,002	-19	-2,307
63,873	-30	-3,499
65,763	-29	-3,451
67,599	-13	-2,139
69,447	0	-0,516
71,325	2,5	-0,006
73,172	-2,5	-0,537
75,044	-15,5	-2,017
76,97	-29,5	-3,241
78,8	-29	-3,479
80,666	-15,5	-2,554
82,52	-4,5	-1,047
84,362	2,5	-0,002
86,22	-0,5	-0,317
87,992	-19	-2,334
89,79	-29	-3,498
91,699	-25,5	-3,384
93,535	-10	-1,867
95,413	1,5	-0,448
97,291	2,5	-0,008
99,103	-4,5	-0,908
100,993	-18	-2,292
102,871	-29	-3,499
104,737	-28	-3,454
106,657	-15,5	-2,568
108,481	-2,5	-0,843
110,334	2,5	-0,003
112,218	0	-0,232
114,036	-13,5	-1,918
115,86	-28,5	-3,499
117,672	-25	-3,394
119,52	-10,5	-2,007
121,34	2	-0,361
123,144	2,5	-0,027
125,009	-5	-0,993
127,247	-2,5	-0,669
129,065	-19	-2,43
130,931	-28,5	-3,499
132,809	-24	-3,397
134,717	-12,5	-2,242
136,529	1	-0,52
138,395	3	-0,006
140,195	-3,5	-0,875
142,006	-21,5	-2,672
143,866	-28,5	-3,497
145,726	-21	-3,187
147,58	-6,5	-1,563
149,398	3	-0,001
151,264	2	-0,069
153,088	-10	-1,606
154,906	-28	-3,401
157,071	-28	-3,483
158,877	-26,5	-3,434
160,684	-8,5	-1,813
162,495	3	-0,009
164,403	3	-0,016
166,275	-3	-0,804
168,135	-16,5	-2,333
169,941	-27,5	-3,498
171,789	-22	-3,29
173,661	-9	-1,962
175,478	3	-0,182
177,309	2,5	-0,036
179,132	-6,5	-1,364
180,962	-25,5	-3,039
182,811	-27,5	-3,492
184,598	-13,5	-2,47
186,464	-3	-0,96
188,306	3	-0,002
190,178	0	-0,239
192,014	-11,5	-1,873
193,831	-27,5	-3,5
195,673	-26	-3,441
197,453	-8,5	-1,882
199,273	3	-0,141
201,127	3	-0,024
202,939	-6,5	-1,339
283,373	-1,5	-0,709
285,134	-21,5	-2,656
286,862	-25,5	-3,482
288,626	-10	-2,148
290,402	3	-0,181
292,142	1,5	-0,128
293,912	-12,5	-2,02
295,676	-26	-3,498
297,486	-19	-3,17
299,275	-4	-1,261
300,992	3	-0,009
302,731	-6	-1,335
304,447	-26	-3,5
306,229	-22,5	-3,378
307,987	-5	-1,444
309,763	3	-0,002
311,581	0	-0,339
313,339	-16	-2,342
315,085	-26	-3,496
316,848	-12	-2,498
319,062	-14	-2,648
320,826	0	-0,687
361,03	-19,5	-2,686
362,788	-25,5	-3,488
364,552	-8,5	-2,224
366,304	3,5	-0,114
368,043	1	-0,183
369,807	-13,5	-2,153
371,559	-25,5	-3,497
373,323	-14	-2,712
375,051	0,5	-0,778
376,815	3	-0,024
378,531	-9	-1,724
380,289	-25,5	-3,499
382,059	-18	-3,126
383,805	-2	-0,936
385,556	3,5	-0,012
387,746	3,5	-0,01
389,456	-6	-1,498
391,214	-25,5	-3,5
392,984	-21	-3,343
394,724	-3,5	-1,144
396,476	3	-0,007
398,234	-5	-1,223
400,022	-24,5	-3,114
401,774	-23,5	-3,439
403,501	-4,5	-1,434
405,247	3,5	-0,003
407,006	-3,5	-0,948
408,757	-24	-3,027
410,497	-24	-3,436
412,273	-5,5	-1,71
414,055	3,5	-0,001
415,813	0	-0,349
417,601	-14,5	-2,308
419,31	-25	-3,492
421,104	-11	-2,46
422,844	3	-0,334
424,56	1,5	-0,114
426,342	-11,5	-2,043
428,04	-25	-3,495
429,804	-12	-2,541
431,556	2	-0,45
433,302	2,5	-0,069
435,048	-11,5	-2,008
436,794	-25	-3,498
438,51	-11	-2,471
440,249	3	-0,237
441,989	1,5	-0,13
443,741	-13	-2,185
445,493	-25	-3,497
447,251	-12	-2,58
449,015	1,5	-0,48
450,779	3	-0,041
452,507	-9,5	-1,838
454,252	-24,5	-3,498
455,992	-14,5	-2,802
457,75	0	-0,72
459,879	2	-0,46
461,621	3	-0,053
463,354	-10,5	-2,028
465,058	-25	-3,496
466,792	-10,5	-2,346
468,532	3,5	-0,132
470,266	1	-0,172
472	-14,5	-2,318
473,721	-24,5	-3,493
512,869	-24,5	-3,498
514,604	-15	-2,873
516,331	0,5	-0,596
518,053	3	-0,054
519,745	-12	-2,118
521,443	-24,5	-3,494
523,159	-9	-2,242
524,875	3,5	0
526,572	0	-0,388
528,282	-19	-2,73
529,986	-24	-3,471
531,702	-6	-1,762
533,424	3,5	-0,001
535,164	0	-0,5
536,856	-20	-2,876
538,602	-24	-3,468
540,3	-5	-1,662
542,003	3,5	-0,002
543,701	-2,5	-0,98
545,411	-24,5	-3,291
547,121	-19,5	-3,332
548,831	-3	-1,158
550,559	3,5	-0,008
552,275	-6	-1,45
553,985	-24,5	-3,499
555,701	-15	-2,976
557,393	1,5	-0,499
559,108	3	-0,066
560,818	-12	-2,166
562,528	-24,5	-3,494
564,244	-8,5	-2,265
565,966	3,5	-0,026
567,712	1	-0,201
569,434	-15	-2,442
571,15	-24	-3,488
572,866	-7	-1,934
574,576	3,5	-0,001
576,279	-1,5	-0,839
578,001	-22,5	-3,074
579,729	-22	-3,405
581,403	-2,5	-1,125
583,545	-2,5	-1,016
585,267	3,5	-0,013
586,977	-6	-1,588
625,807	-24	-3,332
627,523	-19,5	-3,306
629,219	-3	-1,022
630,912	3,5	-0,025
632,616	-9	-1,909
634,32	-24	-3,497
636,018	-9	-2,315
637,722	3,5	-0,077
639,45	1	-0,221
641,16	-15	-2,579
642,846	-24	-3,472
644,544	-5	-1,558
646,248	3,5	-0,003
647,958	-4	-1,225
649,649	-24	-3,496
651,335	-15	-3,024
653,027	0,5	-0,58
654,713	2	-0,099
656,399	-13	-2,36
658,103	-24	-3,49
659,783	-6	-1,787
661,475	3,5	-0,002
663,173	-3	-1,159
664,877	-24	-3,5
666,616	-15	-3,244
668,326	-1,5	-0,884
670,018	3,5	-0,027
671,734	-8,5	-1,85
673,45	-24	-3,498
675,142	-9,5	-2,316
676,858	3,5	0
678,538	0	-0,579
680,236	-23,5	-2,967
681,922	-18,5	-3,403
683,626	-3	-1,157
685,317	3,5	-0,015
687,021	-6,5	-1,739
688,707	-24	-3,498
690,405	-10	-2,398
692,097	3,5	0
693,783	0	-0,517
695,487	-21	-3,003
697,173	-20,5	-3,383
698,859	-2,5	-1,009
700,556	3,5	-0,023
702,26	-8	-1,919
703,97	-23,5	-3,497
705,656	-9	-2,266
707,361	3,5	0
709,065	0	-0,532
710,744	-24	-3,01
712,442	-21	-3,39
714,134	-3	-1,108
715,82	3,5	-0,024
717,493	-10	-2,014
719,185	-24	-3,495
720,913	-8	-2,207
722,599	3,5	-0,001
724,297	-1	-0,774
725,989	-23,5	-3,173
727,693	-19,5	-3,36
729,367	-2,5	-0,982
731,071	3,5	-0,023
732,781	-8	-1,88
734,461	-24	-3,496
809,744	3,5	-0,124
811,43	0	-0,46
813,128	-18,5	-2,768
814,82	-21,5	-3,443
816,512	-3,5	-1,352
818,192	3,5	-0,012
819,878	-6	-1,651
821,54	-23,5	-3,497
823,231	-9	-2,367
824,905	3,5	0
826,609	0	-0,533
828,289	-21,5	-3,049
829,993	-20,5	-3,4
831,679	-2,5	-1,182
833,353	3,5	-0,019
835,045	-8	-1,836
836,743	-23	-3,498
838,435	-9	-2,372
840,139	3,5	0
841,844	0	-0,463
843,522	-22,5	-3,064
845,214	-19	-3,355
846,918	-2,5	-1,091
848,604	3,5	-0,024
850,296	-8,5	-1,905
852	-23,5	-3,497
853,68	-7,5	-2,189
855,372	3,5	0
857,051	-0,5	-0,693
858,743	-22	-3,054
860,429	-20	-3,382
862,127	-3	-1,227
863,819	3,5	-0,013
865,505	-7	-1,725
867,167	-23	-3,497
868,871	-8,5	-2,315
870,557	3,5	0
872,237	-0,5	-0,559
873,934	-19	-2,869
875,614	-21	-3,427
877,312	-3	-1,291
878,998	3,5	-0,01
880,696	-5,5	-1,531
1030,202	-22,5	-3,498
1031,875	-9,5	-2,44
1033,568	3,5	0
1035,259	0	-0,499
1036,969	-20,5	-2,879
1038,667	-21,5	-3,44
1040,335	-3	-1,19
1042,027	3,5	-0,016
1043,719	-6	-1,719
1045,417	-22,5	-3,498
1047,109	-9	-2,426
1048,788	3,5	0
1050,457	-0,5	-0,683
1052,148	-22	-3,155
1053,828	-17	-3,305
1055,514	-1,5	-0,855
1057,194	3,5	-0,052
1058,868	-12	-2,336
1060,536	-22	-3,476
1062,216	-3,5	-1,452
1063,896	3,5	-0,008
1065,6	-5	-1,561
1067,279	-22,5	-3,498
1068,977	-9,5	-2,47
1070,657	3,5	0
1072,349	0	-0,56
1074,029	-21	-3,014
1075,727	-18,5	-3,378
1077,431	-2	-1,071
1079,123	3,5	-0,022
1080,791	-9	-2,01
1082,501	-22,5	-3,496
1084,168	-5,5	-2,001
1085,861	3,5	-0,002
1087,54	-2,5	-1,164
1089,22	-22,5	-3,5
1090,912	-13	-2,87
1092,616	1,5	-0,475
1094,296	2	-0,15
1096	-13	-2,474
1097,68	-21,5	-3,47
1099,366	-3,5	-1,497
1101,046	4	-0,005
1102,743	-4,5	-1,471
1104,417	-22,5	-3,499
1106,103	-9,5	-2,512
1107,783	3,5	0
1109,463	0	-0,616
1111,143	-21	-3,094
1112,811	-17,5	-3,301
1114,491	-1,5	-0,831
1116,171	3,5	-0,046
1117,869	-9	-2,074
1119,536	-22,5	-3,49
1121,216	-5	-1,775
1122,902	3,5	-0,002
1124,582	-3	-1,244
1126,334	-22,5	-3,363
1128,026	-16	-3,254
1129,724	-1,5	-0,97
1131,392	3,5	-0,034
1133,066	-9,5	-2,099
1134,752	-22,5	-3,494
1136,425	-5	-1,89
1138,111	3,5	-0,002
1139,827	-1,5	-0,895
1434,399	-9	-2,562
1436,066	3,5	-0,03
1437,752	0	-0,426
1439,42	-18	-2,932
1441,1	-19,5	-3,423
1442,786	-2,5	-1,247
1444,46	3,5	-0,014
1446,128	-6	-1,779
1447,808	-21,5	-3,497
1449,488	-7	-2,296
1451,174	3,5	0
1452,859	-0,5	-0,683
1454,527	-21	-3,078
1456,213	-18	-3,37
1457,893	-2	-1,022
1459,585	3,5	-0,023
1461,265	-8	-2,014
1462,933	-21,5	-3,495
1464,631	-6	-2,107
1466,305	3,5	-0,001
1467,979	-1,5	-0,933
1469,665	-21,5	-3,44
1471,344	-14	-3,14
1473,018	1	-0,59
1474,704	2	-0,088
1476,39	-11	-2,371
1478,07	-21,5	-3,484
1479,75	-4	-1,633
1481,436	3,5	-0,004
1483,134	-2,5	-1,226
1484,832	-21,5	-3,5
1486,512	-13	-2,986
1488,179	2	-0,507
1489,865	1,5	-0,132
1491,546	-12,5	-2,442
1493,213	-21,5	-3,478
1494,905	-4	-1,638
1496,585	3,5	-0,004
1498,253	-3,5	-1,39
1499,951	-21,5	-3,499
1501,625	-11	-2,812
1503,299	3	-0,39
1505,002	1,5	-0,124
1506,694	-10,5	-2,303
1508,374	-21,5	-3,488
1510,042	-4	-1,732
1511,728	3,5	-0,002
1513,42	-1,5	-0,964
1515,1	-21,5	-3,31
1516,774	-14,5	-3,149
1518,454	-1	-0,794
1520,128	3	-0,051
1521,79	-9,5	-2,216
1523,482	-21,5	-3,493
1525,149	-5,5	-2,04
1526,823	3,5	-0,001
1528,515	-1	-0,808
1530,195	-21,5	-3,187
1531,887	-18	-3,356
1533,579	-2	-1,095
1535,253	3,5	-0,024
1536,939	-6	-1,814
1538,624	-21,5	-3,498
1540,304	-7,5	-2,289
1541,984	3,5	0
1543,658	-0,5	-0,593
1545,35	-15,5	-2,798
1547,048	-20,5	-3,457
1548,722	-3	-1,518
1550,39	3,5	-0,006
1552,076	-3	-1,338
1553,744	-21,5	-3,499
1555,418	-10	-2,732
1557,086	3	-0,355
1558,778	1,5	-0,164
1560,451	-12	-2,478
1562,131	-21	-3,476
1563,817	-3,5	-1,616
1565,485	3,5	-0,004
1567,165	-2,5	-1,269
1568,833	-21,5	-3,499
1570,513	-11,5	-2,842
1572,193	2	-0,432
1573,873	2	-0,12
1575,564	-11	-2,406
1577,227	-21,5	-3,477
1578,906	-4	-1,631
1580,574	3,5	-0,003
1582,284	-2,5	-1,227
1583,964	-21,5	-3,5
1585,626	-11	-2,758
1587,336	2	-0,467
1589,004	1,5	-0,16
1590,684	-12	-2,486
1592,351	-21	-3,47
1594,025	-3,5	-1,572
1595,699	3,5	-0,004
1597,373	-3	-1,323
1599,053	-21,5	-3,499
1600,727	-10	-2,668
1602,389	3,5	-0,164
1604,069	0,5	-0,32
1605,749	-16	-2,836
1607,417	-18,5	-3,415
1609,103	-2,5	-1,192
1610,794	3,5	-0,01
1612,474	-4,5	-1,568
1614,142	-21,5	-3,498
1615,822	-8,5	-2,489
1617,502	3,5	-0,181
1619,17	0	-0,38
1620,85	-15,5	-2,778
1622,512	-19	-3,418
1624,21	-3	-1,387
1625,883	3,5	-0,01
1627,575	-4,5	-1,556
1629,255	-21,5	-3,498
1630,941	-9	-2,558
1632,627	3	-0,306
1634,307	1,5	-0,152
1635,969	-12,5	-2,512
1637,661	-21	-3,484
1639,341	-4,5	-1,65
1641,021	3,5	-0,004
1642,701	-3	-1,249
1644,399	-21,5	-3,5
1646,072	-12	-2,927
1647,74	2	-0,426
1649,45	2	-0,103
1651,118	-9,5	-2,314
1652,787	-21	-3,483
1654,478	-4,5	-1,771
1656,164	3,5	-0,002
1657,832	-2,5	-1,175
1659,5	-21,5	-3,499
1661,192	-12	-2,942
1662,871	1	-0,566
1664,539	2	-0,121
1666,201	-12,5	-2,548
1667,887	-21	-3,48
1669,555	-4	-1,593
1671,229	3,5	-0,005
1672,891	-3,5	-1,432
1674,577	-21,5	-3,499
1676,245	-10	-2,682
1677,907	3,5	-0,076
1679,574	0	-0,554
1681,273	-18,5	-2,98
1682,964	-19,5	-3,416
1684,626	-2	-1,098
1686,3	3	-0,028
1687,98	-7	-1,991
1689,66	-21,5	-3,495
1691,328	-6	-2,102
1692,996	3,5	-0,001
1694,67	-1,5	-1,02
1696,35	-21,5	-3,472
1698,023	-14	-3,094
1699,691	1	-0,577
1701,371	1,5	-0,11
1703,057	-10	-2,308
1704,737	-21,5	-3,487
1706,411	-4	-1,695
1708,073	3,5	-0,005
1709,765	-3	-1,364
1711,433	-21,5	-3,499
1713,119	-11	-2,783
1714,78	3	-0,264
1716,46	0,5	-0,299
1718,146	-14,5	-2,719
1719,814	-20	-3,448
1721,494	-3	-1,369
1723,18	3,5	-0,011
1724,848	-5	-1,708
1726,534	-21,5	-3,498
1728,22	-7,5	-2,336
1729,894	3,5	0
1731,562	-0,5	-0,765
1733,247	-21,5	-3,292
1734,915	-15	-3,201
1736,577	0	-0,621
1738,245	2	-0,129
1739,931	-10,5	-2,424
1741,623	-21	-3,485
1743,291	-4,5	-1,681
1744,959	3,5	-0,004
1746,639	-3	-1,394
1748,319	-21	-3,499
1749,986	-9,5	-2,678
1751,672	3,5	-0,254
1753,34	0	-0,406
1755,02	-16,5	-2,835
1756,694	-19,5	-3,436
1758,362	-2	-1,112
1760,036	3,5	-0,025
1761,716	-7	-1,891
1763,408	-21,5	-3,496
1765,088	-5	-2,115
1766,762	3,5	-0,001
1768,429	-1,5	-1,014
1770,103	-21	-3,5
1771,765	-11,5	-2,968
1773,433	2,5	-0,42
1775,101	0,5	-0,254
1776,775	-15	-2,755
1778,437	-19,5	-3,446
1780,117	-2,5	-1,292
1781,791	3,5	-0,015
1783,471	-5,5	-1,796
1785,151	-21	-3,497
1786,824	-6,5	-2,327
1788,493	3,5	-0,001
1790,154	-1	-0,839
1791,822	-21	-3,274
1793,496	-15	-3,259
1795,59	-11,5	-2,908
1797,264	3	-0,544
1798,932	2,5	-0,098
1800,6	-12	-2,464
1802,273	-20,5	-3,478
1803,953	-4,5	-1,82
1805,627	4	-0,002
1807,295	-1,5	-1,1
1808,969	-21	-3,48
1810,661	-13	-3,163
1812,335	-1	-0,88
1814,015	3,5	-0,033
1815,683	-7,5	-1,985
1817,363	-21	-3,496
1819,048	-7,5	-2,381
1820,71	3,5	-0,003
1822,372	0	-0,508
1824,04	-16	-2,812
1825,72	-19,5	-3,454
1827,4	-3	-1,497
1829,062	4	-0,006
1830,742	-3,5	-1,445
1832,404	-21	-3,498
1834,072	-8	-2,55
1835,77	3	-0,314
1837,438	1	-0,207
1839,099	-14,5	-2,654
1840,779	-20	-3,469
1842,459	-3	-1,574
1844,139	3,5	-0,004
1845,807	-3	-1,402
1847,487	-21	-3,499
1849,179	-10,5	-2,85
1850,841	3	-0,388
1852,521	1,5	-0,137
1854,201	-11	-2,372
1855,887	-21	-3,488
1857,554	-4,5	-1,811
1859,222	3,5	-0,002
1860,902	-2	-1,068
1862,57	-21	-3,457
1864,232	-12	-3,014
1865,912	0	-0,733
1867,586	3	-0,057
1869,266	-8,5	-2,174
1870,933	-21	-3,492
1872,625	-5,5	-2,07
1874,305	3,5	-0,001
1875,967	-1	-0,898
1877,635	-21	-3,305
1879,327	-15	-3,284
1881,007	-1	-0,943
1882,675	3	-0,042
1884,337	-7,5	-2,059
1886,005	-21	-3,494
1887,673	-5,5	-2,183
1889,341	3,5	-0,001
1891,015	-0,5	-0,721
1892,694	-19,5	-3,05
1894,362	-17,5	-3,369
1896,03	-1,5	-1,08
1897,692	3,5	-0,027
1899,36	-5,5	-1,853
1901,022	-21	-3,497
1902,726	-7,5	-2,482
1904,394	3,5	-0,089
1906,055	0	-0,458
1907,723	-15	-2,778
1909,397	-19	-3,452
1911,065	-2,5	-1,415
1912,751	4	-0,005
1914,425	-2,5	-1,304
1916,105	-20,5	-3,5
1917,773	-11,5	-2,986
1919,447	0	-0,74
1921,121	3	-0,058
1922,801	-7	-2,058
1924,462	-21	-3,493
1926,13	-5	-1,996
1927,798	3,5	-0,001
1929,466	-1	-0,907
1931,135	-20,5	-3,246
1932,802	-14,5	-3,235
1934,464	-0,5	-0,81
1936,132	2,5	-0,054
1937,794	-8,5	-2,138
1939,468	-20,5	-3,493
1941,16	-5,5	-2,12
1942,828	3,5	-0,001
1944,495	-0,5	-0,793
1946,157	-20,5	-3,238
1947,843	-15,5	-3,318
1949,511	-1	-0,983
1951,191	3,5	-0,032
1952,859	-6,5	-2,027
1954,533	-20,5	-3,495
1956,207	-5,5	-2,18
1957,875	3,5	-0,001
1959,536	-0,5	-0,881
1961,211	-20	-3,166
1962,884	-16	-3,321
1964,546	-1	-0,875
1966,208	3,5	-0,043
1967,882	-7	-2,029
1969,55	-20,5	-3,495
1971,236	-5,5	-2,135
1972,904	3,5	-0,001
1974,584	-0,5	-0,773
1976,252	-19,5	-3,109
1977,919	-16,5	-3,355
1979,605	-2	-1,209
1981,279	3,5	-0,024
1982,941	-6	-1,966
1984,615	-20,5	-3,496
1986,283	-6	-2,294
1987,951	3,5	-0,001
1989,655	0	-0,498
1991,335	-14,5	-2,8
1993,015	-19,5	-3,446
1994,682	-2,5	-1,37
1996,35	3,5	-0,01
1998,03	-4	-1,574
1999,692	-20,5	-3,498
2001,366	-7	-2,39
2003,028	3,5	0
2004,696	0	-0,744
2006,364	-20	-3,193
2008,026	-15	-3,291
2009,694	-1	-0,813
2011,356	3	-0,094
2013,023	-10	-2,369
2014,697	-20	-3,483
2016,372	-3,5	-1,694
2018,045	4	-0,004
2019,737	-2	-1,224
2021,411	-20	-3,499
2023,079	-10	-2,825
2024,759	2,5	-0,389
2026,439	1,5	-0,21
2028,119	-13	-2,639
2029,792	-19,5	-3,463
2031,46	-2,5	-1,399
2033,128	4	-0,014
2034,796	-4,5	-1,758
2036,458	-20	-3,497
2038,12	-5,5	-2,147
2039,812	3,5	-0,001
2041,492	-0,5	-0,916
2043,154	-19,5	-3,48
2044,834	-13,5	-3,148
2046,502	0,5	-0,61
2048,164	1,5	-0,141
2049,825	-12,5	-2,585
2051,493	-19,5	-3,461
2053,161	-3	-1,454
2054,823	3,5	-0,012
2056,485	-5	-1,839
2058,171	-20	-3,497
2059,839	-5,5	-2,212
2061,519	3,5	-0,001
2063,187	-1	-0,892
2064,855	-19,5	-3,447
2066,516	-12	-3,028
2068,184	1,5	-0,548
2069,846	1,5	-0,157
2071,514	-11	-2,549
2073,176	-19	-3,466
2074,838	-2,5	-1,367
2076,5	4	-0,012
2078,162	-4	-1,702
2079,854	-20	-3,498
2081,534	-7,5	-2,432
2083,207	3,5	0
2084,869	0	-0,598
2086,537	-18,5	-3,115
2088,211	-16	-3,349
2089,879	-1	-0,918
2091,547	3	-0,043
2093,227	-8,5	-2,234
2094,889	-20	-3,488
2096,557	-3,5	-1,698
2098,231	3,5	-0,004
2099,898	-3	-1,434
2101,602	-20	-3,499
2103,264	-8,5	-2,658
2104,932	3,5	-0,168
2106,594	0	-0,514
2108,262	-18	-3,063
2109,966	-17,5	-3,417
2111,634	-1,5	-1,108
2113,302	3,5	-0,032
2114,976	-7	-2,093
2116,643	-20	-3,494
2118,311	-4,5	-1,9
2119,991	3,5	-0,002
2121,653	-2	-1,271
2123,327	-19,5	-3,499
2124,995	-9	-2,719
2126,657	3,5	-0,165
2128,337	0	-0,441
2130,005	-18,5	-2,873
2131,679	-17	-3,42
2133,358	-2	-1,135
2135,027	3,5	-0,032
2136,712	-6	-1,985
2138,38	-19,5	-3,495
2140,048	-5	-2,022
2141,728	3,5	-0,001
2143,408	-0,5	-0,948
2145,082	-19,5	-3,354
2146,744	-12,5	-3,12
2148,412	0	-0,64
2150,086	2,5	-0,111
2151,76	-12	-2,458
2153,427	-19,5	-3,477
2155,089	-3	-1,489
2156,751	4	-0,008
2158,419	-3	-1,551
2160,087	-19,5	-3,498
2161,749	-7,5	-2,46
2163,417	3,5	0
2165,091	0	-0,628
2166,765	-19,5	-3,055
2168,475	-17	-3,43
2170,142	-2	-1,271
2171,817	3,5	-0,014
2173,508	-3,5	-1,621
2175,188	-19,5	-3,498
2176,851	-7	-2,443
2178,518	3,5	0
2180,18	0	-0,649
2181,848	-16,5	-3,038
2183,51	-15,5	-3,344
2185,172	-1	-0,974
2186,839	3,5	-0,035
2188,501	-6,5	-2,048
2190,169	-19,5	-3,493
2191,851	-4,5	-1,992
2193,523	3,5	-0,002
2195,185	-1	-1,06
2196,859	-19,5	-3,49
2198,527	-12	-3,011
2200,189	1	-0,554
2201,851	2	-0,138
2203,525	-10	-2,475
2205,199	-18,5	-3,478
2206,866	-3	-1,583
2208,546	3,5	-0,003
2210,214	-1,5	-1,194
2211,876	-19,5	-3,5
2213,544	-11,5	-2,931
2215,218	0,5	-0,599
2216,88	3	-0,096
2218,548	-8	-2,274
2220,24	-19,5	-3,491
2221,907	-4,5	-1,926
2223,569	3,5	-0,002
2225,237	-1,5	-1,181
2226,917	-19,5	-3,499
2228,585	-10,5	-2,876
2230,253	2,5	-0,39
2231,921	1,5	-0,193
2233,595	-11	-2,534
2235,257	-19	-3,467
2236,919	-2,5	-1,408
2238,581	3,5	-0,008
2240,284	-2	-1,371
2241,952	-19,5	-3,499
2243,62	-8,5	-2,652
2245,282	3,5	-0,123
2246,95	0	-0,541
2248,618	-16,5	-3,01
2250,286	-15,5	-3,38
2251,96	-1,5	-0,948
2253,628	3,5	-0,03
2255,296	-7	-2,081
2256,963	-19,5	-3,494
2258,643	-4,5	-2,023
2260,305	3,5	-0,002
2261,985	-1	-0,943
2263,653	-19	-3,486
2265,321	-11,5	-3,062
2266,989	2,5	-0,506
2268,657	1,5	-0,202
2270,343	-12	-2,649
2272,005	-18	-3,456
2273,667	-2	-1,267
2275,346	3,5	-0,016
2277,026	-5	-1,834
2278,706	-19	-3,497
2280,368	-5	-2,182
2282,036	3,5	-0,001
2283,704	-0,5	-0,79
2285,372	-19	-3,268
2287,04	-13	-3,202
2288,714	0	-0,753
2290,382	2,5	-0,083
2292,049	-9,5	-2,362
2293,711	-18,5	-3,48
2295,379	-3	-1,722
2297,059	3,5	-0,004
2298,739	-2	-1,274
2300,437	-19	-3,499
2302,111	-9,5	-2,925
2303,791	2,5	-0,474
2305,459	1,5	-0,191
2307,121	-12,5	-2,699
2308,801	-18	-3,457
2310,504	-3	-1,576
2312,172	3,5	-0,006
2313,852	-3	-1,443
2315,52	-19	-3,499
2317,188	-7,5	-2,636
2318,868	3,5	-0,244
2320,548	0,5	-0,424
2322,216	-15	-2,945
2323,884	-16	-3,408
2325,546	-1,5	-1,048
2327,213	3,5	-0,02
2328,875	-5,5	-2,007
2330,543	-19	-3,494
2332,205	-4	-1,922
2333,867	3,5	-0,002
2335,535	-1,5	-1,218
2337,203	-19	-3,499
2338,889	-9,5	-2,896
2340,557	2	-0,486
2342,219	1	-0,238
2343,88	-14	-2,796
2345,548	-17	-3,433
2347,216	-2	-1,181
2348,878	3,5	-0,022
2350,54	-6	-1,995
2352,22	-19	-3,495
2353,882	-4,5	-2,033
2355,562	3,5	-0,002
2357,224	-1	-1,069
2358,892	-19	-3,428
2360,56	-11	-3,035
2362,227	2	-0,586
2363,901	2	-0,107
2365,569	-10,5	-2,45
2367,237	-18,5	-3,479
2368,923	-3	-1,728
2370,585	3,5	-0,003
2372,253	-2	-1,348
2373,921	-19	-3,499
2375,595	-8	-2,673
2377,257	3,5	-0,163
2378,925	0	-0,456
2380,586	-16	-2,95
2382,255	-15,5	-3,391
2383,928	-1,5	-1,094
2385,596	3,5	-0,03
2387,264	-6,5	-2,075
2388,932	-19	-3,494
2390,6	-4	-1,954
2392,262	4	-0,002
2393,93	-1,5	-1,186
2395,592	-19	-3,5
2397,253	-9,5	-2,879
2398,921	2,5	-0,474
2400,595	1,5	-0,133
2402,257	-9,5	-2,45
2403,919	-18	-3,479
2405,581	-2,5	-1,582
2407,255	3,5	-0,006
2408,923	-3	-1,47
2410,585	-18,5	-3,499
2412,253	-7,5	-2,645
2413,914	3,5	-0,155
2415,582	0	-0,51
2417,244	-17	-3,014
2418,912	-15	-3,364
2420,574	-1	-0,942
2422,236	3	-0,059
2423,922	-6,5	-2,144
2425,584	-18,5	-3,49
2427,258	-3,5	-1,783
2428,926	3,5	-0,003
2430,594	-2	-1,386
2432,255	-18,5	-3,499
2433,924	-7	-2,572
2435,591	3,5	-0,09
2437,283	0,5	-0,403
2438,951	-12	-2,723
2440,619	-17	-3,448
2442,281	-1,5	-1,223
2443,949	3,5	-0,022
2445,617	-5	-1,945
2447,285	-18	-3,495
2448,959	-4,5	-2,167
2450,62	4	-0,001
2452,288	0	-0,856
2453,951	-18	-3,39
2455,612	-10,5	-3,044
2457,328	0	-0,837
2458,996	3	-0,06
2460,664	-7,5	-2,252
2462,332	-18	-3,488
2464	-3	-1,82
2465,668	3,5	-0,003
2467,336	-1,5	-1,168
2468,997	-18	-3,499
2470,659	-9	-2,839
2472,327	3	-0,342
2473,989	1,5	-0,276
2475,663	-12,5	-2,698
2477,331	-17	-3,446
2478,993	-2	-1,334
2480,655	4	-0,014
2482,323	-5	-1,774
2483,99	-18,5	-3,497
2485,652	-5,5	-2,277
2487,314	4	-0,001
2488,976	-0,5	-0,871
2490,644	-18	-3,275
2492,306	-13	-3,245
2493,974	-0,5	-0,802
2495,66	3,5	-0,034
2497,328	-5,5	-2,079
2498,996	-18	-3,494
2500,658	-3,5	-1,903
2502,325	4	-0,002
2503,987	-1	-1,189
2505,649	-18	-3,5
2507,317	-9	-2,874
2508,985	2	-0,448
2510,683	2,5	-0,126
2512,351	-8,5	-2,394
2514,013	-17,5	-3,478
2515,681	-2,5	-1,556
2517,343	3,5	-0,004
2519,004	-2,5	-1,48
2520,666	-18	-3,498
2522,334	-6	-2,481
2524,014	3,5	-0,082
2525,682	1	-0,441
2527,35	-13,5	-2,845
2529,03	-16,5	-3,441
2530,692	-1,5	-1,219
2532,36	4	-0,02
2534,028	-4	-1,849
2535,696	-18	-3,496
2537,357	-4,5	-2,214
2539,025	4	-0,001
2540,687	0	-0,894
2542,349	-18	-3,274
2544,017	-12,5	-3,286
2545,679	-1	-0,957
2547,347	3,5	-0,044
2549,021	-5	-2,027
2550,689	-18	-3,494
2552,363	-4,5	-2,021
2554,025	3,5	-0,002
2555,693	-0,5	-0,911
2557,366	-17,5	-3,203
2559,028	-13,5	-3,296
2560,696	-0,5	-0,947
2562,358	3,5	-0,038
2564,038	-5	-1,93
2565,706	-17,5	-3,496
2567,386	-4,5	-2,234
2569,072	3,5	-0,001
2570,758	0	-0,624
2572,449	-14	-2,934
2574,117	-14,5	-3,405
2575,785	-1,5	-1,212
2577,465	3,5	-0,016
2579,133	-3	-1,679
2580,807	-17	-3,498
2582,469	-6	-2,42
2584,137	3,5	0
2585,805	0,5	-0,553
2587,473	-15	-2,973
2589,152	-15	-3,408
2590,832	-1,5	-1,256
2592,5	3,5	-0,017
2594,168	-3,5	-1,758
2595,836	-17	-3,497
2597,498	-5,5	-2,288
2599,16	3,5	0
2600,822	0	-0,632
2602,484	-15	-3,056
2604,152	-14	-3,371
2605,82	-1	-1,075
2607,487	3,5	-0,021
2609,179	-3	-1,659
2610,841	-17	-3,498
2612,509	-6	-2,514
2614,177	3,5	-0,058
2615,839	0,5	-0,478
2617,507	-12,5	-2,871
2619,169	-15	-3,42
2620,837	-1,5	-1,218
2622,499	3,5	-0,017
2624,16	-3	-1,749
2625,822	-16,5	-3,497
2627,484	-5	-2,261
2629,146	3,5	-0,001
2630,808	0	-0,712
2632,47	-14,5	-3,029
2634,144	-14	-3,384
2635,806	-1	-1,064
2637,492	3,5	-0,017
2639,172	-3	-1,652
2640,846	-16	-3,498
2642,513	-6	-2,508
2644,181	3,5	-0,082
2645,843	1	-0,472
2647,517	-11	-2,836
2649,179	-15	-3,426
2650,841	-1,5	-1,17
2652,515	3,5	-0,013
2654,177	-3	-1,791
2655,845	-16	-3,497
2657,507	-4	-2,203
2659,168	3,5	-0,001
2660,836	0	-0,848
2662,504	-15	-3,228
2664,19	-10,5	-3,277
2665,852	-0,5	-0,932
2667,526	3,5	-0,033
2669,188	-3,5	-1,969
2670,862	-15	-3,496
2672,524	-4	-2,16
2674,204	4	-0,001
2675,865	0	-0,83
2677,533	-14,5	-3,237
2679,207	-10,5	-3,277
2680,869	-0,5	-0,933
2682,537	3,5	-0,04
2684,199	-4	-2,127
2685,867	-15	-3,492
2687,535	-3	-1,987
2689,203	4	-0,001
2690,871	0	-0,92
2692,533	-15	-3,36
2694,2	-10	-3,168
2695,869	0	-0,822
2697,53	3,5	-0,05
2699,198	-4	-2,099
2700,885	-15	-3,494
2702,564	-4	-2,192
2704,232	4	-0,001
2705,9	0	-0,749
2707,58	-12,5	-3,052
2709,248	-11	-3,348
2710,909	-0,5	-0,879
2712,596	3,5	-0,034
2714,263	-3,5	-2,014
2715,925	-15	-3,494
2717,593	-3,5	-2,022
2719,261	4	-0,001
2720,929	0	-0,976
2722,609	-14,5	-3,312
2724,277	-10,5	-3,258
2725,945	-0,5	-0,868
2727,613	3,5	-0,054
2729,287	-5,5	-2,228
2730,954	-14,5	-3,488
2732,628	-3	-1,848
2734,296	4	-0,002
2735,958	-0,5	-1,176
2737,62	-14,5	-3,499
2739,288	-6	-2,776
2740,956	3,5	-0,327
2742,636	1,5	-0,204
2744,298	-7,5	-2,55
2745,96	-13,5	-3,47
2747,64	-2	-1,578
2749,307	4	-0,005
2750,975	-1,5	-1,452
2752,637	-14,5	-3,498
2754,305	-4,5	-2,489
2755,967	3,5	-0,001
2757,635	0	-0,646
2759,303	-13,5	-3,142
2760,977	-9,5	-3,297
2762,645	0	-0,833
2764,313	3	-0,048
2766,022	-3,5	-1,943
2767,696	-14	-3,494
2769,358	-2,5	-1,898
2771,026	4	-0,002
2772,694	0	-1,11
2774,356	-13,5	-3,499
2776,018	-6	-2,858
2777,68	3,5	-0,369
2779,348	1,5	-0,269
2781,016	-8	-2,665
2782,689	-13,5	-3,464
2784,363	-1,5	-1,435
2786,025	3,5	-0,008
2787,699	-1,5	-1,543
2789,361	-13,5	-3,499
2791,023	-4	-2,48
2792,685	3,5	0
2794,365	0	-0,68
2796,051	-13,5	-3,124
2797,719	-9,5	-3,318
2799,381	0	-0,839
2801,042	2,5	-0,072
2802,704	-5	-2,388
2804,372	-13,5	-3,482
2806,034	-2	-1,594
2807,714	3,5	-0,006
2809,376	-1,5	-1,608
2811,038	-14	-3,498
2812,706	-4	-2,274
2814,368	3,5	-0,001
2816,036	0	-0,946
2817,704	-14	-3,486
2819,371	-7,5	-2,997
2821,045	1,5	-0,559
2822,707	2	-0,119
2824,369	-7	-2,564
2826,031	-13	-3,467
2827,699	-1,5	-1,452
2829,361	3,5	-0,012
2831,035	-2	-1,642
2832,697	-13,5	-3,498
2834,358	-3,5	-2,3
2836,02	3,5	-0,001
2837,688	0	-0,835
2839,356	-13,5	-3,291
2841,018	-7,5	-3,148
2842,686	0,5	-0,655
2844,354	3	-0,064
2846,016	-4,5	-2,288
2847,678	-13	-3,482
2849,346	-2	-1,598
2851,013	3,5	-0,005
2852,682	-0,5	-1,384
2854,349	-13	-3,499
2856,023	-5,5	-2,791
2857,691	3,5	-0,3
2859,353	1	-0,354
2861,015	-10	-2,885
2862,683	-10,5	-3,401
2864,345	-0,5	-1,098
2866,007	3,5	-0,03
2867,669	-3,5	-2,135
2869,33	-13	-3,491
2870,992	-2	-1,744
2872,66	4	-0,004
2874,322	-0,5	-1,465
2875,984	-12,5	-3,499
2877,652	-4	-2,571
2879,32	3,5	0
2880,988	1	-0,56
2882,65	-11	-3,06
2884,318	-9	-3,372
2885,992	0	-0,952
2887,654	3	-0,048
2889,321	-3	-2,198
2890,989	-12,5	-3,49
2892,657	-1,5	-1,778
2894,319	4	-0,002
2895,987	0	-1,152
2897,679	-12,5	-3,487
2899,347	-6	-2,967
2901,009	2,5	-0,447
2902,683	1,5	-0,177
2904,356	-7	-2,65
2906,024	-12	-3,46
2907,686	-1,5	-1,338
2909,354	3,5	-0,014
2911,016	-2	-1,78
2912,684	-12,5	-3,497
2914,376	-3	-2,342
2916,038	3,5	-0,001
2917,7	0	-0,855
2919,362	-12,5	-3,36
2921,029	-6,5	-3,097
2922,691	0,5	-0,73
2924,383	3	-0,055
2926,057	-3	-2,15
2927,731	-12,5	-3,492
2929,393	-2	-1,912
2931,055	4	-0,002
2932,717	0	-1,239
2934,385	-12,5	-3,499
2936,053	-5	-2,813
2937,715	3,5	-0,265
2939,394	1,5	-0,26
2941,08	-5,5	-2,582
2942,742	-11,5	-3,456
2944,41	-0,5	-1,263
2946,084	4	-0,014
2947,752	-1,5	-1,829
2949,438	-12	-3,498
2951,106	-3	-2,312
2952,78	4	0
2954,448	0,5	-0,745
2956,109	-12	-3,304
2957,778	-7,5	-3,22
2959,445	0,5	-0,716
2961,113	2,5	-0,11
2962,787	-5	-2,465
2964,461	-12	-3,475
2966,123	-1	-1,447
2967,791	4	-0,01
2969,459	-1	-1,631
2971,127	-12	-3,498
2972,795	-3	-2,334
2974,462	4	-0,001
2976,136	0,5	-0,779
2977,798	-12	-3,333
2979,472	-6,5	-3,118
2981,134	1	-0,587
2982,802	2	-0,161
2984,47	-5	-2,56
2986,132	-11	-3,468
2987,794	-1	-1,378
2989,462	4	-0,012
2991,129	-1	-1,664
2992,809	-11,5	-3,498
2994,477	-2,5	-2,298
2996,145	4	-0,001
2997,813	0,5	-0,7
2999,487	-10,5	-3,086
3001,161	-8,5	-3,35
3002,823	0	-0,943
3004,485	3,5	-0,037
3006,153	-1,5	-1,973
3007,821	-12	-3,495
3009,5	-2,5	-2,152
3011,186	3,5	-0,001
3012,854	0	-0,82
3014,522	-11	-3,172
3016,196	-7,5	-3,284
3017,87	0	-0,897
3019,538	3,5	-0,047
3021,206	-3	-2,219
3022,874	-11,5	-3,489
3024,554	-1,5	-1,913
3026,215	4	-0,002
3027,907	0	-1,032
3029,575	-11,5	-3,5
3031,237	-5	-2,919
3032,905	3	-0,396
3034,573	2	-0,192
3036,247	-5	-2,545
3037,921	-11	-3,474
3039,601	-1	-1,67
3041,263	4	-0,003
3042,925	0	-1,351
3044,586	-11,5	-3,499
3046,248	-4	-2,677
3047,916	3,5	-0,196
3049,584	1	-0,354
3051,246	-7,5	-2,815
3052,926	-10	-3,447
3054,6	-1	-1,352
3056,262	3,5	-0,011
3057,93	-1	-1,773
3059,592	-11	-3,496
3061,272	-3	-2,33
3062,945	4	0
3064,613	0,5	-0,681
3066,275	-9,5	-3,128
3067,943	-7	-3,3
3069,611	0	-0,912
3071,297	3,5	-0,031
3072,965	-1,5	-1,931
3074,633	-10,5	-3,495
3076,313	-2,5	-2,196
3077,981	4	-0,001
3079,648	0,5	-0,83
3081,346	-9	-3,091
3083,014	-8	-3,351
3084,682	0	-0,955
3086,35	3,5	-0,037
3088,018	-1,5	-2,012
3089,68	-10,5	-3,494
3091,342	-2	-2,085
3093,01	4	-0,001
3094,678	0,5	-0,845
3096,345	-10,5	-3,338
3098,025	-6,5	-3,208
3099,687	0	-0,852
3101,355	3,5	-0,05
3103,017	-2,5	-2,202
3104,679	-10,5	-3,49
3106,359	-1,5	-1,883
3108,027	4	-0,002
3109,707	0	-1,13
3111,369	-10,5	-3,499
3113,031	-4,5	-2,802
3114,692	3,5	-0,363
3116,378	1,5	-0,211
3118,046	-4,5	-2,615
3119,714	-10	-3,464
3121,382	-1	-1,462
3123,05	4	-0,007
3124,73	0	-1,529
3126,398	-10,5	-3,498
3128,066	-3	-2,472
3129,728	4	-0,015
3131,395	1	-0,492
3133,063	-5	-2,731
3134,731	-9,5	-3,452
3136,393	-0,5	-1,363
3138,061	3,5	-0,009
3139,723	0	-1,523
3141,391	-10,5	-3,499
3143,059	-3	-2,588
3144,727	3,5	-0,187
3146,407	1,5	-0,293
3148,075	-3,5	-2,533
3149,748	-10	-3,472
3151,422	-1	-1,54
3153,084	4	-0,006
3154,746	0	-1,556
3156,426	-10	-3,498
3158,1	-3,5	-2,664
3159,792	3,5	-0,352
3161,472	1,5	-0,239
3163,152	-4,5	-2,669
3164,82	-9	-3,452
3166,488	-0,5	-1,254
3168,155	4	-0,014
3169,817	-1	-1,886
3171,485	-10	-3,496
3173,147	-2	-2,118
3174,809	3,5	-0,001
3176,501	0,5	-0,838
3178,163	-10	-3,377
3179,837	-5	-3,122
3181,505	0,5	-0,648
3183,173	2,5	-0,117
3184,84	-3	-2,525
3186,508	-9,5	-3,465
3188,176	-0,5	-1,44
3189,862	3,5	-0,007
3191,53	0	-1,59
3193,198	-10	-3,498
3194,866	-3	-2,508
3196,528	4	0
3198,196	1	-0,639
3199,858	-9	-3,1
3201,532	-7	-3,341
3203,2	-0,5	-1,023
3204,867	3,5	-0,027
3206,535	-1	-1,986
3208,209	-10	-3,495
3209,871	-1,5	-2,123
3211,533	4	-0,001
3213,195	0,5	-0,925
3214,857	-10	-3,36
3216,531	-5,5	-3,11
3218,199	0,5	-0,668
3219,861	2,5	-0,111
3221,522	-3	-2,492
3223,184	-9,5	-3,474
3224,846	-1	-1,478
3226,508	3,5	-0,009
3228,182	-0,5	-1,58
3229,844	-10	-3,498
3231,512	-2	-2,361
3233,186	4	-0,046
3234,854	1	-0,544
3236,515	-8,5	-2,984
3238,183	-7	-3,357
3239,881	-0,5	-1,228
3241,549	3,5	-0,011
3243,217	0	-1,616
3244,879	-10	-3,498
3246,037	3,5	0