File: Cycling_tests/_20perc/_2gap/entrada/_5.txt
Time (s)	Load (N)	Displacement (mm)
0	0,5	-0,146
2,376	-6,5	-1,168
4,926	-24,5	-3,002
7,368	-32,5	-3,494
9,762	-32	-3,321
12,204	-18	-1,895
14,64	-4	-0,578
17,078	2	-0,012
19,451	2	0
21,821	-3	-0,882
24,197	-10,5	-1,806
26,639	-24,5	-3,226
29,051	-31	-3,494
31,799	-11,5	-1,527
34,126	-3	-0,648
36,497	2	-0,04
38,892	2,5	-0,001
41,231	1,5	-0,401
43,618	-8,5	-1,553
46,012	-18	-2,643
48,37	-24	-3,394
50,673	-29	-3,487
52,935	-30	-3,498
55,329	-26,5	-2,988
57,622	-20	-2,352
59,996	-9	-1,377
62,415	0	-0,227
64,713	3	-0,03
67,071	3	-0,002
69,44	2	-0,39
71,793	-6,5	-1,384
74,066	-10,5	-1,984
76,394	-18,5	-2,793
78,8	-28,5	-3,469
81,14	-29	-3,498
83,57	-25	-2,632
85,951	-9	-1,472
88,579	3	-0,007
90,817	3	-0,003
93,086	3	-0,001
95,329	3	-0,169
97,627	-2	-0,805
99,943	-7,5	-1,555
102,277	-13,5	-2,38
104,616	-22,5	-3,212
106,962	-28	-3,486
109,308	-28,5	-3,498
111,684	-24,5	-2,954
114,06	-12	-1,878
116,826	3	-0,004
119,184	3	-0,077
121,524	-2,5	-0,861
123,902	-9	-1,876
126,191	-13	-2,437
128,507	-22,5	-3,212
130,847	-27,5	-3,481
133,157	-28,5	-3,497
135,503	-28	-3,272
137,813	-19,5	-2,498
140,098	-13,5	-1,925
142,384	-7	-1,368
144,701	-0,5	-0,548
147,364	3	-0,018
149,68	-2	-0,829
151,93	-5	-1,238
154,161	-7	-1,588
156,436	-10,5	-2,114
158,691	-14,5	-2,618
160,935	-18,5	-2,998
163,209	-24,5	-3,438
165,489	-27,5	-3,486
167,733	-27,5	-3,496
169,989	-27,5	-3,499
172,274	-27,5	-3,282
174,536	-23,5	-2,823
176,876	-12,5	-1,942
179,57	3,5	-0,015
181,88	3,5	-0,002
184,172	3,5	-0,026
186,422	1,5	-0,536
188,678	-3	-1,017
191,017	-8,5	-1,916
193,316	-13,5	-2,565
195,644	-22	-3,306
197,935	-26	-3,473
200,257	-27	-3,498
202,543	-27	-3,467
204,835	-24,5	-2,907
207,096	-16,5	-2,356
209,76	2,5	-0,07
212,034	3,5	-0,011
214,344	3,5	-0,001
216,661	2	-0,459
218,97	-3,5	-1,117
221,238	-7	-1,762
223,469	-9	-2,154
225,701	-13	-2,48
227,933	-18	-3,034
230,171	-22	-3,345
232,403	-24,5	-3,439
234,617	-26,5	-3,478
236,819	-26,5	-3,491
239,021	-27	-3,495
241,781	-7,5	-1,494
244,018	-4	-1,085
246,256	-1,5	-0,682
248,482	0	-0,378
250,726	1,5	-0,107
252,976	3,5	-0,021
255,214	3,5	-0,005
257,5	3,5	-0,001
259,737	3,5	-0,015
262,006	1,5	-0,539
264,279	-3	-1,08
266,529	-5,5	-1,618
268,792	-9	-2,022
271,029	-10	-2,377
273,651	-26,5	-3,496
275,943	-26	-3,5
278,21	-26	-3,173
280,442	-22,5	-2,868
282,758	-13	-2,038
284,966	-11	-1,756
287,21	-7	-1,42
289,418	-4,5	-1,174
291,612	-3,5	-1,003
293,816	-2,5	-0,869
296,005	-1,5	-0,643
298,255	0,5	-0,234
300,481	2	-0,083
302,725	3,5	-0,023
304,951	3,5	-0,007
307,627	-5,5	-1,588
309,829	-6	-1,715
312,067	-8,5	-2,112
314,286	-11	-2,361
316,518	-14,5	-2,719
318,738	-18	-3,063
320,976	-21,5	-3,351
323,178	-23,5	-3,417
325,428	-25,5	-3,482
327,648	-25,5	-3,494
329,892	-25,5	-3,498
332,087	-25,5	-3,499
334,277	-26	-3,499
336,509	-25,5	-3,292
338,711	-25	-3,149
340,889	-24,5	-3,12
343,163	-19	-2,6
345,419	-13,5	-2,128
347,638	-11,5	-1,788
349,852	-7,5	-1,574
352,03	-6,5	-1,504
354,25	-4,5	-1,217
356,47	-3	-0,973
358,63	-2,5	-0,971
360,79	-2,5	-0,943
362,98	-2	-0,769
365,175	-0,5	-0,496
367,341	-0,5	-0,523
369,525	0	-0,414
371,715	0,5	-0,242
373,899	1	-0,147
376,116	2,5	-0,068
378,321	3,5	-0,026
380,504	3,5	-0,018
382,688	3,5	-0,016
384,908	3,5	-0,007
387,086	3,5	-0,005
389,306	3,5	-0,002
391,544	3,5	-0,001
393,764	3,5	-0,011
395,9	3,5	0
398,072	3,5	-0,001
400,237	3,5	-0,001
402,403	3,5	-0,001
404,605	3,5	0
406,783	3,5	0
408,949	3,5	0
411,175	3,5	-0,24
413,341	3,5	-0,223
415,56	2,5	-0,472
417,768	0	-0,708
419,97	-1,5	-0,883
422,142	-2	-0,946
424,344	-3	-1,009
426,535	-3,5	-1,187
428,688	-4	-1,207
430,878	-4	-1,302
433,073	-5	-1,462
435,233	-4,5	-1,412
437,411	-5	-1,457
439,583	-5	-1,502
441,749	-4,5	-1,456
444,365	-24	-3,45
446,537	-24	-3,469
448,721	-24	-3,46
450,91	-24	-3,47
453,1	-25	-3,49
455,308	-25	-3,492
457,48	-25	-3,493
459,658	-25	-3,494
461,824	-24,5	-3,495
463,996	-25	-3,496
466,161	-24,5	-3,496
468,286	-24,5	-3,49
470,445	-24,5	-3,49
472,629	-24,5	-3,491
474,831	-25	-3,496
476,992	-24,5	-3,496
479,163	-24,5	-3,497
481,299	-24,5	-3,496
483,441	-24,5	-3,495
485,618	-24,5	-3,496
487,748	-24,5	-3,494
489,884	-24,5	-3,486
492,014	-24,5	-3,485
494,144	-24	-3,477
496,262	-24	-3,45
498,43	-24	-3,458
500,612	-24	-3,476
502,747	-24	-3,466
504,915	-24	-3,471
507,031	-23	-3,449
509,173	-22,5	-3,428
511,297	-21,5	-3,384
513,433	-17,5	-3,198
553,223	-6	-1,549
555,34	-7,5	-1,758
557,476	-8,5	-1,885
559,63	-9,5	-1,939
562,198	3	-0,077
564,328	1,5	-0,152
566,452	0,5	-0,273
568,6	1	-0,263
570,736	1	-0,287
572,871	1	-0,319
574,984	0	-0,535
577,101	-1	-0,77
579,231	-2,5	-0,982
581,367	-3	-1,089
583,467	-5	-1,429
585,573	-6,5	-1,703
587,679	-10,5	-2,054
589,791	-12	-2,174
591,92	-14	-2,403
594,026	-18	-2,687
596,144	-22	-2,921
598,256	-24,5	-3,166
600,374	-24	-3,413
602,486	-24	-3,499
605,036	-6,5	-1,678
607,16	-9	-1,93
609,266	-12	-2,166
611,389	-14	-2,354
613,483	-18,5	-2,751
615,625	-19,5	-2,824
617,738	-23,5	-3,093
619,879	-24	-3,221
621,985	-24	-3,5
624,133	-24	-3,5
626,25	-24	-3,499
665,278	-24	-3,185
667,384	-24	-3,467
669,526	-24	-3,5
671,632	-24	-3,499
673,756	-24	-3,498
675,856	-24	-3,494
677,961	-23,5	-3,481
680,061	-22	-3,443
682,173	-20	-3,378
684,291	-17,5	-3,242
686,391	-13,5	-2,864
688,509	-11,5	-2,609
690,621	-9	-2,345
692,727	-7	-2,04
695,252	-23	-3,47
697,346	-21,5	-3,413
699,458	-18	-3,3
701,552	-13,5	-2,932
703,664	-11,5	-2,607
705,77	-8,5	-2,292
707,882	-7	-2,022
710	-5,5	-1,825
712,136	-5	-1,712
714,241	-3,5	-1,413
716,342	-2,5	-1,164
718,441	0	-0,818
720,571	2	-0,627
722,665	3,5	-0,195
724,765	3,5	0
726,859	4	-0,002
728,983	4	-0,003
731,076	3,5	-0,01
733,188	3,5	-0,026
735,312	3,5	-0,051
737,431	2	-0,106
739,53	0,5	-0,334
741,636	-0,5	-0,607
743,748	-2	-0,94
746,304	4	-0,005
748,397	4	-0,017
750,527	3,5	-0,033
752,639	2,5	-0,082
754,739	0,5	-0,22
756,863	0,5	-0,354
758,969	-0,5	-0,664
761,069	-2,5	-1,008
763,169	-4,5	-1,383
765,28	-6	-1,581
767,391	-8,5	-1,798
769,504	-10,5	-2,154
771,611	-14	-2,409
773,722	-16,5	-2,68
775,846	-19,5	-2,916
777,964	-23,5	-3,09
780,082	-23,5	-3,372
782,194	-23,5	-3,5
784,323	-23,5	-3,499
786,429	-23,5	-3,498
788,535	-23,5	-3,496
790,641	-23,5	-3,488
792,747	-22,5	-3,469
794,859	-21,5	-3,432
796,971	-19,5	-3,374
799,107	-18,5	-3,333
801,218	-16	-3,128
803,318	-13,5	-2,84
805,43	-10,5	-2,587
807,542	-8,5	-2,307
809,642	-6,5	-2,02
811,76	-5,5	-1,855
813,884	-4,5	-1,631
815,996	-3,5	-1,402
818,095	-2,5	-1,082
820,189	0	-0,777
822,295	3	-0,498
824,407	4	-0,252
826,513	4	-0,003
828,601	4	-0,001
830,731	4	-0,002
832,825	4	-0,004
834,931	4	-0,011
837,036	3,5	-0,026
839,142	3,5	-0,055
841,248	1,5	-0,168
843,36	1	-0,31
845,484	0	-0,451
847,596	0	-0,648
849,696	-1,5	-0,96
852,198	4	-0,01
854,303	3,5	-0,027
856,428	3,5	-0,043
858,521	2,5	-0,117
860,615	1	-0,286
862,727	0	-0,604
864,815	-1,5	-0,853
866,933	-3	-1,137
869,051	-4	-1,344
871,162	-5,5	-1,583
873,274	-6,5	-1,793
875,404	-9,5	-2,03
877,498	-13,5	-2,423
879,604	-17	-2,739
881,71	-20,5	-2,969
883,828	-22,5	-3,19
885,958	-23	-3,389
888,034	-23	-3,499
890,169	-22,5	-3,498
892,275	-23	-3,496
894,388	-23	-3,491
896,487	-22,5	-3,479
898,587	-21	-3,44
900,687	-17,5	-3,329
902,829	-15,5	-3,214
904,923	-12,5	-2,824
907,034	-10	-2,49
909,134	-7	-2,124
911,246	-5	-1,87
913,388	-4,5	-1,745
915,482	-3,5	-1,422
917,606	-2,5	-1,213
919,718	-1,5	-0,927
921,83	1,5	-0,647
923,929	3	-0,417
926,035	4	-0,17
928,135	4	0
930,265	4	-0,001
932,359	4	-0,002
934,453	4	-0,007
936,565	4	-0,016
938,677	3,5	-0,051
940,788	2,5	-0,086
942,894	1,5	-0,198
945,006	0	-0,518
947,106	-1,5	-0,858
949,2	-3,5	-1,303
951,306	-5,5	-1,575
953,418	-7,5	-1,866
955,524	-11	-2,209
957,612	-14,5	-2,603
959,717	-20	-2,999
961,829	-22,5	-3,322
963,929	-22,5	-3,5
966,035	-22,5	-3,499
968,123	-22,5	-3,496
970,211	-22,5	-3,487
972,347	-22,5	-3,483
974,441	-21	-3,448
976,54	-18,5	-3,348
978,67	-16,5	-3,234
980,764	-12,5	-2,862
982,876	-10,5	-2,598
984,964	-7	-2,204
987,058	-5	-1,817
989,158	-3,5	-1,498
991,264	-2,5	-1,204
993,363	-1	-0,932
995,463	2,5	-0,545
997,563	4	-0,175
999,657	4	-0,001
1001,763	4	-0,002
1003,857	4	-0,003
1005,963	4	-0,008
1008,051	3,5	-0,033
1010,162	3	-0,088
1012,28	1	-0,224
1014,374	0	-0,492
1016,486	-0,5	-0,746
1018,604	-1	-0,996
1020,716	-3	-1,234
1022,792	-5,5	-1,694
1024,886	-8	-2,033
1026,968	-12,5	-2,453
1029,067	-16,5	-2,787
1031,149	-22,5	-3,16
1033,237	-22,5	-3,5
1035,361	-22,5	-3,499
1037,449	-22,5	-3,498
1039,573	-22,5	-3,495
1041,685	-22	-3,491
1043,785	-22	-3,475
1045,873	-20	-3,42
1047,984	-18	-3,341
1050,078	-15	-3,138
1052,172	-12	-2,832
1054,29	-10,5	-2,608
1056,384	-8,5	-2,313
1058,484	-6	-1,989
1060,566	-4,5	-1,585
1062,666	-3	-1,302
1064,759	-1,5	-0,97
1066,859	1	-0,623
1068,965	3,5	-0,284
1071,059	4	-0,001
1073,171	4	-0,001
1075,283	4	-0,003
1077,383	4	-0,009
1079,489	3,5	-0,032
1081,588	3	-0,094
1083,67	1	-0,349
1085,782	0	-0,609
1087,882	-1	-0,948
1089,976	-4,5	-1,371
1092,064	-6	-1,835
1094,158	-10,5	-2,179
1096,27	-12,5	-2,444
1098,364	-17	-2,846
1100,469	-21	-3,109
1102,563	-22	-3,5
1104,687	-22	-3,499
1106,775	-22	-3,498
1108,875	-22	-3,497
1110,999	-22	-3,494
1113,099	-22	-3,477
1115,186	-20,5	-3,436
1117,287	-17,5	-3,312
1119,392	-13,5	-2,968
1121,486	-10	-2,587
1123,598	-9	-2,402
1125,692	-6	-2,042
1127,822	-5	-1,79
1129,922	-3	-1,432
1132,01	-2	-1,027
1134,115	0	-0,732
1136,209	2,5	-0,452
1138,339	3,5	-0,259
1140,439	4	0
1142,545	4	-0,001
1144,645	4	-0,002
1146,763	4	-0,004
1148,863	4	-0,015
1150,962	3,5	-0,056
1153,038	1,5	-0,239
1155,138	0	-0,543
1157,25	-0,5	-0,732
1159,35	-2	-1,078
1161,438	-4,5	-1,514
1163,568	-6	-1,693
1165,65	-10	-2,129
1167,75	-13,5	-2,459
1169,843	-17	-2,808
1171,967	-20	-3,008
1174,067	-22	-3,402
1176,149	-22	-3,499
1178,243	-22	-3,496
1180,343	-21,5	-3,486
1182,443	-20,5	-3,456
1184,573	-19	-3,42
1186,66	-15,5	-3,252
1188,766	-12,5	-2,943
1190,884	-11,5	-2,794
1192,966	-8	-2,428
1195,072	-6	-2,1
1197,16	-4,5	-1,733
1199,254	-3	-1,379
1201,36	-2	-1,142
1203,465	0	-0,79
1205,595	1,5	-0,594
1207,683	4	-0,211
1209,801	4	0
1211,889	4	-0,001
1213,995	4	-0,003
1216,083	4	-0,009
1218,195	4	-0,027
1220,29	3	-0,072
1222,376	1	-0,266
1224,482	0	-0,637
1226,606	-0,5	-0,756
1228,718	-2,5	-1,105
1230,818	-3,5	-1,387
1232,912	-6	-1,794
1235,018	-8,5	-2,064
1237,106	-13	-2,448
1239,241	-15	-2,65
1241,329	-21	-3,082
1243,429	-21,5	-3,497
1245,523	-22	-3,499
1247,635	-22	-3,498
1249,729	-21,5	-3,493
1251,871	-21,5	-3,49
1253,959	-20,5	-3,456
1256,058	-17,5	-3,351
1258,164	-14	-3,106
1260,276	-11,5	-2,806
1262,383	-8	-2,442
1264,482	-6,5	-2,192
1266,582	-5	-1,874
1268,67	-3,5	-1,463
1270,752	-2	-1,076
1272,839	0	-0,722
1274,933	3	-0,436
1277,033	3,5	-0,153
1279,133	4	-0,001
1281,215	4	-0,002
1283,297	4	-0,007
1285,409	4	-0,012
1287,491	3,5	-0,03
1289,585	2,5	-0,08
1291,672	1,5	-0,232
1293,772	0	-0,481
1295,872	-0,5	-0,81
1297,954	-2,5	-1,229
1300,048	-4,5	-1,488
1302,148	-6,5	-1,877
1304,248	-10	-2,223
1306,354	-14	-2,58
1308,441	-20	-3,002
1310,548	-21,5	-3,401
1312,659	-21,5	-3,499
1314,759	-21,5	-3,498
1316,859	-21,5	-3,494
1318,953	-21	-3,48
1321,053	-20	-3,443
1323,147	-17,5	-3,331
1325,223	-12	-2,901
1327,322	-9	-2,598
1329,434	-8	-2,403
1331,546	-5,5	-2,06
1333,64	-3,5	-1,652
1335,728	-2,5	-1,187
1337,834	-1,5	-0,93
1339,934	2	-0,632
1342,034	4	-0,292
1344,121	4	-0,001
1346,215	4	-0,002
1348,351	4	-0,002
1350,457	4	-0,005
1352,545	4	-0,02
1354,645	3,5	-0,058
1356,727	1,5	-0,186
1358,839	0	-0,45
1360,915	-1	-0,927
1363,002	-2,5	-1,284
1365,096	-5	-1,602
1367,196	-8	-2,027
1369,284	-11,5	-2,432
1371,366	-16,5	-2,868
1373,46	-21,5	-3,195
1375,542	-21,5	-3,5
1377,642	-21,5	-3,499
1379,742	-21,5	-3,497
1381,817	-21	-3,487
1383,917	-20	-3,461
1386,017	-17,5	-3,376
1388,117	-15	-3,242
1390,205	-12	-2,894
1392,293	-9	-2,558
1394,393	-6,5	-2,207
1396,481	-4,5	-1,844
1398,58	-3	-1,483
1400,692	-2	-1,132
1402,792	-0,5	-0,872
1404,898	1,5	-0,604
1406,98	4	-0,201
1409,08	4	0
1411,18	4	-0,001
1413,291	4	-0,002
1415,379	4	-0,005
1417,479	4	-0,012
1419,579	4	-0,037
1421,697	3	-0,074
1423,791	1	-0,284
1425,891	0	-0,708
1427,997	-1,5	-1,039
1430,096	-3,5	-1,428
1432,196	-6	-1,843
1434,285	-9,5	-2,238
1436,426	-11	-2,357
1438,514	-17	-2,848
1440,596	-21	-3,238
1442,702	-21	-3,457
1444,796	-21,5	-3,499
1446,872	-21	-3,497
1448,971	-21	-3,49
1451,065	-20,5	-3,469
1453,154	-18	-3,389
1455,259	-14	-3,099
1457,359	-10,5	-2,727
1459,459	-8	-2,443
1461,553	-5	-1,984
1463,659	-4	-1,637
1465,759	-3	-1,307
1467,876	-2	-1,094
1469,964	1,5	-0,566
1472,07	4	-0,163
1474,182	4	0
1476,27	4	-0,002
1478,364	4	-0,005
1480,464	4	-0,016
1482,552	3,5	-0,057
1484,639	1,5	-0,21
1486,745	0,5	-0,419
1488,833	-1	-0,85
1490,933	-2,5	-1,148
1493,021	-4	-1,528
1495,109	-7,5	-1,969
1497,215	-9,5	-2,297
1499,309	-14	-2,64
1501,408	-17,5	-2,895
1503,49	-21	-3,288
1505,602	-21	-3,5
1507,714	-21	-3,499
1509,784	-21	-3,497
1511,884	-21	-3,489
1514,002	-20,5	-3,475
1516,096	-19	-3,417
1518,172	-15	-3,152
1520,277	-11	-2,795
1522,383	-8	-2,467
1524,483	-5,5	-2,064
1526,577	-3,5	-1,597
1528,677	-2	-1,215
1530,771	0	-0,834
1532,859	3	-0,417
1534,958	4	-0,012
1537,04	4	-0,002
1539,14	4	-0,003
1541,241	4	-0,01
1543,322	3,5	-0,044
1545,434	3	-0,122
1547,528	0	-0,44
1549,622	-0,5	-0,764
1551,71	-2	-1,159
1553,803	-4	-1,497
1555,879	-7,5	-2,069
1557,955	-13	-2,528
1560,037	-20	-2,97
1562,143	-21	-3,395
1564,255	-21	-3,5
1566,355	-21	-3,498
1568,431	-20,5	-3,495
1570,542	-20,5	-3,488
1572,648	-19	-3,474
1574,73	-18	-3,428
1576,818	-14,5	-3,205
1578,917	-10,5	-2,753
1581,024	-8	-2,458
1583,124	-5,5	-2,071
1585,218	-4	-1,763
1587,288	-2	-1,221
1589,387	0	-0,842
1591,463	3,5	-0,328
1593,563	4	-0,025
1595,639	4	-0,001
1597,745	4	-0,004
1599,863	4,5	-0,007
1601,939	4	-0,031
1604,039	3	-0,086
1606,133	1,5	-0,29
1608,208	0	-0,702
1610,302	-1	-1,057
1612,402	-3	-1,414
1614,49	-5	-1,781
1616,578	-9	-2,218
1618,654	-13,5	-2,658
1620,742	-20,5	-3,02
1622,848	-20,5	-3,311
1624,935	-21	-3,499
1627,035	-21	-3,498
1629,549	-10	-2,378
1631,649	-14,5	-2,677
1633,755	-18,5	-2,993
1635,855	-20,5	-3,371
1637,943	-20,5	-3,499
1640,03	-21	-3,498
1642,118	-20,5	-3,494
1644,206	-20	-3,481
1646,288	-18,5	-3,428
1648,382	-14,5	-3,282
1650,47	-11	-2,89
1652,552	-7,5	-2,438
1654,652	-5	-2,103
1656,722	-3	-1,629
1658,821	-2	-1,282
1660,922	-0,5	-0,969
1662,997	3	-0,514
1665,097	4	-0,143
1667,173	4	-0,001
1669,273	4	-0,003
1671,373	4	-0,007
1673,461	4	-0,024
1675,543	3	-0,089
1677,624	1,5	-0,285
1679,724	0	-0,643
1681,824	-1	-1,024
1683,9	-3,5	-1,445
1685,982	-5,5	-1,833
1688,058	-10	-2,25
1690,17	-13	-2,548
1692,245	-18	-2,986
1694,333	-20,5	-3,312
1696,445	-20,5	-3,498
1698,527	-21	-3,499
1700,609	-20,5	-3,496
1702,697	-20,5	-3,482
1704,791	-19,5	-3,452
1706,879	-15,5	-3,348
1708,961	-13	-3,029
1711,06	-10	-2,725
1713,131	-6	-2,246
1715,224	-4,5	-1,876
1717,312	-3	-1,551
1719,4	-2	-1,145
1721,494	0	-0,826
1723,576	3,5	-0,449
1725,658	4	0
1727,74	4	-0,001
1729,834	4,5	-0,003
1731,945	4	-0,007
1734,051	4	-0,018
1736,139	3,5	-0,069
1738,227	1,5	-0,238
1740,303	0	-0,673
1742,379	-1,5	-1,148
1744,473	-4,5	-1,556
1746,542	-7,5	-2,073
1748,624	-13	-2,567
1750,706	-18,5	-3,003
1752,795	-20,5	-3,434
1754,87	-21	-3,499
1756,952	-20,5	-3,496
1759,028	-20,5	-3,484
1761,122	-19,5	-3,454
1763,228	-17	-3,385
1765,304	-12	-2,997
1767,385	-8	-2,519
1769,473	-4,5	-2,066
1771,549	-3	-1,599
1773,625	-2	-1,139
1775,719	0	-0,827
1777,789	3	-0,454
1779,901	4	-0,19
1781,983	4	-0,001
1784,064	4	-0,002
1786,14	4	-0,01
1788,228	4	-0,031
1790,304	3	-0,108
1792,404	1	-0,282
1794,48	0	-0,719
1796,628	0	-0,751
1798,716	-1,5	-1,133
1800,815	-3	-1,47
1802,903	-5,5	-1,854
1804,985	-10	-2,327
1807,061	-14,5	-2,75
1809,143	-19,5	-3,113
1811,219	-20,5	-3,5
1813,313	-20,5	-3,499
1815,406	-20,5	-3,496
1817,488	-20	-3,484
1819,612	-19,5	-3,471
1821,688	-17,5	-3,404
1823,782	-14	-3,204
1825,882	-10,5	-2,816
1827,976	-7,5	-2,398
1830,052	-4,5	-1,996
1832,14	-3	-1,547
1834,215	-1,5	-1,062
1836,303	0,5	-0,698
1838,379	4	-0,18
1840,461	4	-0,001
1842,549	4	-0,002
1844,631	4	-0,007
1846,737	4	-0,021
1848,843	3,5	-0,046
1850,919	2	-0,153
1853,001	0	-0,489
1855,07	-1	-0,948
1857,17	-3	-1,33
1859,246	-6	-1,828
1861,34	-8,5	-2,183
1863,44	-11,5	-2,484
1865,528	-15,5	-2,817
1867,598	-20	-3,366
1869,686	-20	-3,499
1871,761	-20,5	-3,497
1873,861	-20	-3,492
1875,943	-19,5	-3,47
1878,031	-18	-3,407
1880,101	-13,5	-3,147
1882,171	-9	-2,646
1884,271	-7	-2,349
1886,376	-5	-2,023
1888,452	-3,5	-1,664
1890,534	-2	-1,222
1892,622	0	-0,802
1894,704	3,5	-0,327
1896,774	4	-0,001
1898,856	4	-0,002
1900,932	4	-0,008
1903,001	3,5	-0,042
1905,083	1,5	-0,156
1907,159	0	-0,515
1909,229	-1	-0,97
1911,311	-3	-1,409
1913,387	-5,5	-1,805
1915,481	-9	-2,245
1917,551	-14	-2,719
1919,645	-19	-3,042
1921,72	-20,5	-3,494
1923,796	-20,5	-3,498
1925,878	-20	-3,495
1927,984	-20	-3,485
1930,06	-19	-3,444
1932,142	-14,5	-3,248
1934,212	-10	-2,738
1936,309	-7	-2,362
1938,375	-4,5	-1,904
1940,457	-3	-1,49
1942,545	-1,5	-1,095
1944,633	0,5	-0,667
1946,722	4	-0,282
1948,809	4	0
1950,897	4	-0,001
1952,967	4,5	-0,006
1955,048	4	-0,024
1957,13	3,5	-0,084
1959,23	1,5	-0,237
1961,306	0	-0,681
1963,406	-1	-1,01
1965,494	-2,5	-1,353
1967,582	-5	-1,732
1969,658	-8,5	-2,203
1971,746	-12,5	-2,646
1973,846	-17	-3,002
1975,939	-20	-3,372
1978,021	-20	-3,499
1980,097	-20	-3,497
1982,185	-20	-3,487
1984,261	-19	-3,452
1986,343	-16	-3,33
1988,419	-10,5	-2,882
1990,5	-7,5	-2,537
1992,571	-5	-2,052
1994,64	-3	-1,584
1996,722	-2	-1,153
1998,792	0	-0,721
2000,88	4	-0,26
2002,956	4	-0,001
2005,026	4	-0,003
2007,114	4	-0,009
2009,189	4	-0,029
2011,265	3	-0,117
2013,335	0,5	-0,485
2015,405	-0,5	-1,024
2017,499	-3	-1,374
2019,593	-4,5	-1,748
2021,681	-7	-2,122
2023,763	-11,5	-2,588
2025,839	-20	-3,045
2027,908	-20	-3,497
2029,99	-20	-3,499
2032,06	-20	-3,496
2034,142	-20	-3,486
2036,218	-19	-3,454
2038,288	-14,5	-3,258
2040,376	-10,5	-2,898
2042,451	-7	-2,423
2044,527	-4,5	-1,962
2046,597	-2,5	-1,446
2048,667	-1,5	-1,019
2050,755	1	-0,64
2052,831	4	-0,163
2054,913	4	-0,001
2056,983	4	-0,003
2059,053	4	-0,016
2061,134	3,5	-0,066
2063,204	1	-0,345
2065,286	-0,5	-0,818
2067,368	-2,5	-1,323
2069,444	-5	-1,75
2071,533	-8	-2,14
2073,608	-13	-2,633
2075,69	-19	-3,095
2077,759	-20	-3,5
2079,835	-20	-3,498
2081,923	-20	-3,494
2084,035	-19	-3,482
2086,111	-18,5	-3,431
2088,187	-12,5	-3,154
2090,275	-9,5	-2,748
2092,363	-7	-2,37
2094,451	-4,5	-2,006
2096,521	-3	-1,537
2098,596	-1,5	-1,082
2100,678	0	-0,705
2102,754	4	-0,175
2104,872	4	0
2106,948	4	-0,002
2109,024	4	-0,006
2111,106	4	-0,019
2113,181	3,5	-0,072
2115,264	1	-0,287
2117,333	0	-0,718
2119,403	-2	-1,25
2121,485	-4,5	-1,676
2123,561	-7,5	-2,142
2125,637	-12	-2,613
2127,731	-20	-3,004
2129,831	-20	-3,326
2131,9	-20	-3,499
2133,976	-20	-3,497
2136,052	-19,5	-3,482
2138,128	-17,5	-3,428
2140,216	-14	-3,234
2142,286	-9	-2,753
2144,356	-6	-2,273
2146,432	-3,5	-1,813
2148,52	-3	-1,487
2150,613	-1,5	-1,112
2152,695	0,5	-0,702
2154,789	4	-0,326
2156,865	4	0
2158,965	4	-0,001
2161,041	4	-0,003
2163,111	4	-0,013
2165,198	3,5	-0,048
2167,299	1,5	-0,125
2169,386	0	-0,454
2171,456	-0,5	-0,903
2173,538	-2,5	-1,344
2175,608	-5	-1,728
2177,69	-8,5	-2,105
2179,76	-12	-2,526
2181,836	-17	-2,965
2183,929	-20	-3,304
2186,005	-20	-3,499
2188,105	-20	-3,498
2190,175	-20	-3,491
2192,245	-18,5	-3,448
2194,321	-14,5	-3,28
2196,391	-10,5	-2,904
2198,467	-7	-2,465
2200,555	-5	-2,048
2202,624	-3	-1,6
2204,7	-1,5	-1,193
2206,776	-0,5	-0,866
2208,864	3	-0,502
2210,952	4	-0,13
2213,034	4	-0,001
2215,11	4	-0,004
2217,186	4	-0,012
2219,261	3,5	-0,039
2221,337	2,5	-0,112
2223,419	0,5	-0,378
2225,501	0	-0,757
2227,583	-2	-1,18
2229,665	-4,5	-1,599
2231,741	-7	-2,039
2233,829	-10	-2,402
2235,911	-14	-2,758
2237,98	-19,5	-3,229
2240,11	-20	-3,395
2242,18	-20	-3,499
2244,262	-20	-3,496
2246,338	-19,5	-3,484
2248,414	-18,5	-3,446
2250,508	-15,5	-3,324
2252,578	-10,5	-2,926
2254,677	-8,5	-2,629
2256,753	-5	-2,152
2258,841	-3,5	-1,758
2260,929	-3	-1,437
2262,999	-0,5	-0,898
2265,081	3	-0,441
2267,157	4	0
2269,245	4	-0,001
2271,332	4	-0,004
2273,402	4	-0,018
2275,478	3	-0,069
2277,554	1	-0,307
2279,63	0	-0,788
2281,73	-1,5	-1,074
2283,8	-3,5	-1,474
2285,876	-6,5	-1,933
2287,958	-11	-2,456
2290,027	-16,5	-2,872
2292,103	-19,5	-3,217
2294,179	-20	-3,499
2296,255	-20	-3,497
2298,355	-20	-3,491
2300,431	-19,5	-3,467
2302,525	-18	-3,421
2304,595	-12,5	-3,137
2306,664	-9,5	-2,737
2308,764	-7	-2,386
2310,852	-4,5	-1,996
2312,94	-3	-1,558
2315,01	-1,5	-1,037
2317,11	1	-0,648
2319,21	4	-0,197
2321,298	4	-0,001
2323,373	4,5	-0,002
2325,449	4	-0,009
2327,531	4	-0,034
2329,607	2,5	-0,14
2331,695	0	-0,475
2333,783	-0,5	-0,871
2335,853	-3	-1,361
2337,941	-4,5	-1,778
2340,023	-7,5	-2,203
2342,11	-12	-2,576
2344,18	-17,5	-3,045
2346,256	-20	-3,467
2348,332	-19,5	-3,499
2350,408	-19,5	-3,495
2352,484	-19,5	-3,483
2354,566	-17,5	-3,442
2356,666	-15	-3,302
2358,735	-10	-2,887
2360,818	-6,5	-2,436
2362,905	-4,5	-2,025
2364,981	-3	-1,602
2367,057	-1,5	-1,115
2369,139	0	-0,711
2371,215	4	-0,264
2373,285	4	-0,001
2375,373	4	-0,002
2377,442	4	-0,007
2379,542	3,5	-0,023
2381,612	2,5	-0,095
2383,712	1	-0,318
2385,788	0	-0,758
2387,864	-2	-1,229
2389,964	-3	-1,499
2392,04	-6	-1,992
2394,115	-10,5	-2,426
2396,197	-14,5	-2,829
2398,267	-19,5	-3,259
2400,343	-19,5	-3,499
2402,425	-19,5	-3,498
2404,501	-19,5	-3,49
2406,571	-18	-3,449
2408,653	-15	-3,343
2410,723	-11	-2,953
2412,792	-6	-2,372
2414,898	-5	-2,078
2416,974	-3,5	-1,718
2419,056	-2	-1,266
2421,156	-1,5	-0,996
2423,226	3	-0,452
2425,308	4	-0,003
2427,384	4	-0,001
2429,478	4	-0,003
2431,553	4	-0,015
2433,623	3,5	-0,066
2435,705	1,5	-0,22
2437,775	0	-0,703
2439,851	-1,5	-1,12
2441,939	-3	-1,527
2444,009	-7	-2,044
2446,09	-10,5	-2,435
2448,172	-16	-2,883
2450,248	-19,5	-3,377
2452,324	-19,5	-3,499
2454,412	-19,5	-3,496
2456,482	-19,5	-3,482
2458,552	-16,5	-3,408
2460,634	-13	-3,118
2462,704	-7,5	-2,563
2464,792	-4,5	-2,067
2466,861	-2,5	-1,481
2468,937	-1	-0,946
2471,019	1,5	-0,527
2473,095	4	-0,04
2475,165	4	-0,002
2477,247	4	-0,004
2479,323	4	-0,017
2481,398	3,5	-0,065
2483,474	1,5	-0,237
2485,544	0	-0,653
2487,614	-1	-1,122
2489,696	-3	-1,504
2491,784	-5	-1,83
2493,872	-7,5	-2,183
2495,942	-12	-2,605
2498,017	-19,5	-2,974
2500,117	-19,5	-3,338
2502,193	-19,5	-3,499
2504,269	-19,5	-3,498
2506,363	-19,5	-3,494
2508,439	-19,5	-3,478
2510,515	-14,5	-3,416
2512,597	-14	-3,235
2514,685	-10,5	-2,918
2516,772	-8	-2,555
2518,842	-5	-2,085
2520,918	-3	-1,673
2522,994	-2,5	-1,293
2525,07	-0,5	-0,832
2527,146	3	-0,384
2529,228	4	-0,07
2531,298	4	-0,001
2533,373	4	-0,005
2535,461	4	-0,013
2537,981	0,5	-0,654
2540,069	3,5	-0,268
2542,145	4	-0,001
2544,215	4	-0,002
2546,303	4	-0,007
2548,379	3,5	-0,028
2550,448	2,5	-0,143
2552,524	0	-0,498
2554,594	-1	-1,017
2556,67	-3	-1,477
2558,74	-6,5	-2,03
2560,822	-10,5	-2,461
2562,898	-15,5	-2,927
2564,974	-19,5	-3,427
2567,056	-19,5	-3,499
2569,131	-19,5	-3,496
2571,219	-19	-3,486
2573,289	-18	-3,441
2575,365	-13,5	-3,259
2577,447	-10,5	-2,837
2579,517	-6	-2,353
2581,587	-5	-1,985
2583,675	-3	-1,632
2585,75	-2	-1,204
2587,827	-0,5	-0,738
2589,92	3	-0,362
2591,996	4	0
2594,078	4	-0,002
2596,166	4	-0,005
2598,254	4	-0,018
2600,336	3,5	-0,055
2602,412	1,5	-0,181
2604,487	0	-0,58
2606,563	-1	-1,014
2608,633	-3	-1,505
2610,715	-5,5	-1,935
2612,785	-9	-2,44
2614,855	-15	-2,904
2616,931	-19	-3,294
2619,019	-19,5	-3,499
2621,088	-19,5	-3,497
2623,189	-19,5	-3,493
2625,264	-18,5	-3,472
2627,334	-15	-3,359
2629,41	-12	-3,097
2631,498	-8,5	-2,734
2633,574	-5,5	-2,252
2635,668	-4,5	-1,898
2637,744	-2,5	-1,432
2639,819	-1	-0,988
2641,901	1,5	-0,558
2643,977	4	-0,068
2646,047	4	-0,001
2648,135	4	-0,003
2650,205	4	-0,014
2652,287	3,5	-0,037
2654,363	2,5	-0,111
2656,45	1	-0,294
2658,52	0	-0,768
2660,59	-1,5	-1,174
2662,666	-3	-1,554
2664,736	-6	-1,98
2666,812	-9,5	-2,43
2668,9	-12	-2,74
2670,97	-18	-3,212
2673,051	-18	-3,5
2675,157	-18	-3,499
2677,233	-18,5	-3,497
2679,327	-18	-3,492
2681,397	-17	-3,462
2683,467	-14	-3,356
2685,543	-10,5	-2,999
2687,619	-7,5	-2,623
2689,695	-5	-2,238
2691,776	-3	-1,792
2693,876	-2	-1,451
2695,952	-1	-1,029
2698,028	2	-0,552
2700,104	4	-0,064
2702,174	4	-0,001
2704,244	4	-0,004
2706,338	4	-0,015
2708,414	3	-0,062
2710,495	1	-0,222
2712,577	0	-0,544
2714,653	-0,5	-1
2716,735	-2,5	-1,356
2718,811	-4,5	-1,8
2720,881	-6,5	-2,2
2722,963	-10	-2,555
2725,033	-16,5	-3,041
2727,102	-17,5	-3,471
2729,19	-17,5	-3,499
2731,26	-17,5	-3,496
2733,33	-17	-3,482
2735,406	-15	-3,416
2737,488	-11	-3,17
2739,564	-7,5	-2,718
2741,64	-5	-2,311
2743,715	-3,5	-1,851
2745,797	-2,5	-1,426
2747,873	-0,5	-0,978
2749,949	3	-0,521
2752,019	4	0
2754,119	4	-0,001
2756,195	4	-0,004
2758,271	4	-0,016
2760,353	3	-0,058
2762,44	1	-0,215
2764,51	0	-0,627
2766,592	-0,5	-1,047
2768,668	-2,5	-1,48
2770,744	-4,5	-1,941
2772,814	-7,5	-2,35
2774,908	-11	-2,678
2776,978	-16	-3,134
2779,053	-17	-3,499
2781,135	-17	-3,498
2783,205	-17	-3,493
2785,287	-16	-3,472
2787,363	-15	-3,422
2789,433	-11,5	-3,224
2791,503	-7	-2,778
2793,579	-5	-2,318
2795,655	-3,5	-1,889
2797,73	-2	-1,419
2799,806	-1	-1,027
2801,876	1,5	-0,585
2803,946	4	-0,035
2806,034	4	-0,001
2808,11	4	-0,003
2810,186	4	-0,011
2812,256	3,5	-0,042
2814,356	2	-0,163
2816,431	0,5	-0,619
2818,507	-0,5	-1,052
2820,589	-2	-1,468
2822,659	-4,5	-1,969
2824,738	-7,5	-2,434
2826,805	-13,5	-2,915
2828,881	-15,5	-3,336
2830,957	-16	-3,499
2833,032	-15,5	-3,497
2835,108	-15,5	-3,487
2837,178	-15	-3,455
2839,272	-13	-3,378
2841,348	-9	-3,037
2843,418	-6	-2,552
2845,494	-4,5	-2,194
2847,57	-2,5	-1,734
2849,646	-1,5	-1,358
2851,745	-1	-1,119
2853,845	0	-0,745
2855,921	3,5	-0,362
2857,997	4	-0,001
2860,067	4	-0,002
2862,143	4	-0,008
2864,237	4	-0,029
2866,318	2,5	-0,118
2868,4	1	-0,427
2870,482	0	-0,852
2872,558	-1	-1,328
2874,634	-3	-1,82
2876,71	-5,5	-2,254
2878,78	-10,5	-2,754
2880,856	-14,5	-3,131
2882,956	-15	-3,428
2885,031	-15	-3,499
2887,101	-15	-3,496
2889,177	-15	-3,482
2891,247	-14	-3,443
2893,317	-10	-3,247
2895,393	-6,5	-2,809
2897,463	-4,5	-2,307
2899,539	-2,5	-1,81
2901,62	-1,5	-1,385
2903,696	-0,5	-0,942
2905,766	2,5	-0,46
2907,836	4	0
2909,912	4	-0,002
2911,982	4	-0,005
2914,052	4	-0,024
2916,14	3	-0,088
2918,215	1,5	-0,267
2920,286	0	-0,77
2922,361	-0,5	-1,178
2924,443	-1	-1,56
2926,519	-3,5	-2,046
2928,607	-5	-2,378
2930,695	-8,5	-2,714
2932,777	-13	-3,119
2934,846	-14	-3,5
2936,922	-14	-3,498
2938,992	-14	-3,493
2941,068	-13,5	-3,472
2943,144	-12	-3,4
2945,22	-8	-3,144
2947,296	-6	-2,822
2949,372	-4,5	-2,346
2951,442	-2,5	-1,849
2953,511	-1,5	-1,359
2955,611	-0,5	-1,104
2957,699	1	-0,698
2959,787	3,5	-0,285
2961,875	4	0
2963,957	4	-0,002
2966,039	4	-0,004
2968,109	4	-0,02
2970,203	3,5	-0,067
2972,278	1,5	-0,283
2974,354	0,5	-0,724
2976,436	0	-1,13
2978,512	-1	-1,53
2980,588	-2,5	-1,874
2982,676	-4,5	-2,268
2984,752	-7,5	-2,714
2986,822	-11,5	-3,152
2988,898	-12,5	-3,5
2990,985	-12,5	-3,499
2993,055	-12,5	-3,496
2995,131	-12,5	-3,482
2997,213	-11	-3,433
2999,289	-8	-3,214
3001,359	-5,5	-2,756
3003,447	-4	-2,382
3005,516	-2,5	-1,902
3007,587	-1,5	-1,518
3009,674	-1	-1,214
3011,744	0	-0,745
3013,856	2	-0,592
3015,932	4	-0,137
3018,02	4	-0,001
3020,096	4	-0,002
3022,166	4	-0,007
3024,247	4	-0,032
3026,318	2,5	-0,16
3028,387	1	-0,606
3030,463	0	-1,06
3032,539	-0,5	-1,499
3034,609	-2,5	-1,899
3036,679	-4	-2,374
3038,773	-7	-2,754
3040,848	-11,5	-3,217
3042,924	-12	-3,499
3045	-12	-3,498
3047,07	-12	-3,489
3049,14	-11,5	-3,467
3051,246	-10	-3,413
3053,322	-7,5	-3,221
3055,398	-5	-2,778
3057,479	-4	-2,454
3059,561	-3	-2,093
3061,631	-1,5	-1,63
3063,713	-1	-1,205
3065,795	0	-0,832
3067,865	3	-0,38
3069,947	4	0
3072,023	4	-0,002
3074,111	4	-0,005
3076,181	4	-0,019
3078,256	3	-0,079
3080,332	1,5	-0,279
3082,414	1	-0,702
3084,502	0	-1,065
3086,572	-1	-1,603
3088,642	-2,5	-2,108
3090,712	-5	-2,541
3092,799	-8	-2,936
3094,876	-11,5	-3,402
3096,945	-11,5	-3,499
3099,027	-12	-3,497
3101,097	-11,5	-3,491
3103,167	-11	-3,468
3105,237	-10	-3,4
3107,319	-6,5	-3,189
3109,395	-5	-2,803
3111,471	-3	-2,429
3113,552	-2	-2,034
3115,622	-1	-1,518
3117,698	-0,5	-1,101
3119,786	0,5	-0,801
3121,862	3,5	-0,372
3123,938	4	0
3126,014	4	-0,002
3128,09	4	-0,004
3130,171	4	-0,011
3132,242	3,5	-0,039
3134,335	2,5	-0,113
3136,405	1	-0,493
3138,475	0	-0,926
3140,551	0	-1,268
3142,633	-1	-1,652
3144,709	-3	-2,08
3146,802	-4	-2,413
3148,878	-7,5	-2,82
3150,954	-11	-3,257
3153,036	-11,5	-3,499
3155,112	-11,5	-3,498
3157,182	-11	-3,492
3159,264	-10,5	-3,476
3161,34	-9,5	-3,428
3163,422	-7	-3,304
3165,497	-4,5	-2,858
3167,573	-3	-2,435
3169,649	-2,5	-2,027
3171,719	-1,5	-1,654
3173,801	-0,5	-1,214
3175,913	0	-0,928
3177,989	2	-0,558
3180,07	4	-0,153
3182,147	4	-0,001
3184,216	4	-0,003
3186,292	4	-0,012
3188,368	3,5	-0,051
3190,444	1,5	-0,168
3192,52	0,5	-0,474
3194,596	0	-0,928
3196,672	0	-1,338
3198,741	-1,5	-1,763
3200,811	-2,5	-2,164
3202,893	-5	-2,567
3204,969	-9	-3,012
3207,039	-10,5	-3,452
3209,115	-11	-3,499
3211,185	-10,5	-3,496
3213,255	-10,5	-3,484
3215,33	-10	-3,444
3217,412	-7	-3,317
3219,488	-5	-3,013
3221,558	-4	-2,676
3223,646	-3	-2,372
3225,716	-1,5	-1,845
3227,798	-1	-1,526
3229,904	-0,5	-1,279
3231,98	0,5	-0,824
3234,056	3,5	-0,362
3236,143	4	0
3238,219	4	-0,002
3240,313	4	-0,004
3242,389	4	-0,015
3244,459	3,5	-0,055
3246,529	1,5	-0,232
3246,937	4	0