File: ensaios_Ciclicos/_50perc/_2gap/entrada/_3.txt
Time (s)	Load (N)	Displacement (mm)
0	0	-0,04
2,207	0	-0,387
4,367	0	-0,426
6,527	0,5	-0,488
8,687	-0,5	-0,607
10,853	-0,5	-0,702
13,019	-1,5	-0,789
15,185	-1,5	-0,858
17,345	-2,5	-0,987
19,504	-2	-0,959
21,664	-2,5	-0,955
23,83	-3	-1,078
26,008	-3,5	-1,202
28,168	-4	-1,311
30,346	-4	-1,377
32,512	-4,5	-1,489
34,684	-5	-1,62
36,843	-5,5	-1,765
39,003	-5,5	-1,854
41,169	-6	-1,939
43,329	-6	-2,01
45,495	-7,5	-2,212
47,667	-8,5	-2,424
49,833	-9	-2,424
51,999	-9	-2,414
54,165	-8,5	-2,404
56,324	-8,5	-2,401
58,484	-7,5	-2,36
60,65	-8,5	-2,436
62,816	-9	-2,472
64,976	-9,5	-2,554
67,136	-10	-2,615
69,302	-10	-2,685
71,473	-11,5	-2,826
73,639	-11,5	-2,96
75,805	-12	-2,987
77,977	-12,5	-3,091
80,143	-13	-3,194
82,309	-13,5	-3,274
84,475	-14,5	-3,31
86,641	-14,5	-3,344
88,807	-15	-3,378
90,972	-15,5	-3,405
93,132	-15	-3,405
95,292	-15,5	-3,412
97,464	-15,5	-3,428
99,624	-15,5	-3,439
101,784	-15,5	-3,44
103,956	-16	-3,457
106,116	-16,5	-3,47
108,281	-16,5	-3,477
110,459	-17	-3,488
112,619	-16,5	-3,488
114,779	-16,5	-3,487
116,939	-16,5	-3,491
119,111	-16,5	-3,494
121,277	-16,5	-3,494
123,449	-16,5	-3,496
125,614	-16,5	-3,496
127,786	-16,5	-3,497
129,952	-16,5	-3,497
132,124	-16,5	-3,498
134,29	-16,5	-3,498
136,456	-16,5	-3,498
138,622	-16,5	-3,499
140,794	-16,5	-3,499
142,953	-16,5	-3,499
145,119	-16,5	-3,5
147,285	-16	-3,486
149,451	-16	-3,451
151,611	-16	-3,328
153,777	-16	-3,218
155,943	-15,5	-3,152
158,109	-15	-3,082
160,268	-15	-3,102
162,434	-15	-3,038
164,6	-14,5	-2,962
166,772	-13,5	-2,853
168,944	-12	-2,726
171,11	-11	-2,578
173,276	-10,5	-2,481
175,436	-10,5	-2,463
177,607	-10	-2,406
179,773	-9	-2,273
181,939	-9	-2,262
184,105	-8	-2,155
186,271	-8,5	-2,18
188,437	-7,5	-2,13
190,627	-7	-1,964
192,805	-5,5	-1,781
194,976	-5,5	-1,687
197,136	-5,5	-1,696
199,302	-4,5	-1,663
201,468	-4	-1,529
203,64	-3,5	-1,378
205,812	-3	-1,23
207,978	-2,5	-1,113
210,156	-1,5	-0,92
212,328	-1	-0,762
214,499	-0,5	-0,652
216,659	-0,5	-0,569
218,831	0	-0,327
221,009	0,5	-0,193
223,175	0,5	-0,147
225,341	1	-0,121
227,507	1	-0,103
229,685	1,5	-0,066
231,856	1,5	-0,038
234,028	2	-0,02
236,2	2	-0,01
238,366	1,5	-0,008
240,544	2	-0,004
242,716	1,5	-0,003
244,882	2	-0,002
247,047	2	-0,002
249,213	1,5	-0,001
251,385	1,5	0
253,557	1,5	-0,114
255,729	1,5	-0,346
257,901	0	-0,575
260,067	0	-0,697
262,227	-0,5	-0,822
264,386	-1,5	-0,936
266,564	-2	-1,141
268,742	-2,5	-1,317
270,908	-3	-1,44
273,068	-3	-1,532
275,228	-3,5	-1,673
277,4	-4,5	-1,847
279,572	-5	-2,036
281,749	-5,5	-2,151
283,921	-6	-2,234
286,093	-6,5	-2,408
288,259	-8	-2,562
290,437	-9	-2,745
292,609	-9,5	-2,938
294,781	-11	-3,104
296,947	-11,5	-3,221
299,106	-12	-3,301
301,272	-12	-3,34
303,438	-13,5	-3,394
305,61	-14	-3,438
307,782	-14,5	-3,456
309,96	-15	-3,482
312,132	-15	-3,49
314,304	-15	-3,495
316,475	-15	-3,498
318,647	-15	-3,498
320,825	-15	-3,499
322,997	-15	-3,5
325,169	-15	-3,355
327,341	-14,5	-3,152
329,507	-14,5	-3,093
331,667	-14	-2,995
333,838	-12	-2,81
336,01	-10,5	-2,636
338,194	-8,5	-2,328
340,36	-8,5	-2,226
342,526	-7,5	-2,124
344,698	-5,5	-1,877
346,864	-5	-1,743
349,042	-4,5	-1,572
351,201	-3,5	-1,543
353,367	-3	-1,378
355,533	-2,5	-1,269
357,705	-2	-1,113
359,871	-2	-1,022
362,037	-1	-0,851
364,209	-0,5	-0,709
366,381	0	-0,546
368,541	0	-0,41
370,706	0	-0,26
372,878	1	-0,154
375,038	1	-0,124
377,21	1,5	-0,07
379,388	1,5	-0,045
381,548	1,5	-0,031
383,714	2	-0,017
385,891	2	-0,008
388,051	2	-0,006
390,217	2	-0,004
392,383	1,5	-0,003
394,561	2	-0,002
396,727	2	-0,001
398,893	1,5	-0,001
401,059	2	0
403,225	2	-0,026
405,384	1,5	-0,126
407,544	2	-0,21
409,722	1,5	-0,406
411,894	0,5	-0,57
414,06	0	-0,688
416,22	-0,5	-0,812
418,38	-0,5	-0,84
420,551	-1,5	-1,026
422,729	-2	-1,214
424,895	-2,5	-1,33
427,061	-2,5	-1,491
429,221	-3	-1,621
431,393	-3	-1,71
433,571	-4,5	-1,914
435,743	-4,5	-2,156
437,914	-5,5	-2,298
440,08	-5,5	-2,41
442,24	-6,5	-2,52
444,4	-7	-2,639
446,572	-7,5	-2,727
448,744	-8,5	-2,89
450,91	-9,5	-2,976
453,082	-9,5	-3,096
455,248	-10,5	-3,171
457,413	-11	-3,246
459,579	-11,5	-3,327
461,751	-13	-3,411
463,917	-13,5	-3,447
466,077	-14	-3,464
468,249	-14	-3,476
470,427	-14,5	-3,487
472,605	-14,5	-3,493
474,776	-14,5	-3,496
476,954	-14,5	-3,497
479,12	-14,5	-3,498
481,292	-14,5	-3,499
483,464	-14,5	-3,499
485,624	-14,5	-3,499
487,796	-14,5	-3,5
489,968	-14,5	-3,349
492,139	-14,5	-3,212
494,311	-13	-3,032
496,477	-12	-2,882
498,643	-10,5	-2,717
500,803	-10	-2,634
502,969	-9	-2,507
505,141	-8,5	-2,348
507,301	-8	-2,325
509,472	-7,5	-2,219
511,638	-7	-2,139
513,816	-5,5	-1,99
515,982	-4	-1,782
518,154	-3,5	-1,598
520,314	-3	-1,526
522,474	-2,5	-1,412
524,64	-2	-1,241
526,811	-1,5	-1,103
528,983	-1	-0,942
531,155	-0,5	-0,831
533,327	-0,5	-0,748
535,493	0	-0,647
537,653	0	-0,499
539,819	0	-0,436
541,985	0,5	-0,224
544,156	1	-0,14
546,316	1	-0,106
548,488	1,5	-0,058
550,654	1,5	-0,041
552,826	2	-0,027
554,992	2	-0,018
557,152	2	-0,01
559,342	2	-0,006
561,513	2	-0,004
563,691	2	-0,002
565,863	2	-0,001
568,023	2	-0,001
570,195	2	0
572,367	1,5	-0,101
574,545	1,5	-0,274
576,711	1	-0,426
578,888	0,5	-0,539
581,06	-0,5	-0,74
583,226	-1	-0,911
585,392	-1,5	-1,107
587,558	-2	-1,272
589,73	-2,5	-1,435
591,902	-3	-1,6
594,068	-3	-1,777
596,239	-4	-1,944
598,411	-4	-2,054
600,583	-5	-2,19
602,755	-5,5	-2,391
604,915	-5,5	-2,404
607,075	-6	-2,603
609,247	-7	-2,697
611,413	-7,5	-2,804
613,578	-8,5	-2,9
615,744	-9,5	-3,108
617,91	-10	-3,232
620,076	-12	-3,346
622,248	-12,5	-3,42
624,42	-13,5	-3,452
626,598	-13,5	-3,472
628,77	-14	-3,482
630,935	-14	-3,487
633,101	-14	-3,49
635,267	-14	-3,493
637,439	-14	-3,497
639,611	-14	-3,498
641,789	-14,5	-3,499
643,955	-14	-3,499
646,127	-14	-3,499
648,298	-14	-3,5
650,464	-14	-3,446
652,63	-14	-3,265
654,802	-13	-3,12
656,974	-11,5	-2,972
659,14	-11	-2,924
661,306	-10,5	-2,817
663,472	-10	-2,699
665,643	-8,5	-2,536
667,803	-8	-2,38
669,981	-6,5	-2,228
672,147	-6,5	-2,186
674,319	-5,5	-2,002
676,485	-4,5	-1,831
678,663	-3,5	-1,707
680,829	-3	-1,542
682,989	-2,5	-1,428
685,155	-2,5	-1,343
687,326	-2	-1,184
689,504	-1	-0,98
691,676	-0,5	-0,871
693,854	-0,5	-0,73
696,02	0	-0,581
698,186	0	-0,41
700,358	0,5	-0,229
702,523	0,5	-0,2
704,689	0,5	-0,156
706,849	0,5	-0,157
709,021	1	-0,114
711,187	1	-0,089
713,353	1,5	-0,08
715,525	1,5	-0,044
717,691	1,5	-0,031
719,85	2	-0,021
722,022	2	-0,011
724,188	2	-0,007
726,36	2	-0,005
728,532	2	-0,003
730,704	2	-0,003
732,876	2	-0,002
735,048	2	-0,001
737,213	2	-0,001
739,379	2	-0,001
741,545	1,5	0
743,717	2	-0,077
745,883	2	-0,131
748,049	2	-0,196
750,221	1,5	-0,32
752,393	0,5	-0,526
754,552	0	-0,642
756,718	0	-0,737
758,884	-0,5	-0,812
761,044	-0,5	-0,867
763,216	-1	-0,978
765,382	-1,5	-1,058
767,554	-1,5	-1,19
769,726	-2	-1,289
771,891	-2,5	-1,454
774,057	-2,5	-1,57
776,223	-3	-1,727
778,395	-3	-1,895
780,555	-3,5	-1,94
782,727	-4,5	-2,14
784,887	-5	-2,296
787,053	-5,5	-2,414
789,224	-6,5	-2,631
791,39	-7	-2,763
793,562	-7	-2,868
795,734	-8,5	-3,025
797,9	-9	-3,155
800,06	-10	-3,279
802,226	-11,5	-3,37
804,392	-12	-3,396
806,563	-12,5	-3,433
808,729	-12,5	-3,451
810,895	-13	-3,47
813,061	-13	-3,482
815,221	-13	-3,484
817,399	-13,5	-3,487
819,565	-13,5	-3,49
821,737	-13,5	-3,494
823,896	-13,5	-3,494
826,068	-13,5	-3,496
828,24	-13,5	-3,497
830,412	-13,5	-3,498
832,578	-13,5	-3,498
834,75	-13,5	-3,499
836,916	-13,5	-3,499
839,088	-13,5	-3,499
841,259	-13,5	-3,5
843,425	-13	-3,466
845,591	-13,5	-3,337
847,757	-13,5	-3,23
849,935	-12,5	-3,018
852,095	-12	-2,952
854,261	-10,5	-2,866
856,427	-10,5	-2,823
858,592	-10	-2,733
860,758	-9,5	-2,652
862,924	-8	-2,48
865,09	-7,5	-2,417
867,262	-7	-2,355
869,428	-6,5	-2,28
871,6	-5,5	-2,164
873,76	-5,5	-2,082
875,925	-5,5	-2,039
878,103	-4,5	-1,904
880,269	-4	-1,823
882,441	-3	-1,656
884,607	-3	-1,576
886,779	-2,5	-1,45
888,951	-2	-1,298
891,117	-2	-1,276
893,282	-1,5	-1,19
895,448	-1,5	-1,063
897,614	-1	-0,961
899,78	-0,5	-0,796
901,946	0	-0,657
904,118	0	-0,568
906,29	0	-0,421
908,468	0,5	-0,287
910,633	0,5	-0,191
912,799	1	-0,132
914,965	1,5	-0,08
917,131	1,5	-0,059
919,297	2	-0,044
921,463	2	-0,024
923,629	2	-0,019
925,801	2	-0,014
927,966	2	-0,008
930,126	2	-0,006
932,298	2	-0,005
934,464	2	-0,003
936,636	2	-0,002
938,802	2	-0,002
940,98	2	-0,001
943,146	2	-0,001
945,318	2	0
947,489	2	-0,046
949,655	2	-0,19
951,827	2	-0,266
953,999	1,5	-0,372
956,165	0,5	-0,553
958,331	0,5	-0,714
960,503	-0,5	-0,892
962,675	-1,5	-1,051
964,846	-1,5	-1,224
967,018	-2	-1,387
969,184	-2	-1,521
971,35	-2,5	-1,66
973,516	-3	-1,814
975,688	-3	-1,936
977,854	-4	-2,106
980,014	-4,5	-2,21
982,197	-5	-2,368
984,363	-5,5	-2,555
986,529	-6	-2,645
988,695	-6,5	-2,694
990,867	-6,5	-2,805
993,039	-7,5	-2,904
995,211	-7,5	-3,024
997,389	-8,5	-3,154
999,56	-9,5	-3,251
1001,726	-10	-3,314
1003,898	-11	-3,391
1006,064	-12	-3,44
1008,23	-12,5	-3,459
1010,396	-13	-3,477
1012,568	-13	-3,483
1014,746	-13	-3,49
1016,917	-13,5	-3,494
1019,083	-13	-3,496
1021,249	-13,5	-3,497
1023,421	-13,5	-3,498
1025,581	-13,5	-3,499
1027,747	-13,5	-3,499
1029,919	-13,5	-3,5
1032,091	-13	-3,395
1034,262	-13,5	-3,262
1036,428	-13	-3,17
1038,588	-12	-2,991
1040,754	-10	-2,864
1042,92	-9,5	-2,762
1045,086	-9	-2,66
1047,252	-8	-2,59
1049,43	-6,5	-2,376
1051,595	-5,5	-2,184
1053,767	-5	-2,026
1055,933	-4	-1,856
1058,105	-4	-1,688
1060,271	-3	-1,618
1062,443	-2,5	-1,38
1064,609	-1,5	-1,248
1066,781	-1	-1,046
1068,946	-1	-0,977
1071,118	-0,5	-0,845
1073,284	0	-0,685
1075,456	0	-0,453
1077,622	0,5	-0,27
1079,782	0,5	-0,234
1081,954	1	-0,128
1084,126	1,5	-0,079
1086,291	1,5	-0,071
1088,457	1,5	-0,053
1090,623	1,5	-0,043
1092,795	2	-0,024
1094,961	2	-0,016
1097,133	2	-0,012
1099,299	2	-0,008
1101,465	2	-0,005
1103,63	2	-0,004
1105,802	2	-0,002
1107,968	2	-0,002
1110,134	2	-0,001
1112,3	2	0
1114,46	2	-0,113
1116,632	2	-0,225
1118,804	1,5	-0,31
1120,969	1,5	-0,429
1123,141	0,5	-0,608
1125,307	0	-0,688
1127,473	-0,5	-0,864
1129,639	-0,5	-0,939
1131,805	-1	-1,067
1133,965	-1,5	-1,144
1136,131	-1,5	-1,245
1138,296	-1,5	-1,32
1140,462	-2	-1,453
1142,634	-2	-1,542
1144,794	-2	-1,576
1146,966	-3	-1,76
1149,138	-3	-1,834
1151,31	-3	-1,986
1153,476	-3,5	-2,093
1155,641	-4,5	-2,195
1157,807	-4,5	-2,332
1159,973	-5	-2,455
1162,145	-6	-2,656
1164,311	-6,5	-2,784
1166,483	-8	-2,953
1168,649	-8,5	-3,065
1170,821	-9,5	-3,231
1172,981	-10	-3,25
1175,146	-10,5	-3,318
1177,318	-10,5	-3,383
1179,484	-12	-3,428
1181,644	-12	-3,438
1183,804	-12,5	-3,453
1185,982	-12,5	-3,474
1188,142	-13	-3,482
1190,308	-13	-3,488
1192,473	-13	-3,491
1194,639	-13	-3,495
1196,805	-13	-3,497
1198,977	-13	-3,498
1201,143	-13	-3,498
1203,321	-13	-3,499
1205,487	-13	-3,499
1207,653	-13	-3,499
1209,824	-13	-3,498
1211,99	-13	-3,432
1214,156	-13	-3,327
1216,316	-13	-3,287
1218,488	-12,5	-3,179
1220,654	-12	-3,065
1222,82	-10	-2,948
1224,998	-9	-2,78
1227,163	-8,5	-2,679
1229,335	-8	-2,59
1231,501	-7	-2,458
1233,667	-6	-2,367
1235,833	-6	-2,287
1238,011	-5	-2,094
1240,177	-4,5	-2,034
1242,349	-4	-1,893
1244,514	-3,5	-1,812
1246,68	-3	-1,694
1248,858	-2	-1,523
1251,024	-2	-1,416
1253,19	-2	-1,347
1255,362	-1,5	-1,21
1257,528	-1	-1,077
1259,694	-0,5	-0,933
1261,865	-0,5	-0,849
1264,037	0	-0,702
1266,203	0	-0,621
1268,369	0	-0,537
1270,541	0	-0,4
1272,707	0,5	-0,249
1274,873	0,5	-0,212
1277,051	1,5	-0,115
1279,216	1,5	-0,084
1281,382	1,5	-0,073
1283,554	1,5	-0,05
1285,714	2	-0,052
1287,886	2	-0,039
1290,052	2	-0,028
1292,218	2	-0,022
1294,396	2	-0,012
1296,561	2	-0,007
1298,733	2	-0,006
1300,899	2	-0,005
1303,065	2	-0,004
1305,225	2	-0,004
1307,391	2	-0,002
1309,557	2	-0,002
1311,723	2	-0,002
1313,894	2	-0,002
1316,06	2	-0,001
1318,226	2	-0,001
1320,392	2	-0,001
1322,564	2	-0,001
1324,736	2	0
1326,896	2	-0,018
1329,062	2	-0,211
1331,227	2	-0,32
1333,393	1	-0,428
1335,553	1,5	-0,44
1337,719	1,5	-0,489
1339,891	0,5	-0,578
1342,051	0	-0,697
1344,223	0	-0,813
1346,395	-1	-0,992
1348,56	-1	-1,099
1350,732	-1,5	-1,241
1352,898	-1,5	-1,347
1355,064	-1,5	-1,422
1357,236	-2	-1,532
1359,402	-2	-1,596
1361,58	-2,5	-1,752
1363,746	-2,5	-1,796
1365,917	-3	-1,951
1368,083	-3	-2,045
1370,249	-3,5	-2,124
1372,421	-4	-2,23
1374,581	-4	-2,301
1376,753	-5	-2,594
1378,931	-6	-2,701
1381,097	-6	-2,769
1383,268	-7	-2,89
1385,428	-7	-2,935
1387,6	-7,5	-3,025
1389,766	-7,5	-3,11
1391,932	-9	-3,256
1394,104	-9	-3,306
1396,264	-9,5	-3,345
1398,436	-10,5	-3,395
1400,601	-11	-3,414
1402,767	-12	-3,44
1404,939	-12	-3,46
1407,105	-12	-3,456
1409,277	-12	-3,472
1411,437	-12,5	-3,481
1413,603	-12,5	-3,482
1415,769	-12,5	-3,488
1417,941	-12,5	-3,492
1420,112	-12,5	-3,495
1422,278	-12,5	-3,496
1424,444	-12,5	-3,497
1426,622	-12,5	-3,498
1428,788	-12,5	-3,498
1430,948	-12,5	-3,498
1433,114	-12,5	-3,499
1435,28	-12,5	-3,499
1437,451	-12,5	-3,499
1439,617	-12,5	-3,499
1441,783	-12,5	-3,5
1443,955	-12,5	-3,372
1446,115	-12,5	-3,358
1448,287	-12	-3,17
1450,453	-12	-3,153
1452,625	-11	-3,026
1454,79	-10,5	-2,956
1456,962	-10,5	-2,968
1459,128	-10	-2,91
1461,3	-10	-2,858
1463,466	-9	-2,789
1465,632	-8,5	-2,687
1467,798	-8,5	-2,67
1469,964	-8	-2,649
1472,135	-9	-2,645
1474,301	-7,5	-2,58
1476,467	-7,5	-2,597
1478,639	-7	-2,459
1480,799	-7,5	-2,448
1482,971	-6	-2,332
1485,137	-6	-2,252
1487,303	-5	-2,172
1489,474	-5	-2,136
1491,64	-4,5	-2,072
1493,806	-4,5	-1,991
1495,972	-4	-1,912
1498,138	-4	-1,874
1500,31	-3	-1,768
1502,482	-3	-1,685
1504,648	-2,5	-1,611
1506,825	-2	-1,423
1508,997	-2	-1,382
1511,163	-1,5	-1,349
1513,341	-1	-1,194
1515,507	-1	-1,15
1517,673	-1	-1,108
1519,839	-0,5	-0,99
1521,999	-0,5	-0,924
1524,164	0	-0,786
1526,33	-0,5	-0,774
1528,496	0	-0,737
1530,668	0	-0,606
1532,834	0	-0,531
1535	0	-0,388
1537,166	0	-0,322
1539,332	0	-0,301
1541,503	0,5	-0,207
1543,699	1,5	-0,096
1545,865	1,5	-0,084
1548,031	1,5	-0,053
1550,203	1,5	-0,038
1552,369	2	-0,029
1554,535	2	-0,022
1556,701	2	-0,014
1558,866	1,5	-0,01
1561,038	2	-0,008
1563,204	2	-0,006
1565,364	2	-0,005
1567,536	2	-0,004
1569,702	2	-0,003
1571,868	2	-0,001
1574,046	2	-0,001
1576,211	2	0
1578,383	1,5	-0,13
1580,543	2	-0,206
1582,709	1,5	-0,325
1584,881	0,5	-0,532
1587,047	0	-0,634
1589,213	0	-0,756
1591,379	-1	-0,9
1593,544	-1	-1,023
1595,71	-1,5	-1,151
1597,876	-1,5	-1,236
1600,042	-1,5	-1,364
1602,208	-2	-1,551
1604,368	-2,5	-1,686
1606,534	-2,5	-1,735
1608,7	-3	-1,884
1610,866	-3	-2,07
1613,031	-3,5	-2,22
1615,197	-4,5	-2,358
1617,369	-4,5	-2,5
1619,535	-6	-2,66
1621,707	-6	-2,866
1623,879	-8	-3,06
1626,051	-8,5	-3,25
1628,223	-9,5	-3,337
1630,388	-10	-3,371
1632,548	-10,5	-3,39
1634,72	-11,5	-3,443
1636,88	-12	-3,459
1639,046	-12	-3,469
1641,212	-12	-3,478
1643,384	-12,5	-3,486
1645,55	-12,5	-3,489
1647,715	-12,5	-3,491
1649,881	-12,5	-3,494
1652,047	-12,5	-3,496
1654,213	-12,5	-3,498
1656,379	-12,5	-3,498
1658,551	-12,5	-3,499
1660,723	-12,5	-3,499
1662,888	-12	-3,5
1665,054	-12,5	-3,353
1667,214	-12,5	-3,285
1669,38	-12	-3,214
1671,54	-11,5	-3,057
1673,712	-9,5	-2,908
1675,872	-9	-2,842
1678,044	-8	-2,658
1680,216	-6,5	-2,504
1682,387	-5,5	-2,257
1684,547	-5,5	-2,205
1686,719	-4	-2,027
1688,879	-4	-1,998
1691,045	-3,5	-1,87
1693,217	-3	-1,712
1695,383	-2,5	-1,595
1697,549	-1,5	-1,445
1699,72	-1,5	-1,32
1701,88	-1,5	-1,228
1704,046	-0,5	-1,04
1706,218	-0,5	-0,894
1708,384	0	-0,738
1710,556	0	-0,618
1712,722	0	-0,448
1714,888	0,5	-0,351
1717,053	0,5	-0,274
1719,219	0,5	-0,189
1721,385	0,5	-0,162
1723,551	1,5	-0,099
1725,717	1,5	-0,078
1727,883	1,5	-0,064
1730,049	1,5	-0,051
1732,221	1,5	-0,035
1734,386	2	-0,028
1736,552	2	-0,024
1738,718	2	-0,022
1740,884	2	-0,014
1743,044	2	-0,012
1745,216	2	-0,007
1747,376	2	-0,004
1749,542	2	-0,003
1751,707	2	-0,002
1753,879	2	-0,002
1756,045	2	-0,001
1758,217	2	-0,001
1760,377	2	-0,001
1762,549	2	0
1764,721	2	-0,07
1766,887	2	-0,212
1769,064	1	-0,394
1771,236	1,5	-0,43
1773,402	1	-0,552
1775,562	0	-0,66
1777,74	0	-0,776
1779,906	-0,5	-0,908
1782,072	-0,5	-1,005
1784,244	-1	-1,135
1786,409	-1	-1,189
1788,569	-1,5	-1,303
1790,741	-1,5	-1,435
1792,919	-1,5	-1,585
1795,085	-2,5	-1,714
1797,257	-2,5	-1,812
1799,423	-3	-1,983
1801,589	-3	-2,064
1803,748	-3	-2,113
1805,926	-3,5	-2,269
1808,092	-4	-2,34
1810,258	-4	-2,43
1812,424	-4,5	-2,505
1814,596	-5	-2,689
1816,762	-6	-2,827
1818,934	-6	-2,943
1821,099	-7,5	-3,024
1823,265	-7,5	-3,12
1825,437	-8,5	-3,289
1827,603	-10	-3,36
1829,775	-10,5	-3,411
1831,941	-11	-3,432
1834,107	-11,5	-3,455
1836,273	-11	-3,458
1838,45	-12	-3,47
1840,61	-12	-3,475
1842,776	-12	-3,48
1844,942	-12	-3,484
1847,108	-12	-3,488
1849,28	-12	-3,492
1851,446	-12,5	-3,495
1853,624	-12	-3,497
1855,784	-12,5	-3,498
1857,949	-12,5	-3,498
1860,115	-12,5	-3,499
1862,287	-12	-3,499
1864,453	-12	-3,499
1866,619	-12	-3,5
1868,791	-12	-3,414
1870,957	-12	-3,265
1873,129	-11	-3,034
1875,294	-11	-2,982
1877,466	-9	-2,796
1879,626	-7,5	-2,618
1881,786	-7	-2,505
1883,958	-5,5	-2,341
1886,124	-5,5	-2,234
1888,29	-4,5	-2,096
1890,455	-4	-1,994
1892,621	-3,5	-1,914
1894,787	-3	-1,701
1896,959	-2	-1,603
1899,119	-2	-1,536
1901,285	-2	-1,434
1903,457	-1	-1,294
1905,623	-1	-1,174
1907,782	-0,5	-1,078
1909,948	-1	-1,082
1912,12	-0,5	-0,94
1914,28	-0,5	-0,879
1916,446	-0,5	-0,83
1918,606	0	-0,749
1920,778	0	-0,511
1922,944	0	-0,399
1925,11	0	-0,303
1927,275	1	-0,16
1929,441	1	-0,123
1931,607	1	-0,142
1933,773	1,5	-0,081
1935,939	1,5	-0,062
1938,111	1,5	-0,048
1940,283	2	-0,037
1942,449	1,5	-0,027
1944,608	1,5	-0,025
1946,768	2	-0,016
1948,934	2	-0,009
1951,1	2	-0,005
1953,266	2	-0,004
1955,438	2	-0,003
1957,604	2	-0,002
1959,77	2	-0,001
1961,941	2	-0,001
1964,107	2	0
1966,273	2	-0,057
1968,445	2	-0,179
1970,617	1,5	-0,319
1972,789	1,5	-0,414
1974,949	1,5	-0,502
1977,121	0,5	-0,639
1979,286	0	-0,729
1981,452	-0,5	-0,836
1983,624	-0,5	-0,989
1985,796	-1	-1,082
1987,962	-1	-1,174
1990,128	-1	-1,216
1992,294	-1,5	-1,296
1994,46	-1,5	-1,392
1996,625	-1,5	-1,557
1998,797	-2	-1,63
2000,963	-2	-1,706
2003,129	-2,5	-1,828
2005,307	-2,5	-1,99
2007,473	-3	-2,037
2009,633	-3	-2,099
2011,799	-3,5	-2,269
2013,97	-4,5	-2,449
2016,136	-5	-2,577
2018,302	-4,5	-2,687
2020,474	-6	-2,787
2022,64	-6	-2,878
2024,806	-6,5	-3,028
2026,972	-7,5	-3,135
2029,144	-8,5	-3,291
2031,309	-9,5	-3,345
2033,475	-10	-3,367
2035,647	-10,5	-3,413
2037,807	-11	-3,439
2039,973	-11,5	-3,456
2042,139	-12	-3,472
2044,305	-12	-3,478
2046,465	-12	-3,483
2048,63	-12	-3,488
2050,802	-12	-3,492
2052,968	-12	-3,495
2055,134	-12	-3,496
2057,306	-12	-3,498
2059,478	-12	-3,498
2061,644	-12	-3,498
2063,81	-12	-3,499
2065,981	-12	-3,499
2068,147	-12	-3,499
2070,319	-12	-3,486
2072,479	-12	-3,401
2074,651	-11,5	-3,164
2076,817	-11	-3,062
2078,977	-10,5	-2,937
2081,143	-8,5	-2,783
2083,309	-8	-2,739
2085,474	-7,5	-2,659
2087,634	-7	-2,583
2089,812	-6	-2,409
2091,972	-5,5	-2,302
2094,138	-4,5	-2,126
2096,31	-3,5	-1,963
2098,482	-2,5	-1,758
2100,647	-2	-1,608
2102,819	-2	-1,476
2104,979	-1,5	-1,447
2107,145	-1	-1,303
2109,311	-1	-1,228
2111,483	-0,5	-1,139
2113,649	-0,5	-1,006
2115,815	-0,5	-0,915
2117,98	0	-0,702
2120,152	0	-0,507
2122,318	0	-0,438
2124,484	0,5	-0,275
2126,65	0,5	-0,193
2128,816	1	-0,111
2130,982	1,5	-0,083
2133,148	1,5	-0,052
2135,314	1,5	-0,035
2137,485	2	-0,024
2139,651	2	-0,019
2141,817	2	-0,014
2143,983	2	-0,012
2146,149	2	-0,007
2148,315	2	-0,005
2150,481	2	-0,004
2152,647	2	-0,003
2154,818	2	-0,002
2156,984	2	-0,001
2159,15	2	-0,001
2161,316	2	-0,001
2163,488	2	0
2165,654	2	-0,002
2167,82	2	-0,168
2169,986	2	-0,249
2172,151	1,5	-0,379
2174,323	0,5	-0,501
2176,489	0	-0,643
2178,661	-0,5	-0,818
2180,827	-0,5	-0,898
2182,987	-1	-1,022
2185,159	-1	-1,148
2187,331	-1,5	-1,243
2189,496	-1,5	-1,366
2191,662	-1,5	-1,536
2193,828	-2	-1,676
2195,994	-2	-1,829
2198,166	-3	-2,008
2200,332	-3	-2,094
2202,51	-4	-2,303
2204,67	-4	-2,39
2206,835	-4,5	-2,513
2209,001	-5,5	-2,631
2211,173	-5,5	-2,72
2213,333	-5,5	-2,791
2215,499	-7	-2,956
2217,671	-7,5	-3,12
2219,837	-8,5	-3,21
2222,009	-9	-3,285
2224,168	-9	-3,32
2226,334	-10	-3,376
2228,494	-10,5	-3,392
2230,666	-10,5	-3,426
2232,832	-10,5	-3,434
2234,998	-11	-3,448
2237,164	-11,5	-3,46
2239,33	-11,5	-3,472
2241,495	-12	-3,479
2243,661	-12	-3,487
2245,827	-12	-3,489
2247,993	-12	-3,492
2250,165	-12	-3,494
2252,331	-12	-3,496
2254,503	-12	-3,498
2256,675	-12	-3,498
2258,84	-12	-3,499
2261,006	-12	-3,499
2263,166	-12	-3,5
2265,326	-12	-3,5
2267,492	-12	-3,486
2269,652	-12	-3,494
2271,824	-12	-3,309
2273,99	-12	-3,236
2276,149	-11,5	-3,146
2278,315	-10,5	-3,093
2280,487	-10	-2,993
2282,653	-8,5	-2,869
2284,819	-7,5	-2,748
2286,985	-7	-2,634
2289,151	-6	-2,576
2291,317	-5,5	-2,484
2293,488	-5,5	-2,402
2295,66	-4,5	-2,212
2297,826	-4	-2,052
2299,986	-3,5	-1,964
2302,158	-2,5	-1,79
2304,33	-2	-1,664
2306,502	-1,5	-1,517
2308,668	-1,5	-1,306
2310,839	-1	-1,151
2313,005	-1	-1,066
2315,171	-0,5	-0,959
2317,337	0	-0,82
2319,497	0	-0,706
2321,663	0	-0,595
2323,829	0	-0,45
2325,995	0	-0,392
2328,16	0,5	-0,242
2330,332	1	-0,162
2332,498	0,5	-0,134
2334,664	1,5	-0,094
2336,836	1,5	-0,054
2339,002	1,5	-0,03
2341,174	2	-0,018
2343,34	2	-0,014
2345,506	2	-0,009
2347,671	2	-0,006
2349,837	2	-0,004
2352,003	1,5	-0,002
2354,169	2	-0,002
2356,341	1,5	-0,001
2358,507	2	-0,001
2360,673	1,5	-0,001
2362,839	2	-0,153
2365,004	1,5	-0,298
2367,17	1	-0,442
2369,336	0	-0,666
2371,502	0	-0,779
2373,668	-0,5	-0,922
2375,834	-0,5	-1,125
2378	-1	-1,237
2380,165	-1,5	-1,344
2382,337	-1,5	-1,534
2384,503	-1,5	-1,666
2386,669	-2	-1,747
2388,835	-2,5	-1,892
2391,001	-3	-2,094
2393,173	-3	-2,235
2395,339	-3,5	-2,39
2397,499	-4	-2,51
2399,664	-5	-2,696
2401,836	-5	-2,785
2404,002	-5,5	-2,95
2406,168	-6	-3,009
2408,334	-6,5	-3,115
2410,494	-7,5	-3,228
2412,672	-8,5	-3,351
2414,838	-9,5	-3,422
2416,997	-10,5	-3,456
2419,163	-11	-3,472
2421,335	-11	-3,482
2423,495	-11	-3,488
2425,667	-11	-3,491
2427,833	-11	-3,495
2430,005	-11	-3,497
2432,171	-11	-3,498
2434,336	-11	-3,498
2436,502	-11	-3,499
2438,68	-11	-3,499
2440,84	-11	-3,5
2443	-11	-3,496
2445,166	-11	-3,347
2447,332	-11	-3,262
2449,504	-10	-3,11
2451,663	-9,5	-3,002
2453,829	-9	-2,915
2455,989	-8	-2,802
2458,155	-7,5	-2,716
2460,321	-6,5	-2,648
2462,488	-6	-2,546
2464,653	-5,5	-2,401
2466,819	-4,5	-2,274
2468,99	-4	-2,132
2471,15	-3,5	-2,002
2473,328	-2,5	-1,84
2475,488	-2,5	-1,763
2477,648	-2,5	-1,74
2479,814	-2,5	-1,623
2481,98	-1,5	-1,526
2484,146	-1,5	-1,458
2486,318	-1	-1,294
2488,483	-0,5	-1,224
2490,649	-0,5	-1,017
2492,815	-0,5	-0,942
2494,981	0	-0,856
2497,153	0	-0,698
2499,313	0	-0,623
2501,479	0	-0,457
2503,644	0	-0,378
2505,804	0,5	-0,326
2507,97	0,5	-0,21
2510,142	1	-0,137
2512,302	1	-0,108
2514,468	1,5	-0,086
2516,634	1,5	-0,068
2518,8	1,5	-0,06
2520,965	2	-0,038
2523,131	2	-0,032
2525,297	2	-0,021
2527,457	2	-0,018
2529,629	2	-0,012
2531,795	2	-0,01
2533,955	2	-0,008
2536,127	2	-0,005
2538,299	2	-0,004
2540,458	2	-0,003
2542,63	2	-0,002
2544,796	2	-0,002
2546,956	2	-0,001
2549,122	2	-0,001
2551,288	2	-0,001
2553,454	2	-0,001
2555,613	2	0
2557,785	2	-0,011
2559,951	2	-0,148
2562,117	1,5	-0,342
2564,283	1	-0,43
2566,455	0	-0,64
2568,615	0	-0,738
2570,781	0	-0,818
2572,947	0	-0,898
2575,112	-0,5	-0,979
2577,278	-1	-1,112
2579,444	-1	-1,208
2581,61	-1	-1,282
2583,776	-1,5	-1,4
2585,942	-1,5	-1,464
2588,102	-1,5	-1,562
2590,268	-1,5	-1,686
2592,433	-2	-1,807
2594,605	-2	-1,944
2596,771	-2,5	-2,035
2598,937	-3	-2,162
2601,103	-3	-2,226
2603,269	-3	-2,366
2605,435	-3,5	-2,478
2607,601	-4,5	-2,643
2609,772	-5	-2,775
2611,944	-5,5	-2,949
2614,11	-6	-3,071
2616,27	-6,5	-3,136
2618,442	-7	-3,283
2620,608	-7,5	-3,352
2622,78	-8,5	-3,394
2624,946	-9	-3,439
2627,111	-10	-3,465
2629,277	-10	-3,474
2631,449	-10	-3,486
2633,609	-10	-3,492
2635,775	-10	-3,496
2637,947	-10	-3,498
2640,113	-10	-3,499
2642,291	-10	-3,499
2644,456	-10	-3,499
2646,622	-10	-3,5
2648,788	-10	-3,5
2650,954	-10	-3,377
2653,12	-10	-3,222
2655,286	-9	-3,077
2657,452	-8	-2,965
2659,618	-7	-2,83
2661,783	-6	-2,714
2663,949	-5	-2,548
2666,109	-4,5	-2,461
2668,269	-4	-2,412
2670,435	-4	-2,353
2672,601	-3,5	-2,198
2674,761	-3	-2,063
2676,927	-2	-1,865
2679,092	-1,5	-1,749
2681,258	-1,5	-1,637
2683,424	-1	-1,519
2685,59	-1	-1,322
2687,756	-0,5	-1,151
2689,928	0	-0,994
2692,1	0	-0,91
2694,266	0	-0,792
2696,425	0	-0,662
2698,597	0	-0,504
2700,775	0,5	-0,344
2702,935	1	-0,192
2705,101	1	-0,101
2707,267	1,5	-0,067
2709,427	1,5	-0,045
2711,599	2	-0,027
2713,764	2	-0,021
2715,93	2	-0,012
2718,096	2	-0,008
2720,262	2	-0,006
2722,428	2	-0,004
2724,594	2	-0,003
2726,766	2	-0,002
2728,932	2	-0,001
2731,097	2	-0,001
2733,263	2	-0,001
2735,429	2	0
2737,601	2	0
2739,773	2	-0,106
2741,945	1,5	-0,334
2744,111	1,5	-0,452
2746,277	1	-0,553
2748,443	0	-0,655
2750,608	-0,5	-0,862
2752,774	-0,5	-0,958
2754,94	-0,5	-1,102
2757,112	-0,5	-1,223
2759,278	-0,5	-1,309
2761,456	-1	-1,46
2763,622	-1,5	-1,571
2765,788	-1,5	-1,672
2767,947	-1,5	-1,712
2770,125	-2	-1,891
2772,291	-2	-1,943
2774,457	-2,5	-2,151
2776,623	-3	-2,294
2778,789	-3	-2,37
2780,961	-3,5	-2,517
2783,121	-3,5	-2,552
2785,292	-4	-2,704
2787,458	-5	-2,906
2789,63	-4,5	-3,026
2791,796	-5,5	-3,119
2793,962	-6	-3,187
2796,128	-6	-3,254
2798,294	-7,5	-3,363
2800,459	-8	-3,406
2802,631	-8,5	-3,43
2804,797	-9	-3,452
2806,963	-8,5	-3,459
2809,135	-9	-3,473
2811,301	-9	-3,482
2813,467	-9	-3,487
2815,633	-9	-3,492
2817,804	-9,5	-3,495
2819,97	-9,5	-3,496
2822,142	-9,5	-3,497
2824,308	-9,5	-3,498
2826,474	-9,5	-3,499
2828,64	-9,5	-3,499
2830,8	-9	-3,5
2832,966	-9,5	-3,5
2835,132	-9,5	-3,451
2837,297	-9	-3,395
2839,457	-9	-3,273
2841,629	-9	-3,171
2843,795	-8	-3,084
2845,961	-8	-3,069
2848,127	-8	-2,926
2850,299	-6	-2,824
2852,465	-6	-2,788
2854,63	-5,5	-2,664
2856,796	-4,5	-2,531
2858,962	-4	-2,451
2861,128	-3,5	-2,307
2863,294	-3	-2,248
2865,454	-2,5	-2,15
2867,626	-2	-1,982
2869,798	-1,5	-1,803
2871,957	-1	-1,736
2874,123	-1	-1,639
2876,289	-1	-1,543
2878,461	-1	-1,454
2880,621	-0,5	-1,342
2882,787	-0,5	-1,245
2884,953	0	-1,123
2887,119	0	-0,937
2889,284	0	-0,835
2891,45	0	-0,702
2893,616	0	-0,558
2895,776	0,5	-0,528
2897,942	0,5	-0,401
2900,108	0,5	-0,31
2902,274	1	-0,228
2904,44	1	-0,18
2906,612	1,5	-0,099
2908,777	1,5	-0,064
2910,943	1,5	-0,042
2913,103	2	-0,026
2915,263	2	-0,02
2917,441	2	-0,01
2919,607	2	-0,008
2921,779	2	-0,005
2923,938	2	-0,004
2926,098	2	-0,003
2928,27	2	-0,002
2930,436	2	-0,002
2932,602	2	-0,001
2934,768	2	-0,001
2936,934	2	-0,001
2939,106	2	0
2941,271	2	0
2943,437	2	-0,04
2945,603	2	-0,144
2947,775	1,5	-0,347
2949,941	1,5	-0,507
2952,107	1	-0,62
2954,273	0	-0,817
2956,439	0	-0,939
2958,61	-0,5	-1,135
2960,782	-1	-1,223
2962,948	-1	-1,35
2965,108	-1	-1,412
2967,268	-1	-1,43
2969,434	-1,5	-1,65
2971,6	-1,5	-1,765
2973,766	-1,5	-1,931
2975,925	-2	-2,054
2978,097	-2	-2,155
2980,263	-2,5	-2,294
2982,429	-2,5	-2,485
2984,589	-3	-2,599
2986,749	-3,5	-2,719
2988,927	-4	-2,875
2991,093	-4,5	-3,072
2993,258	-5	-3,136
2995,424	-5,5	-3,26
2997,59	-6,5	-3,357
2999,762	-7	-3,423
3001,922	-7,5	-3,445
3004,088	-8	-3,459
3006,254	-8	-3,477
3008,42	-8	-3,485
3010,58	-8	-3,489
3012,751	-8	-3,495
3014,917	-8,5	-3,496
3017,083	-8,5	-3,498
3019,249	-8,5	-3,498
3021,421	-8,5	-3,498
3023,587	-8,5	-3,499
3025,753	-8,5	-3,499
3027,919	-8	-3,5
3030,078	-8	-3,492
3032,238	-8,5	-3,336
3034,404	-7,5	-3,174
3036,57	-6	-2,975
3038,73	-6	-2,925
3040,896	-5,5	-2,818
3043,062	-5	-2,712
3045,228	-4	-2,604
3047,387	-3,5	-2,502
3049,553	-3	-2,362
3051,725	-2,5	-2,22
3053,891	-1,5	-1,992
3056,051	-1,5	-1,889
3058,217	-1	-1,771
3060,383	-0,5	-1,638
3062,555	-0,5	-1,491
3064,72	-0,5	-1,358
3066,886	-0,5	-1,272
3069,052	0	-1,058
3071,224	0	-0,948
3073,396	0	-0,812
3075,556	0	-0,693
3077,722	0	-0,547
3079,888	0	-0,438
3082,059	0	-0,343
3084,225	1	-0,193
3086,391	1	-0,154
3088,557	1,5	-0,092
3090,717	1,5	-0,07
3092,883	1,5	-0,046
3095,049	2	-0,034
3097,215	2	-0,022
3099,38	2	-0,014
3101,546	2,5	-0,011
3103,712	2	-0,006
3105,878	2	-0,005
3108,044	2	-0,004
3110,21	2	-0,004
3112,376	2	-0,003
3114,542	2	-0,002
3116,708	2	-0,001
3118,867	1,5	-0,001
3121,033	2	-0,001
3123,205	2	0
3125,365	2	-0,003
3127,531	2	-0,082
3129,703	1,5	-0,305
3131,869	1,5	-0,418
3134,04	0	-0,64
3136,206	0	-0,72
3138,366	0	-0,765
3140,532	0	-0,878
3142,698	0	-1,006
3144,87	-0,5	-1,191
3147,036	-1	-1,312
3149,202	-0,5	-1,356
3151,367	-0,5	-1,5
3153,533	-1	-1,638
3155,699	-1	-1,75
3157,865	-1	-1,83
3160,031	-1,5	-1,952
3162,191	-1,5	-2,077
3164,357	-1,5	-2,157
3166,529	-2	-2,316
3168,694	-2,5	-2,454
3170,86	-2,5	-2,529
3173,026	-2,5	-2,641
3175,192	-3	-2,79
3177,364	-3,5	-2,9
3179,53	-4	-3,029
3181,696	-4,5	-3,145
3183,862	-5	-3,3
3186,027	-5,5	-3,38
3188,199	-6	-3,413
3190,365	-6,5	-3,448
3192,531	-6,5	-3,467
3194,697	-7	-3,481
3196,869	-7	-3,487
3199,032	-7	-3,489
3201,195	-7	-3,494
3203,36	-7,5	-3,495
3205,526	-7	-3,497
3207,692	-7	-3,498
3209,864	-7	-3,499
3212,036	-7	-3,499
3214,202	-7	-3,499
3215,258	2	0