File: ensaios_Ciclicos/_50perc/_2gap/entrada/_4.txt
Time (s)	Load (N)	Displacement (mm)
0	0	-0,034
2,237	0	-0,452
4,397	0	-0,417
6,557	0	-0,456
8,717	0,5	-0,437
10,877	0	-0,456
13,036	0	-0,448
15,196	0,5	-0,418
17,356	0,5	-0,431
19,516	0,5	-0,412
21,682	0,5	-0,433
23,842	0,5	-0,446
26,002	1	-0,464
28,162	0,5	-0,557
30,322	0,5	-0,506
32,481	1	-0,482
34,647	1	-0,45
36,807	0,5	-0,527
38,973	0	-0,608
41,133	0	-0,504
43,299	0	-0,653
45,459	0	-0,687
47,625	-0,5	-0,757
49,791	-1,5	-0,832
51,956	-1,5	-0,918
54,122	-1,5	-0,975
56,288	-2	-0,94
58,454	-2	-1,025
60,614	-2,5	-1,053
62,792	-3	-1,21
64,951	-3	-1,185
67,123	-3	-1,252
69,283	-3	-1,212
71,443	-2,5	-1,151
73,609	-3	-1,178
75,769	-3	-1,206
77,929	-3,5	-1,257
80,101	-3	-1,224
82,266	-3,5	-1,256
84,432	-3	-1,256
86,604	-3,5	-1,286
88,77	-3	-1,213
90,93	-3	-1,146
93,09	-3	-1,116
95,256	-3	-1,143
97,416	-3	-1,182
99,576	-3	-1,152
101,741	-3	-1,217
103,901	-3	-1,177
106,061	-2,5	-1,152
108,227	-2,5	-1,095
110,393	-3	-1,147
112,559	-2,5	-1,153
114,725	-3	-1,159
116,921	-3	-1,3
119,086	-3	-1,267
121,246	-3,5	-1,292
123,407	-3	-1,292
125,572	-3,5	-1,39
127,744	-3,5	-1,414
129,91	-3,5	-1,495
132,07	-4	-1,512
134,229	-3,5	-1,472
136,401	-4	-1,588
138,561	-4	-1,58
140,727	-4,5	-1,644
142,899	-4,5	-1,753
145,059	-4,5	-1,708
147,219	-4,5	-1,7
149,391	-4,5	-1,788
151,552	-4,5	-1,796
153,71	-5	-1,846
155,888	-5,5	-1,96
158,049	-5,5	-2,037
160,214	-5	-2,086
162,38	-6	-2,186
164,54	-6	-2,21
166,712	-6	-2,24
168,877	-6,5	-2,331
171,049	-7,5	-2,405
173,215	-7,5	-2,485
175,375	-7,5	-2,534
177,541	-8,5	-2,62
179,707	-8,5	-2,71
181,867	-9	-2,824
184,039	-10	-2,892
186,205	-10,5	-3,01
188,37	-10	-3,042
190,536	-10,5	-3,069
192,702	-10,5	-3,047
194,862	-10	-3,024
197,028	-10,5	-3,051
199,194	-10	-3,036
201,36	-10,5	-3,035
203,526	-10,5	-3,072
205,691	-10,5	-3,175
207,863	-11,5	-3,219
210,029	-11,5	-3,247
212,201	-12,5	-3,305
214,379	-13	-3,364
216,551	-13,5	-3,404
218,729	-14,5	-3,447
220,895	-15	-3,464
223,054	-15	-3,472
225,226	-15	-3,477
227,392	-15	-3,485
229,558	-15	-3,487
231,736	-15	-3,493
233,902	-15	-3,496
236,068	-15	-3,496
238,24	-15	-3,497
240,412	-15	-3,497
242,577	-15	-3,497
244,743	-15	-3,498
246,915	-15	-3,498
249,075	-15	-3,498
251,253	-15	-3,499
253,419	-15	-3,499
255,597	-15	-3,5
257,769	-15	-3,479
259,934	-15	-3,359
262,106	-15	-3,227
264,284	-14,5	-3,116
266,45	-14,5	-3,059
268,616	-13	-2,923
270,788	-12,5	-2,83
272,954	-11,5	-2,754
275,119	-11,5	-2,707
277,285	-10,5	-2,588
279,457	-9,5	-2,431
281,623	-9	-2,346
283,789	-9	-2,345
285,955	-8	-2,277
288,121	-8	-2,218
290,293	-6,5	-2,059
292,464	-6	-1,954
294,648	-5,5	-1,816
296,808	-5,5	-1,872
298,968	-5,5	-1,859
301,14	-5	-1,776
303,306	-5	-1,706
305,478	-4,5	-1,682
307,656	-4	-1,531
309,827	-3,5	-1,409
311,999	-3	-1,294
314,177	-2	-1,174
316,343	-2	-1,069
318,503	-2	-1,057
320,669	-1,5	-0,885
322,829	-1	-0,846
324,995	-0,5	-0,761
327,16	-1	-0,76
329,332	-0,5	-0,667
331,498	0	-0,57
333,67	0	-0,487
335,842	0	-0,415
338,014	0	-0,352
340,18	0	-0,289
342,352	0,5	-0,194
344,517	0,5	-0,196
346,695	1	-0,119
348,861	1,5	-0,082
351,027	1,5	-0,073
353,199	1,5	-0,055
355,383	2	-0,031
357,555	2	-0,025
359,733	2	-0,019
361,898	2	-0,019
364,064	2,5	-0,014
366,236	2	-0,011
368,414	2,5	-0,007
370,58	2,5	-0,005
372,746	2,5	-0,004
374,924	2,5	-0,003
377,09	2,5	-0,002
379,268	2	-0,001
381,439	2,5	-0,136
383,611	2,5	-0,196
385,777	2	-0,274
387,943	1,5	-0,345
390,115	1,5	-0,37
392,275	1,5	-0,378
394,435	1,5	-0,385
396,601	1,5	-0,476
398,766	0,5	-0,546
400,938	1	-0,576
403,11	0	-0,658
405,282	0	-0,743
407,454	-0,5	-0,865
409,626	-1	-0,91
411,792	-1	-0,911
413,957	-1	-1,001
416,135	-1,5	-1,131
418,307	-2,5	-1,272
420,479	-2	-1,336
422,657	-3	-1,46
424,829	-3	-1,506
426,995	-3	-1,554
429,167	-3	-1,612
431,339	-3	-1,69
433,51	-3	-1,741
435,676	-3,5	-1,757
437,854	-3,5	-1,85
440,026	-4	-1,932
442,192	-4,5	-2,025
444,352	-4,5	-2,048
446,53	-5,5	-2,262
448,695	-5,5	-2,342
450,873	-6	-2,488
453,039	-6,5	-2,59
455,211	-7,5	-2,705
457,395	-7,5	-2,806
459,579	-8,5	-2,907
461,745	-9	-2,976
463,917	-9,5	-3,102
466,082	-10,5	-3,198
468,254	-10,5	-3,253
470,426	-11,5	-3,32
472,598	-12	-3,391
474,764	-13	-3,419
476,936	-13,5	-3,45
479,102	-14	-3,463
481,274	-14	-3,476
483,458	-14	-3,486
485,629	-14,5	-3,486
487,801	-14,5	-3,488
489,973	-14	-3,49
492,145	-14,5	-3,492
494,317	-14	-3,494
496,489	-14	-3,495
498,661	-14,5	-3,496
500,839	-14	-3,498
503,004	-14	-3,498
505,176	-14	-3,499
507,354	-14	-3,499
509,526	-14	-3,499
511,698	-14	-3,466
513,87	-14	-3,259
516,042	-12	-2,992
518,214	-12	-2,893
520,391	-10,5	-2,81
522,563	-9,5	-2,679
524,729	-9,5	-2,636
526,907	-8,5	-2,496
529,073	-8	-2,409
531,239	-7,5	-2,374
533,405	-7	-2,293
535,583	-6	-2,131
537,76	-5	-1,975
539,944	-4,5	-1,805
542,116	-3,5	-1,711
544,282	-3	-1,631
546,448	-3,5	-1,608
548,62	-2,5	-1,462
550,798	-2	-1,316
552,976	-1,5	-1,218
555,147	-1,5	-1,168
557,313	-1,5	-1,098
559,485	-1	-1,03
561,651	-1	-0,976
563,829	-0,5	-0,758
566,001	0	-0,662
568,173	0	-0,621
570,345	0	-0,532
572,516	0	-0,454
574,694	0,5	-0,352
576,866	1	-0,254
579,032	1	-0,146
581,204	1,5	-0,082
583,376	2,5	-0,044
585,542	2,5	-0,021
587,708	2,5	-0,008
589,879	2,5	-0,004
592,045	2,5	-0,003
594,217	2,5	-0,001
596,389	2,5	0
598,555	2	-0,158
600,727	2	-0,343
602,905	0	-0,621
605,071	0	-0,845
607,242	-1	-1,051
609,414	-2	-1,294
611,598	-2,5	-1,464
613,764	-3	-1,652
615,942	-4	-1,987
618,12	-5	-2,245
620,286	-5,5	-2,457
622,452	-7,5	-2,753
624,623	-8	-2,892
626,789	-9	-3,085
628,961	-10,5	-3,296
631,127	-11,5	-3,386
633,293	-13	-3,446
635,477	-13,5	-3,479
637,649	-13,5	-3,49
639,821	-13,5	-3,496
641,986	-13,5	-3,498
644,146	-13,5	-3,499
646,318	-13,5	-3,499
648,484	-13,5	-3,492
650,65	-13,5	-3,315
652,822	-12,5	-3,089
655	-10	-2,799
657,172	-7,5	-2,482
659,338	-6,5	-2,289
661,509	-5,5	-2,178
663,681	-5,5	-2,074
665,847	-4,5	-1,841
668,007	-3,5	-1,62
670,185	-2,5	-1,348
672,357	-1,5	-1,109
674,529	-0,5	-0,808
676,694	0	-0,526
678,86	0	-0,277
681,032	1	-0,13
683,21	2	-0,055
685,376	2	-0,03
687,554	2,5	-0,014
689,726	2,5	-0,008
691,898	2	-0,004
694,069	2,5	-0,002
696,235	2,5	-0,001
698,401	2,5	-0,001
700,579	2,5	-0,124
702,745	2,5	-0,239
704,911	1,5	-0,434
707,071	1	-0,596
709,237	0	-0,741
711,414	-0,5	-0,96
713,592	-1	-1,152
715,77	-1,5	-1,278
717,936	-2	-1,411
720,102	-2,5	-1,646
722,268	-3	-1,821
724,44	-4	-2,112
726,612	-5	-2,312
728,783	-5,5	-2,518
730,961	-6,5	-2,743
733,127	-8	-2,972
735,299	-9,5	-3,238
737,465	-11	-3,37
739,637	-11,5	-3,42
741,803	-12	-3,437
743,975	-13	-3,465
746,141	-13	-3,479
748,318	-13,5	-3,486
750,484	-13,5	-3,489
752,662	-13,5	-3,495
754,828	-13,5	-3,497
756,994	-13,5	-3,498
759,16	-13,5	-3,498
761,326	-13,5	-3,499
763,492	-13,5	-3,499
765,657	-13,5	-3,5
767,823	-13,5	-3,499
769,995	-13,5	-3,366
772,167	-13	-3,28
774,339	-13,5	-3,151
776,505	-12,5	-3,129
778,677	-12,5	-3,035
780,843	-11	-2,965
783,002	-11	-2,931
785,174	-10	-2,767
787,34	-9	-2,65
789,512	-8	-2,492
791,684	-7	-2,393
793,862	-6	-2,253
796,028	-5,5	-2,14
798,193	-5	-2,018
800,359	-4,5	-1,996
802,531	-4,5	-1,896
804,697	-4	-1,795
806,863	-3,5	-1,725
809,035	-3,5	-1,705
811,207	-3	-1,601
813,373	-2,5	-1,452
815,539	-2,5	-1,372
817,71	-2	-1,304
819,888	-1,5	-1,19
822,048	-1,5	-1,134
824,214	-1	-1,012
826,386	-0,5	-0,833
828,546	-0,5	-0,722
830,718	0	-0,648
832,89	0	-0,612
835,061	0	-0,49
837,227	0	-0,383
839,399	0,5	-0,316
841,565	0,5	-0,258
843,749	1	-0,178
845,915	1	-0,159
848,081	1	-0,141
850,247	1,5	-0,114
852,424	1,5	-0,081
854,584	2	-0,066
856,75	1,5	-0,063
858,922	1,5	-0,054
861,088	1,5	-0,051
863,266	2	-0,04
865,432	2	-0,034
867,61	2	-0,022
869,775	2,5	-0,023
871,935	2	-0,023
874,101	2,5	-0,026
876,279	2,5	-0,017
878,457	2,5	-0,014
880,623	2,5	-0,008
882,795	2,5	-0,01
884,961	2,5	-0,008
887,126	2,5	-0,006
889,292	2,5	-0,005
891,458	2,5	-0,004
893,63	2,5	-0,002
895,796	2,5	-0,002
897,968	2,5	-0,002
900,134	2,5	-0,001
902,306	2	-0,001
904,477	2	-0,001
906,637	2,5	-0,001
908,809	2	-0,001
910,975	2,5	0
913,153	2	-0,009
915,331	2	-0,108
917,497	2	-0,126
919,669	2	-0,19
921,834	2	-0,239
924,006	2,5	-0,259
926,172	2	-0,254
928,344	2	-0,325
930,516	1,5	-0,472
932,682	1	-0,568
934,854	0	-0,599
937,02	0	-0,664
939,191	0	-0,785
941,357	-0,5	-0,849
943,529	-1	-0,964
945,701	-1	-0,983
947,873	-1	-1,046
950,045	-1,5	-1,108
952,211	-1,5	-1,108
954,377	-1,5	-1,104
956,542	-1,5	-1,147
958,708	-1,5	-1,179
960,874	-2	-1,253
963,046	-2	-1,369
965,218	-2	-1,441
967,396	-2,5	-1,608
969,562	-2,5	-1,636
971,734	-3	-1,708
973,899	-2,5	-1,725
976,077	-3	-1,849
978,243	-3	-1,954
980,415	-3,5	-1,954
982,593	-4	-2,084
984,753	-4	-2,07
986,913	-4	-2,046
989,079	-4	-2,088
991,244	-4	-2,179
993,416	-4,5	-2,273
995,582	-4,5	-2,353
997,748	-5	-2,434
999,914	-5	-2,508
1002,08	-6	-2,684
1004,246	-6	-2,775
1006,412	-7,5	-2,892
1008,577	-7,5	-2,994
1010,749	-9	-3,158
1012,915	-9	-3,23
1015,075	-9,5	-3,288
1017,241	-10	-3,338
1019,407	-10	-3,285
1021,585	-10	-3,349
1023,757	-11	-3,406
1025,928	-12	-3,439
1028,1	-12	-3,454
1030,272	-12,5	-3,463
1032,444	-12,5	-3,477
1034,616	-12,5	-3,484
1036,776	-12,5	-3,487
1038,942	-12,5	-3,489
1041,114	-12,5	-3,491
1043,28	-13	-3,493
1045,451	-12,5	-3,495
1047,617	-12,5	-3,496
1049,789	-12,5	-3,497
1051,955	-12,5	-3,498
1054,121	-12,5	-3,498
1056,293	-12,5	-3,498
1058,459	-12,5	-3,498
1060,63	-12,5	-3,499
1062,796	-12,5	-3,499
1064,962	-12,5	-3,499
1067,128	-12,5	-3,5
1069,306	-12,5	-3,471
1071,478	-12,5	-3,37
1073,644	-12	-3,242
1075,816	-12	-3,18
1077,982	-11,5	-3,169
1080,147	-11,5	-3,093
1082,331	-10	-2,906
1084,503	-8,5	-2,726
1086,681	-7,5	-2,597
1088,853	-7,5	-2,503
1091,013	-7,5	-2,506
1093,185	-6	-2,395
1095,357	-6	-2,29
1097,528	-5	-2,191
1099,694	-5,5	-2,175
1101,866	-4,5	-2,069
1104,032	-4,5	-2,011
1106,204	-3,5	-1,912
1108,37	-4	-1,923
1110,542	-3	-1,785
1112,708	-2,5	-1,625
1114,873	-3	-1,63
1117,051	-2,5	-1,523
1119,211	-2	-1,424
1121,377	-2	-1,387
1123,549	-1,5	-1,367
1125,715	-1,5	-1,239
1127,893	-1	-1,136
1130,059	-1	-1,093
1132,23	-0,5	-0,968
1134,39	-0,5	-0,996
1136,556	-0,5	-0,879
1138,728	0	-0,801
1140,9	0	-0,665
1143,066	0	-0,644
1145,232	0	-0,591
1147,404	0	-0,522
1149,575	0	-0,406
1151,741	0,5	-0,379
1153,913	0,5	-0,322
1156,079	0,5	-0,323
1158,245	0,5	-0,339
1160,411	0,5	-0,332
1162,577	0,5	-0,276
1164,749	1	-0,226
1166,908	1	-0,228
1169,08	1	-0,194
1171,246	1	-0,181
1173,418	1	-0,148
1175,59	1	-0,134
1177,762	1	-0,118
1179,928	1	-0,116
1182,1	1,5	-0,091
1184,265	1,5	-0,077
1186,437	1,5	-0,066
1188,603	1,5	-0,064
1190,769	1,5	-0,058
1192,929	1,5	-0,056
1195,107	2,5	-0,032
1197,273	2	-0,025
1199,439	2	-0,021
1201,604	2,5	-0,021
1203,77	2,5	-0,017
1205,942	2	-0,013
1208,114	2,5	-0,008
1210,28	2,5	-0,008
1212,452	2	-0,007
1214,618	2,5	-0,005
1216,778	2,5	-0,005
1218,95	2,5	-0,004
1221,115	2,5	-0,004
1223,287	2,5	-0,004
1225,453	2,5	-0,003
1227,631	2,5	-0,002
1229,803	2,5	-0,002
1231,969	2,5	-0,001
1234,135	2,5	-0,001
1236,306	2,5	-0,001
1238,478	2	-0,001
1240,656	2,5	0
1242,823	2,5	0
1244,988	2	-0,064
1247,154	2	-0,248
1249,326	2,5	-0,328
1251,498	1	-0,53
1253,657	1,5	-0,515
1255,829	2	-0,482
1257,995	0,5	-0,642
1260,161	0	-0,786
1262,327	-0,5	-0,983
1264,499	-1	-1,088
1266,671	-1,5	-1,3
1268,831	-1	-1,232
1271,002	-1,5	-1,439
1273,168	-2	-1,625
1275,34	-2,5	-1,868
1277,506	-3	-1,975
1279,678	-3,5	-2,187
1281,844	-4,5	-2,341
1284,01	-5,5	-2,634
1286,176	-6,5	-2,858
1288,341	-7	-2,991
1290,519	-7,5	-3,062
1292,685	-8	-3,167
1294,857	-9	-3,258
1297,017	-9	-3,272
1299,189	-9,5	-3,346
1301,355	-10,5	-3,394
1303,527	-10,5	-3,432
1305,686	-11	-3,435
1307,858	-12	-3,468
1310,024	-12	-3,478
1312,19	-12	-3,484
1314,356	-12	-3,486
1316,522	-12	-3,488
1318,688	-12	-3,491
1320,854	-12	-3,493
1323,026	-12	-3,494
1325,191	-12,5	-3,495
1327,363	-12,5	-3,496
1329,529	-12,5	-3,496
1331,701	-12	-3,496
1333,867	-12,5	-3,497
1336,033	-12	-3,497
1338,205	-12	-3,498
1340,365	-12	-3,498
1342,531	-12	-3,499
1344,696	-12	-3,499
1346,874	-12	-3,499
1349,04	-12	-3,5
1351,212	-12,5	-3,5
1353,378	-12	-3,496
1355,544	-12	-3,462
1357,71	-12	-3,414
1359,881	-12	-3,288
1362,047	-12	-3,172
1364,213	-11,5	-3,113
1366,379	-11,5	-3,085
1368,557	-9,5	-2,875
1370,723	-9,5	-2,817
1372,883	-9,5	-2,824
1375,055	-8,5	-2,714
1377,214	-7	-2,446
1379,392	-5,5	-2,318
1381,552	-5,5	-2,299
1383,724	-5	-2,22
1385,884	-5	-2,219
1388,05	-4,5	-2,149
1390,216	-4	-1,936
1392,382	-4	-1,834
1394,547	-3	-1,733
1396,713	-2,5	-1,615
1398,879	-2,5	-1,541
1401,051	-1,5	-1,351
1403,217	-1,5	-1,265
1405,383	-1,5	-1,287
1407,555	-1	-1,096
1409,715	-0,5	-1,02
1411,886	-0,5	-1,005
1414,052	-0,5	-0,948
1416,224	-0,5	-0,916
1418,39	0	-0,74
1420,562	0	-0,635
1422,734	0	-0,537
1424,9	0	-0,456
1427,066	0,5	-0,302
1429,232	0,5	-0,246
1431,403	1,5	-0,159
1433,575	1,5	-0,086
1435,741	2	-0,056
1437,913	2	-0,041
1440,079	2	-0,031
1442,245	2,5	-0,025
1444,423	2,5	-0,017
1446,588	2,5	-0,013
1448,754	2,5	-0,008
1450,92	2,5	-0,008
1453,086	2,5	-0,007
1455,258	2,5	-0,005
1457,424	2,5	-0,003
1459,59	2,5	-0,002
1461,762	2,5	-0,002
1463,927	2,5	-0,002
1466,093	2,5	-0,002
1468,259	2,5	-0,002
1470,425	2,5	-0,002
1472,591	2,5	-0,001
1474,763	2,5	-0,001
1476,929	2,5	-0,002
1479,107	2,5	-0,001
1481,272	2	-0,001
1483,438	2,5	0
1485,604	2,5	-0,006
1487,776	2,5	-0,161
1489,942	2,5	-0,245
1492,114	1,5	-0,374
1494,274	1,5	-0,494
1496,452	0	-0,75
1498,612	-0,5	-0,912
1500,783	-1	-1,112
1502,955	-1,5	-1,234
1505,127	-1,5	-1,381
1507,299	-2	-1,624
1509,465	-2	-1,678
1511,631	-2,5	-1,746
1513,797	-3	-1,918
1515,962	-3	-1,997
1518,134	-3,5	-2,114
1520,294	-4	-2,196
1522,46	-4,5	-2,297
1524,632	-4,5	-2,432
1526,798	-5,5	-2,635
1528,964	-6	-2,769
1531,13	-6,5	-2,934
1533,29	-6,5	-2,937
1535,461	-7,5	-2,999
1537,621	-8	-3,108
1539,787	-9	-3,304
1541,953	-10,5	-3,374
1544,119	-10,5	-3,396
1546,291	-10,5	-3,432
1548,457	-12	-3,458
1550,622	-12	-3,478
1552,794	-12	-3,481
1554,96	-12	-3,49
1557,126	-12	-3,492
1559,298	-12	-3,492
1561,464	-12	-3,493
1563,636	-12	-3,494
1565,802	-12	-3,496
1567,968	-12	-3,498
1570,133	-12	-3,498
1572,299	-12	-3,499
1574,465	-12	-3,498
1576,637	-12	-3,498
1578,797	-12	-3,498
1580,963	-12	-3,499
1583,135	-12	-3,5
1585,301	-12	-3,483
1587,467	-12	-3,5
1589,632	-12	-3,5
1591,798	-12	-3,291
1593,97	-11,5	-3,198
1596,136	-11	-3,132
1598,302	-11	-3,089
1600,474	-9	-2,845
1602,64	-9	-2,856
1604,811	-8,5	-2,808
1606,977	-7	-2,598
1609,143	-6	-2,437
1611,309	-6	-2,516
1613,475	-5	-2,282
1615,635	-4,5	-2,142
1617,807	-3,5	-1,935
1619,967	-3,5	-1,885
1622,132	-3	-1,895
1624,31	-3	-1,91
1626,476	-3	-1,754
1628,642	-2,5	-1,68
1630,808	-2,5	-1,68
1632,974	-2,5	-1,722
1635,152	-2,5	-1,736
1637,312	-2	-1,584
1639,471	-2	-1,646
1641,643	-2	-1,531
1643,803	-2	-1,47
1645,969	-2	-1,492
1648,141	-1,5	-1,44
1650,307	-1,5	-1,519
1652,473	-2	-1,578
1654,645	-2	-1,519
1656,81	-2	-1,509
1658,976	-1,5	-1,371
1661,148	-1,5	-1,34
1663,308	-1,5	-1,38
1665,474	-1,5	-1,412
1667,64	-1,5	-1,39
1669,806	-1,5	-1,373
1671,984	-1,5	-1,335
1674,149	-1,5	-1,361
1676,309	-1,5	-1,396
1678,475	-1,5	-1,384
1680,641	-2,5	-1,512
1682,819	-2	-1,42
1684,979	-2	-1,459
1687,151	-2	-1,473
1689,317	-2	-1,462
1691,482	-2	-1,415
1693,66	-1,5	-1,32
1695,832	-1,5	-1,264
1697,998	-1	-1,142
1700,164	-1	-1,147
1702,33	-1	-1,146
1704,496	-0,5	-1,054
1706,662	-1	-1,076
1708,833	0	-0,806
1710,993	0	-0,762
1713,159	0	-0,671
1715,337	0	-0,563
1717,503	0	-0,589
1719,675	0	-0,574
1721,841	0	-0,509
1724,013	0	-0,474
1726,184	0	-0,38
1728,35	0	-0,332
1730,522	0,5	-0,238
1732,688	1	-0,197
1734,854	1	-0,188
1737,02	1	-0,169
1739,186	1	-0,178
1741,352	1	-0,154
1743,517	1,5	-0,116
1745,683	1,5	-0,083
1747,855	1,5	-0,075
1750,021	1,5	-0,062
1752,181	1,5	-0,086
1754,353	1,5	-0,079
1756,525	1,5	-0,07
1758,691	1,5	-0,061
1760,851	1,5	-0,05
1763,022	2	-0,041
1765,182	2	-0,046
1767,354	2	-0,042
1769,526	2	-0,03
1771,686	2	-0,024
1773,852	2	-0,02
1776,018	2,5	-0,014
1778,184	2	-0,014
1780,355	2,5	-0,01
1782,521	2,5	-0,008
1784,687	2	-0,008
1786,859	2,5	-0,007
1789,031	2,5	-0,006
1791,203	2,5	-0,004
1793,363	2,5	-0,004
1795,529	2,5	-0,003
1797,706	2,5	-0,003
1799,872	2	-0,002
1802,038	2,5	-0,002
1804,21	2	-0,002
1806,376	2,5	-0,002
1808,548	2,5	-0,001
1810,708	2,5	-0,002
1812,874	2	-0,002
1815,045	2,5	-0,002
1817,211	2,5	-0,001
1819,377	2	-0,001
1821,549	2	-0,001
1823,715	2,5	-0,001
1825,887	2	0
1828,059	2,5	0
1830,225	2,5	0
1832,397	2	-0,118
1834,562	2,5	-0,21
1836,728	2,5	-0,216
1838,9	1,5	-0,419
1841,072	2	-0,406
1843,238	2	-0,429
1845,41	1,5	-0,519
1847,576	1,5	-0,507
1849,747	1	-0,629
1851,925	0,5	-0,684
1854,091	0,5	-0,674
1856,257	0	-0,737
1858,423	-0,5	-0,903
1860,595	-0,5	-0,997
1862,773	-1	-1,116
1864,939	-1,5	-1,185
1867,11	-1	-1,306
1869,276	-1	-1,248
1871,442	-1	-1,185
1873,608	-1	-1,227
1875,774	-1,5	-1,206
1877,94	-1,5	-1,346
1880,112	-1,5	-1,408
1882,284	-1,5	-1,454
1884,455	-2	-1,661
1886,621	-2,5	-1,809
1888,799	-2,5	-1,886
1890,965	-3	-1,997
1893,131	-3	-2,109
1895,297	-3	-2,168
1897,457	-3,5	-2,187
1899,629	-3	-2,25
1901,794	-3,5	-2,295
1903,966	-4	-2,354
1906,132	-4,5	-2,412
1908,298	-4,5	-2,466
1910,464	-5	-2,632
1912,63	-5,5	-2,755
1914,79	-6	-2,821
1916,962	-6	-2,877
1919,121	-6	-2,87
1921,281	-6	-2,897
1923,453	-6,5	-2,923
1925,619	-6,5	-2,982
1927,785	-6,5	-3,046
1929,951	-7,5	-3,079
1932,117	-7,5	-3,153
1934,283	-7,5	-3,19
1936,448	-8	-3,211
1938,614	-7,5	-3,211
1940,786	-9	-3,344
1942,952	-9,5	-3,372
1945,118	-10	-3,397
1947,29	-10,5	-3,426
1949,456	-10,5	-3,446
1951,628	-11	-3,445
1953,793	-10,5	-3,448
1955,959	-11	-3,454
1958,125	-10,5	-3,46
1960,291	-11	-3,472
1962,457	-11,5	-3,476
1964,623	-11	-3,47
1966,789	-11	-3,476
1968,961	-11,5	-3,481
1971,133	-11,5	-3,484
1973,298	-11,5	-3,484
1975,458	-11,5	-3,483
1977,63	-11,5	-3,486
1979,796	-11,5	-3,486
1981,962	-11,5	-3,488
1984,134	-11,5	-3,49
1986,294	-11,5	-3,49
1988,46	-11,5	-3,49
1990,631	-11,5	-3,49
1992,791	-11,5	-3,489
1994,957	-11,5	-3,49
1997,117	-11,5	-3,492
1999,289	-11,5	-3,492
2001,455	-11,5	-3,494
2003,627	-11,5	-3,495
2005,798	-11,5	-3,496
2007,964	-11,5	-3,496
2010,124	-11,5	-3,497
2012,29	-11,5	-3,497
2014,468	-11,5	-3,498
2016,628	-11,5	-3,497
2018,8	-11,5	-3,497
2020,972	-12	-3,498
2023,131	-11,5	-3,497
2025,297	-11,5	-3,497
2027,463	-11,5	-3,496
2029,635	-11,5	-3,498
2031,807	-11,5	-3,498
2033,973	-11,5	-3,498
2036,133	-11,5	-3,498
2038,299	-11,5	-3,498
2040,471	-11,5	-3,498
2042,63	-11,5	-3,498
2044,802	-11,5	-3,499
2046,968	-11,5	-3,499
2049,128	-11,5	-3,499
2051,3	-11,5	-3,499
2053,472	-11,5	-3,499
2055,638	-11	-3,499
2057,81	-11,5	-3,499
2059,981	-11,5	-3,499
2062,147	-11	-3,5
2064,313	-11,5	-3,5
2066,479	-11	-3,5
2068,645	-11	-3,5
2070,811	-11	-3,5
2072,977	-11	-3,5
2075,143	-11	-3,472
2077,308	-11	-3,414
2079,474	-10,5	-3,439
2081,64	-11	-3,401
2083,806	-11	-3,389
2085,972	-11	-3,3
2088,138	-10,5	-3,233
2090,31	-10,5	-3,22
2092,469	-10,5	-3,163
2094,635	-10,5	-3,184
2096,801	-10	-3,135
2098,973	-9	-2,94
2101,139	-8	-2,89
2103,305	-6,5	-2,668
2105,471	-5,5	-2,474
2107,631	-4,5	-2,292
2109,797	-3	-2,035
2111,968	-2,5	-1,819
2114,134	-2	-1,586
2116,3	-1	-1,409
2118,472	-0,5	-1,149
2120,632	0	-0,975
2122,804	-0,5	-0,928
2124,97	0	-0,926
2127,13	-0,5	-1,004
2129,301	-0,5	-1,01
2131,467	0	-0,941
2133,627	0	-0,954
2135,799	0	-0,909
2137,971	0	-0,852
2140,137	0	-0,818
2142,303	0	-0,84
2144,475	0	-0,734
2146,64	0	-0,805
2148,806	0	-0,82
2150,978	0	-0,753
2153,138	0	-0,718
2155,31	0	-0,677
2157,476	0	-0,719
2159,642	0	-0,671
2161,802	0	-0,7
2163,973	0	-0,602
2166,133	0	-0,568
2168,299	0	-0,567
2170,465	0	-0,524
2172,637	0,5	-0,424
2174,809	0	-0,393
2176,975	0,5	-0,269
2179,147	0,5	-0,214
2181,312	1	-0,232
2183,478	0,5	-0,266
2185,644	0,5	-0,279
2187,817	1	-0,232
2189,982	1	-0,257
2192,148	0,5	-0,196
2194,308	0,5	-0,219
2196,48	1	-0,155
2198,64	1	-0,179
2200,799	1	-0,189
2202,971	1	-0,19
2205,131	1	-0,199
2207,297	1	-0,199
2209,463	1	-0,204
2211,635	1	-0,153
2213,807	1	-0,113
2215,972	1	-0,139
2218,138	1	-0,194
2220,31	1	-0,17
2222,482	1	-0,147
2224,648	1	-0,123
2226,814	1,5	-0,105
2228,974	1,5	-0,09
2231,14	1,5	-0,086
2233,306	1,5	-0,068
2235,471	1,5	-0,072
2237,637	1,5	-0,08
2239,815	2	-0,049
2241,975	2	-0,064
2244,147	2	-0,05
2246,313	2	-0,053
2248,485	2	-0,048
2250,656	2	-0,049
2252,822	2	-0,04
2254,988	2	-0,034
2257,154	2	-0,034
2259,326	2,5	-0,024
2261,492	2,5	-0,019
2263,658	2,5	-0,011
2265,824	2,5	-0,008
2267,996	2,5	-0,005
2270,161	2,5	-0,004
2272,333	2,5	-0,003
2274,499	2,5	-0,003
2276,659	2,5	-0,003
2278,825	2,5	-0,004
2280,997	2,5	-0,002
2283,157	2,5	-0,002
2285,323	2,5	-0,002
2287,488	2,5	-0,002
2289,66	2,5	-0,002
2291,826	2,5	-0,002
2293,992	2,5	-0,002
2296,164	2,5	-0,001
2298,336	2,5	0
2300,502	3	0
2302,668	3	0
2304,833	2,5	0
2306,993	2,5	0
2309,165	2,5	-0,052
2311,331	2,5	-0,094
2313,497	2,5	-0,083
2315,669	2,5	-0,044
2317,829	2,5	-0,021
2319,995	2,5	-0,046
2322,154	2,5	-0,002
2324,326	3	-0,113
2326,492	2,5	-0,179
2328,658	2,5	-0,274
2330,824	2	-0,468
2332,996	0,5	-0,695
2335,162	0	-0,94
2337,328	-0,5	-1,115
2339,493	-1	-1,255
2341,659	-1	-1,415
2343,825	-1,5	-1,537
2345,991	-2	-1,692
2348,157	-1,5	-1,67
2350,323	-2	-1,632
2352,495	-2	-1,706
2354,667	-2	-1,805
2356,832	-2	-1,801
2358,998	-2	-1,763
2361,164	-2	-1,737
2363,336	-2	-1,768
2365,496	-1,5	-1,664
2367,662	-2	-1,756
2369,834	-2	-1,832
2372	-2	-1,764
2374,165	-2	-1,828
2376,325	-2	-1,782
2378,497	-2	-1,824
2380,663	-2	-1,825
2382,829	-1,5	-1,761
2384,995	-2	-1,755
2387,167	-2	-1,801
2389,327	-2	-1,735
2391,492	-1,5	-1,716
2393,658	-1,5	-1,837
2395,83	-2,5	-1,884
2397,996	-2,5	-1,974
2400,168	-2,5	-2,005
2402,334	-2,5	-2,005
2404,512	-3	-2,119
2406,678	-3	-2,156
2408,843	-3	-2,162
2411,009	-3	-2,23
2413,175	-3	-2,291
2415,341	-3	-2,301
2417,507	-3	-2,302
2419,673	-3	-2,306
2421,839	-3,5	-2,334
2424,017	-4	-2,442
2426,183	-3,5	-2,421
2428,348	-3,5	-2,396
2430,514	-3,5	-2,438
2432,68	-4	-2,45
2434,852	-3,5	-2,416
2437,018	-4	-2,432
2439,19	-3,5	-2,388
2441,356	-3,5	-2,427
2443,521	-3,5	-2,432
2445,681	-3,5	-2,44
2447,841	-3,5	-2,383
2450,013	-3,5	-2,477
2452,179	-4	-2,44
2454,345	-4	-2,494
2456,511	-3,5	-2,435
2458,683	-4	-2,417
2460,849	-3,5	-2,45
2463,02	-4,5	-2,602
2465,192	-5	-2,788
2467,358	-5	-2,735
2469,518	-5	-2,748
2471,684	-4,5	-2,717
2473,868	-5	-2,827
2476,046	-5,5	-3
2478,211	-5,5	-3
2480,377	-6	-3,036
2482,543	-6	-3,107
2484,715	-7	-3,159
2486,887	-7	-3,21
2489,053	-7,5	-3,229
2491,219	-7	-3,201
2493,385	-6,5	-3,169
2495,557	-7	-3,224
2497,722	-7	-3,194
2499,888	-7	-3,205
2502,06	-7,5	-3,254
2504,232	-7,5	-3,273
2506,398	-7,5	-3,298
2508,564	-7	-3,25
2510,736	-7,5	-3,253
2512,902	-7	-3,212
2515,067	-6,5	-3,218
2517,227	-6	-3,109
2519,393	-6	-3,066
2521,565	-6,5	-3,15
2523,731	-6,5	-3,119
2525,897	-6	-3,051
2528,063	-6	-3,12
2530,235	-7	-3,246
2532,394	-7	-3,234
2534,554	-7	-3,249
2536,72	-7,5	-3,299
2538,892	-8	-3,337
2541,052	-8,5	-3,372
2543,218	-8,5	-3,399
2545,384	-8,5	-3,4
2547,556	-8,5	-3,401
2549,721	-8,5	-3,422
2551,887	-8,5	-3,42
2554,047	-8,5	-3,42
2556,213	-9	-3,439
2558,379	-9	-3,446
2560,545	-9	-3,451
2562,711	-9,5	-3,462
2564,877	-9,5	-3,468
2567,048	-9,5	-3,461
2569,214	-9,5	-3,467
2571,38	-9,5	-3,476
2573,54	-9,5	-3,483
2575,712	-9,5	-3,486
2577,872	-9,5	-3,488
2580,038	-9,5	-3,489
2582,198	-9,5	-3,49
2584,369	-10	-3,492
2586,535	-9,5	-3,492
2588,701	-9,5	-3,491
2590,861	-9,5	-3,491
2593,027	-9,5	-3,492
2595,193	-9,5	-3,495
2597,359	-9,5	-3,497
2599,525	-9,5	-3,498
2601,69	-9,5	-3,498
2603,862	-9,5	-3,499
2606,022	-9,5	-3,499
2608,188	-9,5	-3,499
2610,354	-9,5	-3,499
2612,526	-9,5	-3,498
2614,686	-9,5	-3,498
2616,852	-9,5	-3,498
2619,018	-9,5	-3,498
2621,189	-9,5	-3,496
2623,355	-9,5	-3,495
2625,521	-9,5	-3,495
2627,687	-9,5	-3,495
2629,847	-9,5	-3,496
2632,019	-9,5	-3,495
2634,185	-9,5	-3,496
2636,35	-9,5	-3,495
2638,522	-9,5	-3,494
2640,688	-9,5	-3,495
2642,854	-9,5	-3,496
2645,02	-9,5	-3,496
2647,186	-9,5	-3,496
2649,346	-9,5	-3,496
2651,512	-9,5	-3,496
2653,677	-9,5	-3,498
2655,849	-9,5	-3,498
2658,009	-9,5	-3,499
2660,181	-9,5	-3,499
2662,347	-9,5	-3,499
2664,513	-9,5	-3,499
2666,679	-9,5	-3,499
2668,845	-9,5	-3,498
2671,017	-9,5	-3,499
2673,182	-9,5	-3,498
2675,348	-9,5	-3,498
2677,508	-9,5	-3,498
2679,68	-9,5	-3,497
2681,846	-9	-3,497
2684,006	-9,5	-3,496
2686,172	-9	-3,495
2688,343	-9	-3,493
2690,509	-9	-3,492
2692,675	-9	-3,491
2694,847	-9	-3,491
2697,013	-9	-3,489
2699,179	-9	-3,488
2701,345	-9	-3,488
2703,511	-9	-3,491
2705,677	-9	-3,491
2707,842	-9	-3,49
2710,014	-9	-3,491
2712,174	-9	-3,494
2714,34	-9	-3,497
2716,506	-9	-3,498
2718,684	-9	-3,498
2720,85	-9	-3,499
2723,016	-9	-3,499
2725,181	-9	-3,499
2727,347	-9	-3,5
2729,519	-9	-3,5
2731,685	-9	-3,5
2733,851	-9	-3,494
2736,017	-9	-3,456
2738,189	-9	-3,395
2740,355	-9	-3,267
2742,52	-9	-3,238
2744,68	-9	-3,225
2746,858	-8,5	-3,17
2749,024	-8,5	-3,158
2751,19	-8,5	-3,124
2753,35	-9	-3,205
2755,516	-8	-3,155
2757,688	-8,5	-3,124
2759,859	-8	-3,061
2762,019	-7,5	-3,028
2764,191	-8	-2,996
2766,357	-7	-2,938
2768,523	-6,5	-2,874
2770,689	-5,5	-2,665
2772,855	-5,5	-2,675
2775,027	-4,5	-2,582
2777,192	-5	-2,614
2779,364	-5	-2,593
2781,53	-5	-2,573
2783,696	-4	-2,464
2785,862	-4	-2,369
2788,034	-3,5	-2,323
2790,2	-3	-2,221
2792,372	-3	-2,174
2794,537	-2	-2,003
2796,703	-2	-1,854
2798,869	-1,5	-1,753
2801,035	-1,5	-1,63
2803,201	-1	-1,476
2805,367	-0,5	-1,232
2807,533	0	-1,103
2809,705	0	-0,817
2811,87	0	-0,722
2814,036	0	-0,546
2816,202	0,5	-0,364
2818,368	1	-0,24
2820,54	1	-0,224
2822,718	1,5	-0,139
2824,884	1	-0,156
2827,05	1,5	-0,13
2829,209	1,5	-0,128
2831,375	1,5	-0,132
2833,541	1,5	-0,134
2835,707	1,5	-0,127
2837,873	1,5	-0,104
2840,045	1,5	-0,077
2842,205	2	-0,06
2844,377	2	-0,047
2846,548	2	-0,039
2848,708	2	-0,042
2850,874	2,5	-0,033
2853,04	2,5	-0,023
2855,206	2,5	-0,014
2857,366	2,5	-0,012
2859,544	2,5	-0,008
2861,71	2,5	-0,008
2863,875	2,5	-0,006
2866,047	2,5	-0,004
2868,213	2,5	-0,004
2870,385	2,5	-0,002
2872,551	2,5	-0,002
2874,717	2,5	-0,002
2876,883	2,5	-0,002
2879,055	2,5	-0,001
2881,22	2,5	-0,001
2883,392	2,5	-0,001
2885,552	2,5	-0,001
2887,724	2,5	0
2889,896	2,5	0
2892,062	3	-0,018
2894,228	2,5	-0,052
2896,4	2,5	-0,102
2898,571	2,5	-0,124
2900,737	2,5	-0,17
2902,909	2,5	-0,269
2905,075	2,5	-0,264
2907,235	2,5	-0,256
2909,407	2	-0,265
2911,579	2	-0,351
2913,745	1,5	-0,436
2915,911	0,5	-0,581
2918,076	1,5	-0,528
2920,248	0	-0,642
2922,414	0,5	-0,67
2924,58	0	-0,712
2926,746	0	-0,703
2928,906	0	-0,716
2931,078	0	-0,747
2933,238	0,5	-0,701
2935,409	0	-0,763
2937,575	0	-0,821
2939,741	0	-0,917
2941,913	0	-0,917
2944,079	0	-0,986
2946,245	-0,5	-1,05
2948,411	-0,5	-1,071
2950,571	-0,5	-1,057
2952,742	-0,5	-1,142
2954,908	-1	-1,242
2957,074	-0,5	-1,291
2959,24	-1	-1,307
2961,406	-1	-1,387
2963,578	-1	-1,402
2965,744	-1	-1,509
2967,91	-1	-1,546
2970,075	-1	-1,552
2972,241	-1,5	-1,627
2974,407	-1	-1,638
2976,573	-1,5	-1,633
2978,733	-1	-1,561
2980,899	-1	-1,582
2983,077	-1	-1,696
2985,243	-1,5	-1,728
2987,408	-1,5	-1,808
2989,574	-1,5	-1,776
2991,746	-1,5	-1,913
2993,912	-1,5	-1,855
2996,084	-1,5	-1,917
2998,25	-1,5	-2,002
3000,416	-2	-2,014
3002,576	-2	-2,042
3004,741	-2	-2,013
3006,907	-2	-2,059
3009,067	-2	-2,046
3011,233	-1,5	-2,03
3013,399	-1,5	-2,026
3015,571	-2	-2,146
3017,737	-2	-2,136
3019,903	-2	-2,231
3022,068	-2,5	-2,222
3024,24	-2,5	-2,353
3026,406	-2,5	-2,444
3028,572	-2,5	-2,47
3030,738	-3	-2,577
3032,904	-3	-2,541
3035,076	-2,5	-2,558
3037,242	-3	-2,588
3039,413	-3	-2,708
3041,573	-3	-2,667
3043,739	-3,5	-2,837
3045,911	-3,5	-2,847
3048,077	-3,5	-2,938
3050,243	-3,5	-2,923
3052,409	-3,5	-2,886
3054,569	-3,5	-2,888
3056,74	-4	-2,982
3058,906	-4	-2,988
3061,072	-4	-3,057
3063,238	-4	-3,1
3065,404	-4	-3,112
3067,576	-4	-3,152
3069,742	-4,5	-3,174
3071,908	-4,5	-3,19
3074,073	-4,5	-3,23
3076,251	-5	-3,323
3078,417	-5,5	-3,343
3080,583	-5,5	-3,353
3082,755	-5	-3,352
3084,915	-5	-3,336
3087,093	-5	-3,368
3089,259	-5,5	-3,394
3091,424	-5,5	-3,396
3093,59	-5	-3,387
3095,756	-6	-3,414
3097,928	-5,5	-3,432
3100,094	-6	-3,432
3102,26	-5,5	-3,434
3104,42	-6	-3,432
3106,586	-6	-3,445
3108,751	-6	-3,454
3110,917	-5,5	-3,452
3113,077	-6	-3,447
3115,243	-6	-3,444
3117,409	-6	-3,451
3119,581	-6	-3,46
3121,747	-6	-3,463
3123,913	-6	-3,472
3126,078	-6,5	-3,476
3128,244	-6	-3,482
3130,416	-6	-3,483
3132,582	-6,5	-3,484
3134,754	-6,5	-3,484
3136,926	-6,5	-3,489
3139,098	-6,5	-3,491
3141,27	-6,5	-3,493
3143,435	-6,5	-3,493
3145,601	-6,5	-3,495
3147,767	-6,5	-3,495
3149,927	-6,5	-3,496
3152,099	-6	-3,496
3154,265	-6,5	-3,496
3156,431	-6,5	-3,497
3158,597	-6,5	-3,498
3160,763	-6,5	-3,498
3162,934	-6,5	-3,499
3165,1	-6,5	-3,499
3167,266	-6,5	-3,5
3169,432	-6,5	-3,462
3171,598	-6,5	-3,494
3173,764	-6,5	-3,446
3175,93	-6,5	-3,36
3178,096	-6,5	-3,31
3180,255	-6	-3,295
3182,421	-6	-3,115
3184,587	-5,5	-3,05
3186,759	-5	-2,999
3188,925	-4,5	-2,955
3191,091	-4,5	-2,972
3193,251	-5,5	-3,086
3195,423	-6	-3,141
3197,588	-5,5	-3,136
3199,754	-6	-3,19
3201,92	-6,5	-3,243
3204,086	-6,5	-3,426
3206,258	-6	-3,5
3208,424	-6	-3,496
3210,59	-6	-3,45
3212,756	-6	-3,41
3214,921	-6	-3,254
3217,093	-6	-3,494
3219,271	-6	-3,5
3221,431	-6	-3,499
3223,597	-6	-3,499
3225,769	-6	-3,499
3227,935	-6,5	-3,499
3230,101	-6	-3,499
3231,204	2,5	-0,001