File: ensaios_Ciclicos/_50perc/_2gap/entrada/_5.txt
Time (s)	Load (N)	Displacement (mm)
0	0	-0,036
2,213	-0,5	-0,547
4,349	-1	-0,6
6,485	-0,5	-0,53
8,62	0	-0,362
10,762	0,5	-0,295
12,898	1	-0,305
15,04	0,5	-0,378
17,176	0,5	-0,361
19,318	1	-0,364
21,454	1	-0,352
23,602	0,5	-0,406
25,738	1	-0,481
27,879	0,5	-0,5
30,015	1	-0,44
32,151	1,5	-0,284
34,287	1,5	-0,184
36,423	1,5	-0,114
38,559	1,5	0
40,707	1,5	0
42,849	1,5	-0,001
44,984	1,5	-0,001
47,126	1,5	-0,001
49,262	1,5	-0,001
51,41	2	-0,002
53,552	2	-0,002
55,7	2	-0,004
57,842	2	-0,004
59,978	2	-0,006
62,113	1,5	-0,008
64,25	1,5	-0,011
66,397	2	-0,01
68,539	2	-0,012
70,681	2	-0,016
72,823	2	-0,018
74,959	2	-0,019
77,094	2	-0,014
79,236	2	-0,017
81,384	2	-0,02
83,532	1,5	-0,033
85,674	2	-0,024
87,816	2	-0,017
89,952	1,5	-0,028
92,088	1,5	-0,027
94,236	1,5	-0,034
96,389	1,5	-0,044
98,525	1,5	-0,04
100,667	1,5	-0,058
102,809	1,5	-0,069
104,951	1,5	-0,087
107,093	1,5	-0,103
109,235	1	-0,097
111,371	0,5	-0,133
113,506	0,5	-0,14
115,666	0,5	-0,16
117,808	1	-0,138
119,95	1	-0,167
122,09	0,5	-0,198
124,222	0	-0,317
126,376	0	-0,286
128,518	0	-0,448
130,671	-0,5	-0,524
132,807	-0,5	-0,594
134,949	-1	-0,75
137,091	-1	-0,738
139,233	-1	-0,872
141,381	-1,5	-0,889
143,523	-2,5	-1,103
145,671	-3	-1,134
147,812	-1,5	-0,945
149,954	-2	-1,113
152,096	-2,5	-1,154
154,244	-2	-0,988
156,386	-2	-0,974
158,528	-1,5	-0,918
160,664	-1,5	-0,972
162,806	-2	-1,076
164,947	-2,5	-1,148
167,095	-3	-1,306
169,237	-4	-1,458
171,379	-4	-1,477
173,521	-4	-1,511
175,663	-5	-1,646
177,811	-4,5	-1,629
179,959	-5	-1,671
182,106	-4,5	-1,517
184,248	-3	-1,354
186,402	-2,5	-1,207
188,544	-3	-1,337
190,698	-3	-1,237
192,852	-2,5	-1,274
195,006	-3	-1,239
197,154	-2,5	-1,198
199,307	-1,5	-1,032
201,455	-1,5	-0,968
203,591	-1	-0,834
205,739	-0,5	-0,738
207,905	0	-0,542
210,048	0,5	-0,315
212,195	0,5	-0,201
214,343	1,5	-0,118
216,49	1,5	-0,09
218,638	2	-0,047
220,786	2	-0,031
222,94	2	-0,033
225,082	2	-0,019
227,23	2,5	-0,015
229,366	2,5	-0,011
231,52	2,5	-0,008
233,662	2,5	-0,006
235,803	2,5	-0,003
237,945	2,5	-0,002
240,087	2,5	-0,002
242,229	2	-0,001
244,371	2,5	-0,001
246,519	2,5	-0,001
248,673	2,5	0
250,809	2,5	-0,054
252,95	2,5	-0,153
255,092	2	-0,282
257,234	2	-0,231
259,382	2	-0,324
261,524	1,5	-0,461
263,678	1	-0,545
265,814	1,5	-0,396
267,95	1,5	-0,457
270,097	1,5	-0,502
272,24	1,5	-0,524
274,381	1,5	-0,532
276,523	0	-0,674
278,671	-1	-0,861
280,807	-1,5	-0,956
282,955	-2,5	-1,196
285,103	-3	-1,318
287,244	-2,5	-1,215
289,392	-2,5	-1,184
291,534	-3	-1,336
293,676	-3	-1,407
295,824	-3,5	-1,53
297,966	-3,5	-1,644
300,12	-4	-1,813
302,268	-3,5	-1,702
304,421	-3,5	-1,637
306,563	-3,5	-1,613
308,711	-3	-1,513
310,859	-3	-1,62
313,001	-3,5	-1,597
315,143	-3,5	-1,616
317,285	-3,5	-1,719
319,439	-4	-1,903
321,586	-5	-2,038
323,74	-6	-2,281
325,888	-6,5	-2,426
328,03	-6,5	-2,492
330,19	-9	-2,818
332,326	-9	-2,807
334,48	-10,5	-3,024
336,634	-12	-3,277
338,794	-13,5	-3,38
340,941	-15	-3,44
343,095	-15	-3,455
345,243	-15	-3,474
347,397	-15,5	-3,488
349,545	-15,5	-3,492
351,687	-15,5	-3,492
353,835	-15,5	-3,495
355,989	-15,5	-3,497
358,142	-15,5	-3,498
360,278	-15,5	-3,499
362,432	-15	-3,5
364,58	-15,5	-3,47
366,728	-15	-3,316
368,882	-14,5	-3,082
371,03	-13,5	-2,947
373,184	-11,5	-2,752
375,331	-10,5	-2,677
377,473	-10,5	-2,643
379,615	-10	-2,523
381,763	-8	-2,373
383,905	-8	-2,367
386,053	-8	-2,299
388,201	-7	-2,214
390,337	-6	-2,167
392,472	-6	-2,099
394,62	-5	-1,902
396,762	-4,5	-1,846
398,91	-4	-1,728
401,052	-3,5	-1,608
403,2	-3	-1,437
405,336	-3	-1,588
407,478	-3	-1,548
409,625	-3	-1,525
411,773	-3	-1,408
413,921	-2	-1,259
416,063	-1,5	-1,139
418,217	-1	-0,964
420,365	-0,5	-0,888
422,513	0	-0,656
424,667	0	-0,54
426,814	0,5	-0,41
428,962	1	-0,284
431,11	1,5	-0,177
433,258	1,5	-0,112
435,406	2	-0,077
437,554	2,5	-0,049
439,702	2,5	-0,029
441,844	3	-0,018
443,991	2,5	-0,011
446,139	2,5	-0,007
448,293	2,5	-0,004
450,435	2,5	-0,002
452,589	2,5	-0,002
454,731	2,5	-0,001
456,885	2,5	0
459,033	2,5	-0,171
461,174	2	-0,322
463,322	1	-0,521
465,47	0	-0,746
467,624	-1	-0,908
469,766	-1,5	-1,071
471,926	-2	-1,212
474,068	-2,5	-1,337
476,21	-3	-1,53
478,364	-3,5	-1,7
480,512	-4,5	-1,902
482,653	-4,5	-2,011
484,801	-5	-2,135
486,955	-5	-2,138
489,103	-5	-2,086
491,251	-5	-2,188
493,393	-6,5	-2,441
495,546	-6,5	-2,552
497,688	-7	-2,638
499,836	-8	-2,741
501,984	-9	-2,959
504,132	-11	-3,152
506,28	-12	-3,303
508,422	-12	-3,341
510,576	-13,5	-3,425
512,73	-14,5	-3,46
514,877	-15	-3,48
517,019	-15	-3,49
519,167	-15	-3,496
521,315	-15	-3,498
523,457	-15	-3,498
525,605	-15	-3,499
527,759	-15	-3,5
529,907	-15	-3,406
532,054	-14,5	-3,164
534,208	-12,5	-2,966
536,356	-10,5	-2,732
538,498	-10	-2,602
540,646	-8	-2,447
542,794	-7,5	-2,313
544,936	-6,5	-2,208
547,09	-5	-1,96
549,231	-4,5	-1,822
551,385	-3	-1,592
553,533	-2,5	-1,453
555,687	-1,5	-1,21
557,835	-0,5	-0,854
559,977	0	-0,674
562,119	0	-0,512
564,261	0	-0,378
566,408	1,5	-0,18
568,55	1,5	-0,124
570,704	1,5	-0,07
572,858	2	-0,038
575,012	2,5	-0,021
577,154	2,5	-0,014
579,308	2,5	-0,007
581,45	2,5	-0,005
583,61	2,5	-0,003
585,751	3	-0,001
587,899	3	0
590,041	3	-0,16
592,189	2,5	-0,328
594,343	1,5	-0,487
596,485	0,5	-0,576
598,639	0	-0,756
600,781	0	-0,827
602,928	-1,5	-1,082
605,076	-1,5	-1,248
607,224	-1,5	-1,243
609,372	-2	-1,318
611,526	-2,5	-1,573
613,674	-3	-1,712
615,822	-3,5	-1,813
617,969	-4	-2,043
620,111	-4,5	-2,179
622,259	-5	-2,332
624,407	-5,5	-2,43
626,549	-5,5	-2,523
628,697	-6	-2,619
630,845	-7,5	-2,775
632,999	-7,5	-2,875
635,141	-9	-3,01
637,282	-9,5	-3,13
639,427	-10	-3,133
641,566	-10,5	-3,25
643,72	-11,5	-3,334
645,868	-13	-3,41
648,028	-13,5	-3,438
650,182	-13,5	-3,445
652,33	-13,5	-3,453
654,477	-14	-3,458
656,631	-14	-3,471
658,779	-14	-3,459
660,927	-14	-3,461
663,081	-14	-3,471
665,229	-14	-3,475
667,371	-14,5	-3,483
669,519	-14,5	-3,49
671,666	-14,5	-3,492
673,808	-14,5	-3,494
675,962	-14,5	-3,496
678,11	-14,5	-3,498
680,258	-14,5	-3,498
682,4	-14,5	-3,499
684,548	-14,5	-3,499
686,702	-14,5	-3,488
688,849	-14,5	-3,4
690,991	-14,5	-3,284
693,139	-14	-3,234
695,293	-13,5	-3,041
697,441	-12	-2,949
699,589	-11,5	-2,854
701,737	-9,5	-2,683
703,879	-9	-2,605
706,027	-9	-2,546
708,174	-7,5	-2,369
710,322	-6	-2,2
712,464	-5	-2,054
714,618	-5	-2,069
716,766	-4,5	-1,989
718,908	-4,5	-1,923
721,05	-3,5	-1,798
723,198	-3	-1,718
725,345	-3	-1,679
727,499	-2	-1,499
729,647	-2	-1,478
731,795	-2	-1,45
733,943	-2	-1,408
736,085	-2	-1,367
738,227	-1,5	-1,295
740,375	-1,5	-1,338
742,528	-1,5	-1,318
744,676	-2	-1,429
746,818	-2,5	-1,522
748,966	-2,5	-1,542
751,108	-2	-1,428
753,25	-2	-1,377
755,404	-1	-1,208
757,558	-0,5	-0,969
759,711	-0,5	-0,844
761,853	0	-0,74
764,001	0	-0,638
766,155	0	-0,485
768,303	0,5	-0,414
770,451	1	-0,247
772,593	1,5	-0,201
774,747	1,5	-0,117
776,9	2	-0,083
779,042	2,5	-0,051
781,184	2,5	-0,046
783,332	2,5	-0,028
785,48	2,5	-0,022
787,634	2,5	-0,016
789,77	2,5	-0,016
791,924	2,5	-0,009
794,072	2,5	-0,006
796,207	2,5	-0,004
798,355	2,5	-0,003
800,503	2,5	-0,002
802,651	2,5	-0,002
804,793	2,5	-0,004
806,941	2,5	-0,004
809,089	2,5	-0,005
811,23	2,5	-0,006
813,384	2,5	-0,003
815,538	2,5	-0,001
817,68	2,5	-0,002
819,828	2,5	-0,004
821,976	2,5	-0,006
824,124	2,5	-0,004
826,272	2,5	-0,006
828,419	2,5	-0,006
830,561	2,5	-0,005
832,709	2,5	-0,009
834,851	2,5	-0,016
836,999	2,5	-0,024
839,147	2	-0,035
841,295	2,5	-0,025
843,443	2,5	-0,036
845,591	2	-0,054
847,732	2	-0,065
849,88	1,5	-0,112
852,028	1,5	-0,117
854,17	1,5	-0,189
856,318	1	-0,188
858,466	1	-0,232
860,608	1,5	-0,125
862,756	1	-0,18
864,903	1	-0,276
867,045	0,5	-0,457
869,193	0	-0,622
871,353	0	-0,593
873,495	0	-0,765
875,643	0	-0,839
877,791	-0,5	-0,94
879,933	-1	-1,138
882,074	-1	-1,243
884,216	-2,5	-1,499
886,37	-2,5	-1,592
888,512	-3	-1,749
890,654	-3,5	-1,81
892,808	-4	-1,933
894,956	-4	-1,894
897,098	-4,5	-2,052
899,251	-5	-2,123
901,393	-5,5	-2,259
903,535	-5	-2,138
905,683	-5,5	-2,218
907,831	-6	-2,328
909,973	-6,5	-2,32
912,127	-5,5	-2,258
914,263	-5,5	-2,232
916,411	-6	-2,237
918,552	-6	-2,254
920,694	-6,5	-2,321
922,848	-6	-2,37
924,984	-8	-2,558
927,132	-8,5	-2,619
929,274	-11	-2,91
931,422	-9,5	-2,82
933,57	-9,5	-2,76
935,717	-11	-2,857
937,871	-12	-2,985
940,019	-11	-2,845
942,173	-8	-2,585
944,315	-7	-2,392
946,469	-5	-2,127
948,611	-5	-2,057
950,758	-4,5	-1,974
952,906	-3	-1,761
955,054	-2,5	-1,649
957,208	-2,5	-1,629
959,362	-1,5	-1,486
961,504	-1,5	-1,456
963,652	-1,5	-1,344
965,794	-1	-1,22
967,936	-1	-1,19
970,089	-0,5	-1,122
972,231	-0,5	-1,094
974,373	-1	-1,09
976,515	-0,5	-0,954
978,663	0	-0,799
980,817	0	-0,631
982,965	0,5	-0,429
985,107	1	-0,235
987,254	1,5	-0,162
989,396	1,5	-0,105
991,538	2	-0,068
993,68	2	-0,041
995,822	2,5	-0,024
997,964	2,5	-0,015
1000,106	2,5	-0,01
1002,254	2,5	-0,006
1004,395	2,5	-0,004
1006,537	3	-0,003
1008,679	3	-0,002
1010,827	3	-0,001
1012,973	2,5	0
1015,117	2,5	-0,158
1017,259	2	-0,406
1019,395	1,5	-0,518
1021,542	0	-0,726
1023,684	-0,5	-0,893
1025,832	-0,5	-0,932
1027,98	-1	-0,969
1030,122	-1	-1,046
1032,27	-1,5	-1,191
1034,412	-1	-1,152
1036,554	-1,5	-1,293
1038,701	-2,5	-1,537
1040,849	-2,5	-1,767
1042,997	-3	-1,788
1045,145	-3,5	-2,044
1047,293	-3	-1,97
1049,435	-4	-2,079
1051,583	-3,5	-2,048
1053,731	-4,5	-2,316
1055,872	-4	-2,232
1058,014	-5	-2,435
1060,162	-4,5	-2,374
1062,31	-4	-2,151
1064,452	-3,5	-2,138
1066,594	-3,5	-2,092
1068,736	-3	-1,925
1070,878	-4	-2,178
1073,026	-3,5	-2,088
1075,161	-3,5	-2,12
1077,303	-4	-2,293
1079,445	-4	-2,231
1081,587	-4,5	-2,33
1083,729	-4	-2,204
1085,871	-4	-2,182
1088,013	-4	-2,109
1090,161	-4,5	-2,258
1092,302	-5	-2,485
1094,45	-5,5	-2,677
1096,598	-7,5	-2,911
1098,74	-6,5	-2,765
1100,876	-5,5	-2,621
1103,024	-6	-2,766
1105,16	-6,5	-2,871
1107,308	-6,5	-2,834
1109,449	-7,5	-3,103
1111,597	-10	-3,274
1113,739	-11	-3,375
1115,887	-11	-3,397
1118,029	-12,5	-3,447
1120,177	-13	-3,449
1122,325	-13	-3,463
1124,467	-13	-3,461
1126,614	-13,5	-3,48
1128,75	-13,5	-3,481
1130,899	-13,5	-3,483
1133,04	-13	-3,482
1135,182	-13,5	-3,482
1137,324	-13,5	-3,483
1139,472	-13,5	-3,49
1141,614	-13,5	-3,494
1143,761	-13,5	-3,497
1145,903	-13,5	-3,497
1148,045	-13,5	-3,498
1150,187	-13,5	-3,499
1152,329	-13,5	-3,499
1154,471	-13,5	-3,482
1156,619	-13,5	-3,306
1158,761	-13	-3,075
1160,903	-12	-2,992
1163,044	-11,5	-2,925
1165,192	-10,5	-2,866
1167,334	-9	-2,699
1169,488	-8	-2,614
1171,63	-6,5	-2,43
1173,772	-6	-2,37
1175,914	-6	-2,288
1178,056	-5,5	-2,258
1180,197	-6	-2,294
1182,345	-5	-2,218
1184,487	-5,5	-2,289
1186,641	-6	-2,269
1188,783	-6	-2,283
1190,925	-6	-2,295
1193,067	-5	-2,17
1195,209	-4,5	-2,05
1197,35	-4	-2,006
1199,498	-3,5	-1,894
1201,64	-3,5	-1,826
1203,782	-3	-1,75
1205,924	-2,5	-1,748
1208,066	-3	-1,782
1210,208	-2	-1,599
1212,35	-2	-1,533
1214,491	-1,5	-1,47
1216,639	-1,5	-1,38
1218,781	-1	-1,282
1220,923	-0,5	-1,104
1223,065	0	-0,91
1225,213	0	-0,701
1227,355	0	-0,57
1229,497	0	-0,51
1231,644	0,5	-0,44
1233,792	1	-0,246
1235,94	1,5	-0,096
1238,082	2	-0,084
1240,23	2	-0,065
1242,372	2	-0,057
1244,52	2,5	-0,038
1246,662	2,5	-0,029
1248,809	2,5	-0,021
1250,951	3	-0,018
1253,099	3	-0,01
1255,241	3	-0,008
1257,383	3	-0,006
1259,525	3	-0,004
1261,667	3	-0,006
1263,815	3	-0,003
1265,957	3	-0,002
1268,098	3	-0,002
1270,24	3	-0,001
1272,388	3	-0,001
1274,53	3	-0,001
1276,678	3	-0,001
1278,82	2,5	0
1280,962	3	-0,001
1283,104	3	-0,001
1285,245	3	0
1287,387	3	-0,001
1289,529	2,5	0
1291,671	3	-0,022
1293,807	2,5	-0,027
1295,955	2,5	-0,304
1298,097	2	-0,397
1300,239	1,5	-0,357
1302,38	1,5	-0,436
1304,516	1,5	-0,445
1306,658	1	-0,522
1308,794	2	-0,371
1310,942	1,5	-0,431
1313,084	1,5	-0,493
1315,232	1,5	-0,531
1317,374	1,5	-0,538
1319,515	1,5	-0,606
1321,663	1	-0,548
1323,811	0,5	-0,628
1325,953	0	-0,732
1328,095	2	-0,431
1330,243	1,5	-0,491
1332,385	1	-0,536
1334,527	1	-0,582
1336,674	0,5	-0,635
1338,816	-0,5	-0,787
1340,964	-0,5	-0,836
1343,106	-1	-1,04
1345,254	-1	-1,131
1347,396	-2	-1,357
1349,532	-2	-1,547
1351,674	-2,5	-1,853
1353,81	-3	-1,97
1355,951	-3,5	-2,18
1358,093	-4	-2,294
1360,235	-6	-2,641
1362,383	-7	-2,936
1364,525	-7,5	-3,002
1366,667	-7	-2,892
1368,815	-8,5	-3,117
1370,957	-8,5	-3,114
1373,104	-9	-3,224
1375,246	-11	-3,389
1377,394	-12,5	-3,45
1379,536	-12,5	-3,458
1381,678	-13	-3,473
1383,82	-13	-3,486
1385,962	-13	-3,492
1388,116	-13	-3,497
1390,257	-13	-3,499
1392,399	-13	-3,5
1394,547	-13,5	-3,331
1396,695	-12	-3,062
1398,831	-11	-2,972
1400,979	-8,5	-2,764
1403,121	-8	-2,634
1405,257	-6	-2,448
1407,404	-5,5	-2,34
1409,546	-5,5	-2,318
1411,688	-4	-2,027
1413,83	-3,5	-1,924
1415,966	-2,5	-1,679
1418,102	-2	-1,52
1420,238	-1,5	-1,349
1422,386	-1	-1,144
1424,527	-0,5	-1,073
1426,675	0	-0,88
1428,811	0	-0,823
1430,953	0	-0,714
1433,095	0	-0,583
1435,237	0,5	-0,431
1437,379	1	-0,233
1439,527	1	-0,188
1441,668	1,5	-0,108
1443,81	2	-0,075
1445,952	2,5	-0,071
1448,1	2,5	-0,03
1450,242	3	-0,013
1452,384	3	-0,009
1454,532	3	-0,006
1456,674	3	-0,003
1458,815	2,5	-0,002
1460,957	3	-0,001
1463,099	3	0
1465,247	3	-0,264
1467,389	1	-0,464
1469,531	0	-0,696
1471,673	-0,5	-0,836
1473,815	-1	-0,961
1475,957	-1	-1,134
1478,104	-1,5	-1,374
1480,246	-2	-1,605
1482,394	-2,5	-1,706
1484,542	-2,5	-1,814
1486,684	-3	-2,11
1488,826	-4	-2,302
1490,968	-5	-2,486
1493,116	-6	-2,796
1495,257	-7,5	-2,985
1497,399	-9	-3,196
1499,541	-10	-3,337
1501,677	-10,5	-3,37
1503,819	-11	-3,38
1505,961	-12	-3,422
1508,103	-12	-3,446
1510,245	-12,5	-3,474
1512,392	-13	-3,489
1514,534	-13	-3,492
1516,682	-13	-3,496
1518,824	-13	-3,498
1520,966	-13	-3,498
1523,108	-13	-3,499
1525,25	-13	-3,499
1527,392	-13	-3,499
1529,539	-13	-3,5
1531,681	-13	-3,343
1533,823	-13	-3,306
1535,965	-12,5	-3,247
1538,101	-13	-3,146
1540,249	-10,5	-2,963
1542,391	-8,5	-2,716
1544,533	-7,5	-2,554
1546,674	-6	-2,412
1548,816	-5,5	-2,266
1550,958	-4	-2,04
1553,106	-3	-1,826
1555,248	-2,5	-1,69
1557,39	-2	-1,514
1559,538	-1,5	-1,304
1561,68	-1	-1,201
1563,827	-0,5	-1,094
1565,969	0	-0,884
1568,111	0	-0,706
1570,259	0	-0,642
1572,401	0,5	-0,398
1574,537	1	-0,145
1576,685	2	-0,07
1578,827	1,5	-0,056
1580,969	2,5	-0,031
1583,11	2,5	-0,026
1585,252	2	-0,012
1587,394	2,5	-0,007
1589,542	3	-0,005
1591,684	2,5	-0,002
1593,826	3	-0,001
1595,968	2,5	0
1598,11	2,5	-0,104
1600,257	2,5	-0,29
1602,399	1	-0,534
1604,541	0	-0,781
1606,677	-0,5	-0,919
1608,819	-1	-1,022
1610,961	-1,5	-1,222
1613,109	-1,5	-1,312
1615,251	-1,5	-1,448
1617,392	-2	-1,595
1619,54	-2,5	-1,702
1621,682	-2,5	-1,8
1623,824	-3	-2,027
1625,972	-3,5	-2,266
1628,12	-4,5	-2,421
1630,268	-5	-2,576
1632,41	-6	-2,828
1634,551	-7	-2,976
1636,699	-8	-3,087
1638,841	-9	-3,272
1640,977	-10,5	-3,352
1643,125	-11	-3,401
1645,267	-11,5	-3,426
1647,409	-11,5	-3,441
1649,557	-12	-3,454
1651,692	-12,5	-3,467
1653,834	-12,5	-3,472
1655,988	-12,5	-3,484
1658,13	-13	-3,493
1660,272	-13	-3,494
1662,414	-13	-3,496
1664,556	-13	-3,497
1666,698	-13	-3,498
1668,839	-13	-3,498
1670,981	-13	-3,499
1673,123	-13	-3,499
1675,265	-13	-3,5
1677,407	-13	-3,359
1679,549	-12	-3,102
1681,691	-11,5	-2,999
1683,833	-10,5	-2,905
1685,975	-8	-2,733
1688,122	-8,5	-2,62
1690,27	-6,5	-2,417
1692,406	-5	-2,244
1694,548	-4,5	-2,16
1696,69	-4	-1,994
1698,832	-3	-1,782
1700,98	-2	-1,628
1703,128	-1,5	-1,388
1705,275	-0,5	-1,173
1707,417	-0,5	-1,07
1709,559	-0,5	-0,966
1711,707	0	-0,801
1713,849	0	-0,591
1715,991	0	-0,482
1718,139	1	-0,204
1720,275	1,5	-0,152
1722,41	1	-0,162
1724,552	1,5	-0,11
1726,694	2	-0,093
1728,836	2,5	-0,037
1730,978	3	-0,031
1733,12	2,5	-0,017
1735,262	2,5	-0,012
1737,41	2,5	-0,01
1739,551	3	-0,005
1741,693	3	-0,002
1743,835	3	-0,001
1745,971	3	-0,001
1748,107	2,5	-0,001
1750,255	2,5	0
1752,397	2,5	0
1754,539	3	-0,012
1756,68	2,5	-0,184
1758,822	2,5	-0,237
1760,964	2,5	-0,39
1763,106	2	-0,414
1765,248	1,5	-0,518
1767,39	0	-0,744
1769,538	-0,5	-0,878
1771,68	-0,5	-1,014
1773,821	-1	-1,202
1775,969	-2	-1,464
1778,111	-2	-1,6
1780,253	-2,5	-1,793
1782,401	-3	-2,082
1784,543	-3,5	-2,154
1786,685	-4	-2,389
1788,833	-5	-2,518
1790,975	-5,5	-2,654
1793,116	-7	-2,938
1795,264	-9	-3,282
1797,406	-10,5	-3,385
1799,542	-11,5	-3,444
1801,69	-12,5	-3,468
1803,832	-12,5	-3,483
1805,974	-13	-3,492
1808,122	-13	-3,497
1810,257	-13	-3,498
1812,399	-13	-3,499
1814,547	-12,5	-3,499
1816,683	-12,5	-3,499
1818,825	-12,5	-3,466
1820,967	-12	-3,186
1823,121	-10,5	-2,96
1825,263	-9	-2,745
1827,41	-7,5	-2,516
1829,552	-4,5	-2,226
1831,694	-4	-2,064
1833,836	-3,5	-1,971
1835,978	-3	-1,888
1838,12	-2,5	-1,732
1840,262	-2	-1,528
1842,41	-1,5	-1,463
1844,551	-1,5	-1,434
1846,693	-1	-1,271
1848,841	-0,5	-1,048
1850,983	0	-0,89
1853,125	0	-0,691
1855,267	0,5	-0,503
1857,415	1	-0,232
1859,551	1,5	-0,157
1861,692	1,5	-0,093
1863,84	2,5	-0,04
1865,982	2,5	-0,02
1868,118	2,5	-0,015
1870,26	3	-0,008
1872,408	2,5	-0,004
1874,55	3	-0,002
1876,692	3	-0,001
1878,84	2,5	0
1880,975	3	-0,06
1883,117	2,5	-0,19
1885,265	1,5	-0,415
1887,407	1	-0,562
1889,549	0,5	-0,666
1891,685	0	-0,713
1893,827	0	-0,832
1895,969	-1	-1,064
1898,11	-1,5	-1,295
1900,252	-1,5	-1,478
1902,394	-2	-1,656
1904,536	-2,5	-1,803
1906,678	-3	-1,922
1908,82	-3,5	-2,091
1910,962	-3,5	-2,231
1913,104	-4	-2,297
1915,251	-5	-2,58
1917,393	-5	-2,603
1919,535	-5	-2,659
1921,683	-6	-2,772
1923,825	-5,5	-2,747
1925,967	-6	-2,846
1928,109	-7	-2,976
1930,257	-7	-3,057
1932,392	-8,5	-3,224
1934,534	-9	-3,284
1936,676	-9,5	-3,346
1938,824	-10,5	-3,397
1940,966	-11	-3,413
1943,108	-11,5	-3,446
1945,25	-12	-3,46
1947,398	-12	-3,468
1949,533	-12	-3,478
1951,675	-12,5	-3,486
1953,823	-12,5	-3,493
1955,959	-12,5	-3,496
1958,101	-12,5	-3,496
1960,243	-12,5	-3,496
1962,391	-12,5	-3,498
1964,533	-12,5	-3,499
1966,674	-12,5	-3,499
1968,822	-12,5	-3,499
1970,964	-12,5	-3,499
1973,106	-12,5	-3,499
1975,248	-12,5	-3,499
1977,396	-12,5	-3,499
1979,538	-12,5	-3,499
1981,68	-12,5	-3,475
1983,821	-12,5	-3,389
1985,964	-12,5	-3,259
1988,105	-11	-3,09
1990,247	-10,5	-3,014
1992,383	-9	-2,86
1994,531	-7,5	-2,64
1996,667	-7	-2,588
1998,809	-6,5	-2,527
2000,957	-4,5	-2,297
2003,098	-3	-2,039
2005,24	-2,5	-1,908
2007,376	-2,5	-1,92
2009,524	-2	-1,718
2011,666	-2	-1,609
2013,808	-1,5	-1,516
2015,95	-1	-1,395
2018,098	-1	-1,304
2020,239	-0,5	-1,12
2022,381	-0,5	-0,943
2024,523	0	-0,77
2026,671	0	-0,69
2028,807	0	-0,638
2030,949	0	-0,604
2033,091	0	-0,409
2035,227	0,5	-0,278
2037,368	0,5	-0,204
2039,51	1,5	-0,116
2041,652	1,5	-0,096
2043,794	1,5	-0,087
2045,936	2	-0,073
2048,078	2,5	-0,056
2050,214	2	-0,067
2052,356	2	-0,082
2054,497	2	-0,058
2056,639	2,5	-0,03
2058,787	2,5	-0,014
2060,923	2,5	-0,011
2063,065	2,5	-0,011
2065,213	3	-0,011
2067,355	2,5	-0,01
2069,497	3	-0,008
2071,638	3	-0,006
2073,78	3	-0,006
2075,916	3	-0,01
2078,058	3	-0,006
2080,2	3	-0,002
2082,348	3	-0,002
2084,49	3	-0,001
2086,632	3	-0,102
2088,773	2,5	-0,252
2090,915	2	-0,432
2093,057	2,5	-0,36
2095,199	1,5	-0,56
2097,335	1	-0,607
2099,483	1,5	-0,527
2101,625	0,5	-0,685
2103,767	0,5	-0,677
2105,915	0,5	-0,742
2108,056	0,5	-0,691
2110,198	0	-0,72
2112,334	0	-0,816
2114,482	0	-0,858
2116,624	0	-0,797
2118,76	1	-0,59
2120,902	0	-0,756
2123,044	0	-0,938
2125,185	0	-1,002
2127,327	-1	-1,1
2129,469	-1	-1,256
2131,617	-1,5	-1,384
2133,759	-1	-1,377
2135,901	-1,5	-1,444
2138,049	-2	-1,646
2140,191	-2,5	-1,882
2142,332	-2,5	-1,901
2144,474	-2,5	-2,015
2146,622	-2,5	-2,001
2148,764	-2,5	-2,002
2150,906	-3	-2,165
2153,048	-4	-2,391
2155,196	-4,5	-2,583
2157,332	-5	-2,683
2159,473	-5,5	-2,761
2161,615	-6,5	-2,966
2163,763	-7,5	-3,068
2165,905	-8,5	-3,245
2168,047	-8,5	-3,233
2170,189	-10	-3,384
2172,337	-11	-3,441
2174,479	-10,5	-3,418
2176,62	-11,5	-3,458
2178,762	-12	-3,464
2180,904	-12	-3,449
2183,046	-12	-3,472
2185,188	-12,5	-3,484
2187,33	-12,5	-3,492
2189,478	-12,5	-3,494
2191,62	-12,5	-3,493
2193,761	-12,5	-3,488
2195,897	-12,5	-3,492
2198,045	-12,5	-3,488
2200,187	-12,5	-3,494
2202,329	-12,5	-3,49
2204,471	-12,5	-3,487
2206,619	-12	-3,488
2208,761	-12,5	-3,485
2210,896	-12,5	-3,49
2213,038	-12,5	-3,488
2215,186	-12,5	-3,487
2217,328	-12,5	-3,483
2219,464	-12,5	-3,486
2221,606	-12,5	-3,492
2223,754	-12,5	-3,491
2225,896	-12,5	-3,494
2228,038	-12,5	-3,489
2230,179	-12,5	-3,488
2232,321	-12,5	-3,49
2234,475	-12,5	-3,496
2236,617	-12,5	-3,496
2238,759	-12,5	-3,492
2240,901	-12	-3,489
2243,043	-12	-3,483
2245,185	-12	-3,48
2247,32	-12,5	-3,488
2249,468	-12	-3,486
2251,604	-12	-3,466
2253,746	-11	-3,439
2255,888	-10	-3,384
2258,03	-8,5	-3,284
2260,178	-8	-3,15
2262,32	-9	-3,316
2264,461	-9,5	-3,343
2266,609	-10,5	-3,423
2268,745	-10,5	-3,394
2270,887	-10,5	-3,406
2273,029	-11	-3,442
2275,171	-11	-3,443
2277,319	-11,5	-3,44
2279,461	-12	-3,453
2281,602	-11	-3,42
2283,744	-11	-3,42
2285,892	-11,5	-3,454
2288,034	-12	-3,464
2290,176	-12	-3,463
2292,318	-12	-3,476
2294,466	-12	-3,488
2296,608	-12	-3,491
2298,75	-12,5	-3,495
2300,885	-12,5	-3,496
2303,027	-12,5	-3,497
2305,175	-12,5	-3,498
2307,317	-12,5	-3,499
2309,459	-12,5	-3,499
2311,601	-12,5	-3,499
2313,749	-12,5	-3,499
2315,897	-12,5	-3,499
2318,038	-12,5	-3,5
2320,18	-12	-3,37
2322,34	-12	-3,15
2324,482	-10	-2,944
2326,624	-8	-2,759
2328,766	-9	-2,806
2330,914	-7	-2,672
2333,05	-7	-2,54
2335,191	-6	-2,393
2337,333	-4	-2,226
2339,475	-4,5	-2,234
2341,611	-4	-2,134
2343,753	-3,5	-2,148
2345,895	-3	-1,964
2348,037	-2	-1,749
2350,185	-1,5	-1,471
2352,326	-1	-1,294
2354,468	-0,5	-1,094
2356,61	0	-0,894
2358,752	0	-0,844
2360,894	0	-0,644
2363,036	0	-0,557
2365,178	0,5	-0,384
2367,32	1	-0,255
2369,461	0,5	-0,422
2371,597	1	-0,262
2373,739	1	-0,272
2375,887	0,5	-0,282
2378,029	0,5	-0,4
2380,171	0	-0,626
2382,313	0	-0,841
2384,461	-0,5	-1,059
2386,602	0	-0,982
2388,744	-0,5	-1,25
2390,886	-0,5	-1,194
2393,034	0	-0,928
2395,176	0	-0,76
2397,318	0	-0,582
2399,454	1	-0,359
2401,596	1	-0,232
2403,731	1,5	-0,148
2405,879	1	-0,155
2408,015	2	-0,084
2410,157	1	-0,208
2412,293	1	-0,324
2414,441	0,5	-0,436
2416,583	0	-0,637
2418,725	0	-0,67
2420,867	0	-0,694
2423,008	0	-0,594
2425,156	0	-0,599
2427,298	0	-0,618
2429,44	0	-0,641
2431,588	0	-0,594
2433,73	0	-0,675
2435,872	0	-0,668
2438,014	0	-0,67
2440,156	0	-0,56
2442,303	0	-0,586
2444,445	0	-0,786
2446,587	0	-0,677
2448,729	0	-0,605
2450,871	0	-0,47
2453,019	1	-0,309
2455,161	1	-0,242
2457,302	1	-0,213
2459,444	1,5	-0,092
2461,592	2,5	-0,062
2463,734	2	-0,044
2465,876	3	-0,018
2468,018	3	-0,014
2470,16	2,5	-0,01
2472,302	3	-0,006
2474,444	3	-0,003
2476,585	2,5	-0,002
2478,727	2,5	-0,001
2480,875	2,5	0
2483,011	3	-0,001
2485,147	3	0
2487,289	3	-0,054
2489,437	2,5	-0,188
2491,578	2	-0,392
2493,72	1	-0,582
2495,862	0	-0,792
2498,004	-0,5	-0,911
2500,152	-1	-1,146
2502,294	-1,5	-1,298
2504,436	-1,5	-1,411
2506,578	-2	-1,626
2508,725	-2	-1,75
2510,867	-2,5	-1,89
2513,015	-3	-2,051
2515,157	-3,5	-2,33
2517,299	-4,5	-2,525
2519,447	-5,5	-2,801
2521,589	-7	-2,984
2523,731	-8,5	-3,268
2525,873	-10	-3,404
2528,014	-11,5	-3,457
2530,162	-12	-3,485
2532,298	-12	-3,49
2534,44	-12	-3,495
2536,582	-12	-3,498
2538,73	-12	-3,499
2540,872	-12	-3,432
2543,014	-12	-3,119
2545,155	-10,5	-2,892
2547,303	-6,5	-2,578
2549,445	-5	-2,288
2551,593	-3,5	-1,968
2553,735	-2,5	-1,694
2555,871	-1,5	-1,392
2558,013	-0,5	-1,081
2560,149	0	-0,884
2562,29	0	-0,638
2564,432	0,5	-0,38
2566,574	1,5	-0,148
2568,716	1,5	-0,071
2570,852	2,5	-0,034
2572,994	3	-0,016
2575,136	3	-0,007
2577,284	3	-0,002
2579,425	3	-0,001
2581,567	3	-0,096
2583,709	2	-0,346
2585,851	1,5	-0,595
2587,999	-0,5	-0,877
2590,135	-0,5	-1,148
2592,277	-1,5	-1,428
2594,419	-1,5	-1,647
2596,56	-2,5	-1,9
2598,708	-3	-2,166
2600,85	-3,5	-2,456
2602,992	-4,5	-2,736
2605,128	-6	-2,984
2607,276	-8	-3,246
2609,424	-9,5	-3,389
2611,566	-11	-3,455
2613,707	-12	-3,482
2615,843	-12	-3,49
2617,991	-12	-3,495
2620,133	-12	-3,498
2622,275	-12	-3,5
2624,417	-12	-3,279
2626,559	-10,5	-3,04
2628,713	-8	-2,7
2630,855	-5,5	-2,485
2632,99	-5	-2,294
2635,126	-3,5	-2,056
2637,268	-3	-1,861
2639,404	-2	-1,687
2641,54	-1,5	-1,428
2643,682	-0,5	-1,186
2645,824	0	-0,894
2647,972	0	-0,73
2650,113	0	-0,568
2652,255	0,5	-0,331
2654,397	1,5	-0,142
2656,539	1,5	-0,078
2658,687	2	-0,04
2660,829	2,5	-0,019
2662,971	3	-0,009
2665,113	2,5	-0,004
2667,254	2,5	-0,002
2669,402	2,5	-0,001
2671,544	2,5	-0,012
2673,686	2,5	-0,182
2675,828	2,5	-0,408
2677,97	1	-0,602
2680,118	0	-0,896
2682,26	-0,5	-1,09
2684,401	-1,5	-1,369
2686,543	-1,5	-1,526
2688,685	-2	-1,715
2690,827	-2,5	-1,961
2692,969	-3	-2,242
2695,111	-4,5	-2,557
2697,253	-6	-2,874
2699,401	-7	-3,156
2701,542	-8,5	-3,301
2703,684	-10	-3,416
2705,826	-11	-3,456
2707,974	-12	-3,482
2710,11	-12	-3,489
2712,252	-12	-3,495
2714,394	-12	-3,498
2716,536	-12	-3,499
2718,677	-12	-3,5
2720,819	-12	-3,341
2722,961	-11,5	-3,133
2725,103	-10	-2,928
2727,245	-7,5	-2,67
2729,387	-7	-2,486
2731,523	-5	-2,317
2733,665	-4	-2,07
2735,807	-2,5	-1,79
2737,942	-2	-1,684
2740,084	-1	-1,443
2742,226	-1	-1,269
2744,368	0	-1,008
2746,51	0	-0,787
2748,658	0	-0,563
2750,8	0	-0,406
2752,942	1	-0,195
2755,083	1,5	-0,114
2757,225	2	-0,071
2759,367	2,5	-0,028
2761,509	2,5	-0,014
2763,651	3	-0,008
2765,793	3	-0,003
2767,935	3	-0,001
2770,083	3	0
2772,224	2,5	-0,09
2774,366	2	-0,329
2776,508	1,5	-0,471
2778,65	0,5	-0,638
2780,792	0	-0,806
2782,934	-0,5	-1,031
2785,076	-1	-1,22
2787,218	-1,5	-1,432
2789,359	-1,5	-1,65
2791,501	-2	-1,808
2793,643	-3	-2,108
2795,785	-3,5	-2,296
2797,927	-4,5	-2,55
2800,069	-5	-2,716
2802,211	-6	-2,953
2804,353	-7,5	-3,184
2806,494	-9	-3,344
2808,63	-10	-3,402
2810,778	-10,5	-3,448
2812,914	-11	-3,47
2815,056	-11,5	-3,486
2817,198	-12	-3,492
2819,34	-11,5	-3,495
2821,488	-11,5	-3,498
2823,63	-11,5	-3,499
2825,771	-11,5	-3,499
2827,913	-11,5	-3,471
2830,061	-11,5	-3,196
2832,203	-9,5	-3,015
2834,345	-8	-2,838
2836,487	-7,5	-2,755
2838,629	-6	-2,556
2840,783	-4	-2,284
2842,924	-3	-2,048
2845,066	-2,5	-1,87
2847,208	-1,5	-1,73
2849,35	-1	-1,558
2851,498	-1	-1,311
2853,634	-0,5	-1,148
2855,776	0	-1,034
2857,912	0	-0,918
2860,047	0	-0,806
2862,195	0	-0,64
2864,337	0,5	-0,5
2866,479	1	-0,253
2868,621	1,5	-0,145
2870,757	2	-0,086
2872,899	2	-0,065
2875,047	2,5	-0,036
2877,188	3	-0,023
2879,324	2,5	-0,013
2881,466	2,5	-0,008
2883,608	3	-0,006
2885,756	3	-0,004
2887,892	3	-0,003
2890,034	2,5	-0,001
2892,176	2,5	-0,001
2894,317	2,5	-0,015
2896,465	2,5	-0,147
2898,607	2	-0,368
2900,749	0,5	-0,615
2902,891	0	-0,81
2905,033	-0,5	-1,036
2907,181	-1	-1,249
2909,323	-1,5	-1,406
2911,458	-1,5	-1,538
2913,6	-2	-1,78
2915,742	-2,5	-2,022
2917,884	-3	-2,227
2920,032	-3,5	-2,482
2922,174	-4,5	-2,655
2924,316	-5,5	-2,855
2926,458	-6,5	-3,07
2928,606	-7,5	-3,233
2930,741	-8,5	-3,338
2932,883	-9,5	-3,412
2935,019	-10,5	-3,459
2937,155	-10,5	-3,471
2939,291	-10,5	-3,484
2941,439	-11	-3,493
2943,581	-11	-3,496
2945,723	-11	-3,498
2947,858	-11	-3,499
2950	-11	-3,434
2952,142	-10,5	-3,202
2954,284	-9	-3,016
2956,426	-9	-2,988
2958,568	-7,5	-2,826
2960,71	-6	-2,604
2962,858	-4,5	-2,418
2964,999	-3,5	-2,234
2967,141	-3	-2,13
2969,283	-2,5	-1,889
2971,425	-1,5	-1,658
2973,567	-0,5	-1,384
2975,709	-0,5	-1,185
2977,851	0	-1,022
2979,993	0	-0,833
2982,134	0	-0,644
2984,282	0,5	-0,368
2986,424	0,5	-0,214
2988,566	1,5	-0,108
2990,708	2	-0,069
2992,85	2,5	-0,028
2994,998	2,5	-0,014
2997,134	2,5	-0,009
2999,275	2,5	-0,004
3001,417	2,5	-0,002
3003,553	2,5	-0,001
3005,701	2,5	-0,016
3007,843	2,5	-0,28
3009,985	1,5	-0,464
3012,127	0	-0,706
3014,269	-0,5	-0,862
3016,41	-1	-1,141
3018,564	-1,5	-1,342
3020,706	-1,5	-1,558
3022,848	-1,5	-1,726
3024,99	-2,5	-1,946
3027,126	-3	-2,232
3029,274	-3,5	-2,488
3031,416	-4,5	-2,688
3033,552	-5	-2,868
3035,693	-6	-3,062
3037,835	-6,5	-3,218
3039,983	-8	-3,36
3042,125	-9	-3,418
3044,261	-10	-3,449
3046,403	-10,5	-3,472
3048,545	-10,5	-3,487
3050,687	-10,5	-3,492
3052,828	-10,5	-3,497
3054,976	-10,5	-3,498
3057,118	-10,5	-3,499
3059,254	-10,5	-3,45
3061,396	-10,5	-3,239
3063,538	-9,5	-3,056
3065,68	-8,5	-2,895
3067,822	-7	-2,738
3069,963	-5,5	-2,534
3072,105	-4,5	-2,392
3074,247	-3,5	-2,214
3076,395	-3	-1,979
3078,531	-2	-1,784
3080,673	-1,5	-1,621
3082,815	-1	-1,454
3084,963	-0,5	-1,214
3087,104	0	-0,961
3089,24	0	-0,787
3091,382	0	-0,624
3093,524	0,5	-0,366
3095,666	1	-0,197
3097,814	1,5	-0,068
3099,956	2,5	-0,035
3102,098	2,5	-0,017
3104,233	2,5	-0,014
3106,369	2,5	-0,008
3108,511	3	-0,005
3110,659	3	-0,003
3112,801	3	-0,002
3114,949	3	0
3117,085	3	-0,027
3119,221	3	-0,252
3121,368	1,5	-0,488
3123,51	0,5	-0,698
3125,652	0	-0,93
3127,794	-0,5	-1,108
3129,93	-0,5	-1,293
3132,078	-1	-1,56
3134,22	-1,5	-1,759
3136,362	-1,5	-1,921
3138,498	-2	-2,075
3140,639	-2,5	-2,268
3142,781	-3	-2,48
3144,923	-4	-2,7
3147,065	-4,5	-2,893
3149,207	-5,5	-3,115
3151,349	-6	-3,256
3153,497	-7,5	-3,369
3155,645	-8,5	-3,422
3157,786	-9	-3,46
3159,928	-9,5	-3,48
3162,064	-9,5	-3,489
3164,2	-9,5	-3,493
3166,348	-9,5	-3,496
3168,49	-9,5	-3,498
3170,632	-9,5	-3,499
3172,774	-9,5	-3,5
3174,921	-9,5	-3,382
3177,057	-9,5	-3,248
3179,205	-7,5	-2,99
3180,117	3	-0,001