File: ensaios_Ciclicos/_20perc/_4gap/entrada/_1.txt
Time (s)	Load (N)	Displacement (mm)
0	0	-0,034
2,268	-4	-0,842
4,572	-12	-1,853
6,875	-20	-2,707
9,155	-28,5	-3,403
11,483	-32	-3,494
14,243	-8,5	-1,174
16,565	-1	-0,214
18,809	2	-0,031
21,107	2,5	-0,002
23,342	3	-0,027
25,522	1,5	-0,478
27,784	-5	-1,092
30,094	-12,5	-2,177
32,362	-20	-2,931
34,576	-24,5	-3,36
36,838	-29,5	-3,48
39,064	-30,5	-3,496
41,817	-6,5	-1,07
86,041	-16	-2,212
88,255	-12,5	-1,805
90,497	-5	-1,134
92,604	-6	-1,21
94,854	-1,5	-0,567
97,092	2	-0,088
99,354	3,5	-0,008
101,97	-7	-1,597
104,094	-7,5	-1,669
106,254	-8,5	-1,852
108,407	-10,5	-2,089
110,531	-9,5	-2,057
112,631	-8	-1,8
114,863	-13,5	-2,407
117,017	-15	-2,556
119,165	-16	-2,732
121,313	-17,5	-2,892
123,456	-18	-3,024
125,675	-22	-3,364
127,768	-21	-3,283
129,916	-22,5	-3,302
132,071	-23	-3,341
134,716	-23,5	-2,948
136,894	-20,5	-2,621
139,15	-13,5	-2,043
141,244	-14,5	-2,143
143,362	-15	-2,19
145,498	-14	-2,123
147,567	-15,5	-2,31
149,793	-11,5	-1,855
151,959	-9	-1,653
154,053	-11	-1,778
156,189	-10	-1,735
158,301	-10	-1,756
160,401	-11	-1,874
162,578	-8,5	-1,615
164,697	-8	-1,611
166,832	-8	-1,473
168,956	-7,5	-1,519
171,068	-8	-1,523
173,186	-8,5	-1,582
175,316	-7,5	-1,438
177,452	-8	-1,554
179,618	-5,5	-1,276
181,735	-5,5	-1,368
183,889	-4,5	-1,13
186,074	-3	-0,827
188,227	-1	-0,664
190,411	0	-0,318
192,589	1,5	-0,137
194,707	1,5	-0,137
196,807	1	-0,204
198,906	0,5	-0,212
200,958	-0,5	-0,502
203,082	-0,5	-0,58
205,182	-1	-0,686
207,246	-3	-0,958
209,298	-4,5	-1,277
211,308	-10,5	-1,828
213,432	-9,5	-1,813
215,514	-11	-1,978
217,547	-20,5	-2,521
219,701	-15,5	-2,363
221,813	-15	-2,339
223,931	-17	-2,34
225,965	-22	-2,868
227,969	-25,5	-3,5
230,033	-26	-3,499
232,541	-11	-1,969
234,616	-14	-2,259
236,693	-16	-2,466
238,834	-19,5	-2,34
240,904	-18	-2,576
243,028	-19	-2,536
245,152	-16,5	-2,522
247,246	-22	-2,695
288,524	3,5	-0,254
290,545	4	-0,001
292,574	4	-0,007
294,619	4	-0,015
296,623	2	-0,095
298,651	0	-0,393
301,05	4	-0,005
303,073	4	-0,02
305,184	4	-0,029
307,212	2	-0,115
309,27	0	-0,364
311,304	-1,5	-0,869
313,338	-5,5	-1,394
315,408	-8	-1,73
317,442	-13,5	-2,128
319,493	-17,5	-2,571
321,516	-24	-3,058
323,549	-24,5	-3,5
325,595	-24,5	-3,499
327,623	-24,5	-3,494
329,681	-24,5	-3,484
331,685	-22	-3,4
333,767	-20	-3,336
336,239	-24,5	-3,499
338,267	-24,5	-3,497
340,328	-24,5	-3,491
342,364	-24	-3,471
344,362	-21	-3,36
346,408	-15,5	-2,97
348,382	-9,5	-2,248
350,416	-5,5	-1,717
352,408	-3	-1,118
354,363	3,5	-0,301
356,409	4	0
358,45	4	-0,002
360,423	4	-0,024
362,481	3,5	-0,066
364,491	0	-0,454
405,366	-2,5	-1,078
407,394	2	-0,585
409,422	4	-0,053
411,432	4	-0,002
413,467	4	-0,009
415,47	3	-0,075
417,462	0	-0,588
419,454	-4,5	-1,314
421,458	-10	-1,813
423,474	-17,5	-2,528
425,458	-24	-3,284
427,487	-24	-3,499
429,473	-24	-3,494
431,428	-20	-3,373
433,397	-12,5	-2,661
435,383	-6,5	-1,956
437,345	-3	-1,162
439,337	2,5	-0,466
441,311	4	-0,001
443,26	4	-0,018
445,234	1,5	-0,192
447,226	-1	-0,779
449,182	-6	-1,563
451,192	-11,5	-2,108
453,136	-21	-2,969
455,176	-24	-3,445
457,144	-24	-3,497
459,141	-23,5	-3,48
461,145	-20,5	-3,389
463,101	-12,5	-2,702
465,105	-7,5	-2,125
467,092	-4	-1,46
469,101	-1,5	-0,93
471,045	4	-0,001
472,989	4	-0,007
474,957	3	-0,092
476,919	-0,5	-0,765
478,88	-6	-1,603
480,854	-13,5	-2,372
482,816	-23	-3,143
484,772	-23,5	-3,498
486,728	-23	-3,482
488,684	-18	-3,269
490,658	-11,5	-2,587
493,052	-23	-3,478
494,984	-15,5	-3,19
496,969	-9,5	-2,464
498,943	-5	-1,651
500,912	-1	-0,82
502,873	4	-0,066
504,829	4	-0,005
506,767	3,5	-0,064
508,723	-0,5	-0,668
510,679	-5	-1,513
512,634	-12,5	-2,297
514,59	-23	-3,097
516,558	-23,5	-3,498
518,52	-23	-3,486
520,47	-18	-3,304
522,396	-9,5	-2,389
524,346	-5	-1,687
526,29	0	-0,816
528,21	4	-0,001
530,159	4	-0,009
532,115	3	-0,085
534,083	0	-0,638
536,057	-3	-1,214
538,055	-7,5	-1,84
540,017	-15	-2,53
541,949	-23,5	-3,482
543,922	-23,5	-3,496
545,891	-23	-3,474
547,888	-18	-3,33
549,862	-12	-2,73
551,794	-6,5	-2,048
553,726	-2	-1,029
555,688	3,5	-0,369
557,62	4	-0,002
559,582	4	-0,023
561,526	1	-0,262
563,481	-2,5	-0,96
565,414	-9	-1,966
567,411	-16	-2,56
569,385	-23	-3,344
571,305	-23	-3,495
573,243	-21	-3,43
575,193	-13,5	-2,852
577,143	-6	-2,017
579,075	-3	-1,177
581,067	2	-0,606
583,016	4,5	-0,001
584,954	4	-0,016
586,892	1,5	-0,257
588,854	-1,5	-0,936
590,78	-7,5	-1,859
629,748	0,5	-0,681
631,704	4,5	0
633,642	4,5	-0,01
635,585	3	-0,153
637,559	-0,5	-0,789
639,503	-4,5	-1,607
641,483	-10	-2,196
643,415	-22	-3,111
645,371	-22,5	-3,498
647,333	-22,5	-3,487
649,283	-19	-3,333
651,215	-9,5	-2,461
653,176	-4,5	-1,698
655,114	0	-0,761
657,058	4	-0,001
658,996	4,5	-0,017
660,946	1,5	-0,268
662,884	-2	-1,184
664,846	-7,5	-1,945
666,808	-15,5	-2,71
668,751	-22,5	-3,499
670,707	-22,5	-3,491
672,687	-20,5	-3,423
674,625	-12,5	-2,788
676,581	-6	-1,904
678,525	-2	-1,033
680,463	4,5	-0,181
682,419	4	-0,004
684,363	4	-0,048
686,288	0	-0,72
688,214	-5,5	-1,664
690,188	-12	-2,352
692,15	-22,5	-3,182
694,076	-22,5	-3,496
696,026	-21	-3,466
697,982	-15	-3,025
699,926	-7	-2,107
701,9	-3,5	-1,339
741,263	-2,5	-1,264
743,207	-9,5	-2,124
745,145	-21,5	-3,126
747,089	-22,5	-3,498
749,021	-21	-3,47
750,947	-13,5	-2,92
752,903	-7	-2,12
754,901	-4	-1,493
756,85	0	-0,743
758,788	4,5	-0,001
760,762	4,5	-0,01
762,724	3	-0,106
764,662	-1	-0,934
766,606	-6	-1,794
768,586	-13	-2,484
770,554	-22	-3,287
772,486	-22,5	-3,496
774,46	-21,5	-3,459
776,433	-14	-3,216
778,389	-8,5	-2,37
780,315	-3,5	-1,33
782,721	-12	-2,737
784,677	-5,5	-1,837
786,627	-1	-0,885
788,583	4,5	-0,003
790,514	4,5	-0,01
792,476	3	-0,086
794,42	-0,5	-0,787
796,364	-5,5	-1,674
798,308	-15	-2,549
800,264	-22	-3,457
802,172	-22	-3,493
804,128	-19	-3,406
806,102	-12	-2,823
808,04	-5,5	-1,934
809,983	-1	-0,956
811,909	4	0
813,847	4	-0,008
815,779	2	-0,17
817,735	-1	-0,883
819,691	-6	-1,682
821,641	-14	-2,517
823,627	-22	-3,176
825,589	-22	-3,498
827,533	-22	-3,478
829,476	-15	-3,208
831,408	-7,5	-2,332
833,346	-3	-1,485
835,308	1,5	-0,656
837,246	4	-0,001
839,19	4,5	-0,016
841,128	1,5	-0,218
843,09	-1,5	-0,943
845,045	-5,5	-1,715
846,983	-15	-2,619
848,897	-22	-3,499
850,835	-21,5	-3,491
889,665	-5	-1,546
891,597	-12,5	-2,413
893,553	-21,5	-3,275
895,491	-22	-3,497
897,429	-20	-3,448
899,361	-10,5	-2,773
901,304	-4	-1,727
903,266	0	-0,85
905,21	4	-0,048
907,136	4,5	-0,008
909,08	2	-0,157
911,024	-2	-1,102
912,968	-8,5	-2,094
914,905	-21,5	-3,134
916,831	-22	-3,497
918,775	-21	-3,465
920,725	-12	-2,913
922,669	-5,5	-1,978
924,619	-1,5	-1,074
926,599	3,5	-0,399
928,531	4	-0,004
930,481	3	-0,073
932,412	0	-0,724
934,32	-6	-1,733
936,264	-15	-2,737
938,202	-21,5	-3,499
940,14	-21,5	-3,49
942,066	-15	-3,176
944,004	-7	-2,164
945,93	-3	-1,332
947,868	3,5	-0,398
949,787	4,5	-0,006
951,725	3	-0,121
953,663	-0,5	-0,832
955,601	-5,5	-1,658
957,551	-13,5	-2,54
959,477	-21,5	-3,5
961,433	-21,5	-3,495
963,359	-18,5	-3,398
965,272	-9,5	-2,578
967,228	-3,5	-1,577
969,148	1	-0,67
971,122	4	-0,06
973,06	4,5	-0,008
974,998	2,5	-0,135
976,96	-0,5	-0,761
978,88	-5	-1,64
980,824	-12,5	-2,495
982,762	-21,5	-3,462
984,705	-21,5	-3,495
986,643	-19,5	-3,418
988,575	-10	-2,679
990,477	-4	-1,627
992,421	0,5	-0,658
994,347	4,5	-0,001
996,303	4,5	-0,014
998,235	0,5	-0,392
1000,155	-4	-1,371
1002,11	-9	-2,155
1004,048	-21	-3,202
1005,98	-21,5	-3,496
1007,888	-20	-3,442
1009,82	-12	-2,819
1011,752	-4,5	-1,761
1013,684	-0,5	-0,83
1015,61	4	0
1017,572	4,5	-0,006
1019,503	3	-0,099
1021,417	-1	-0,902
1023,349	-6,5	-1,875
1025,275	-18	-2,868
1027,225	-21,5	-3,499
1029,157	-21	-3,486
1031,089	-15	-3,158
1033,051	-8	-2,4
1035,007	-3,5	-1,61
1036,932	1,5	-0,644
1038,864	4	-0,001
1040,796	4	-0,029
1042,734	0,5	-0,434
1044,672	-3,5	-1,388
1046,634	-9,5	-2,152
1048,566	-20	-3,083
1050,486	-21	-3,498
1052,412	-20	-3,455
1054,343	-11,5	-2,806
1056,275	-4,5	-1,886
1058,195	-0,5	-0,88
1060,133	4	0
1062,071	4,5	-0,01
1063,985	1,5	-0,254
1065,917	-2	-1,253
1067,861	-9	-2,166
1069,787	-19,5	-3,02
1071,724	-21	-3,498
1073,644	-21	-3,472
1075,57	-13,5	-3,036
1077,496	-6	-2,082
1079,428	-1,5	-1,12
1081,36	4	-0,184
1083,274	4	-0,006
1085,2	3	-0,112
1087,162	-1	-0,927
1089,087	-6	-1,813
1091,032	-15	-2,678
1092,963	-21	-3,5
1094,895	-21	-3,493
1096,839	-19,5	-3,411
1098,801	-12,5	-2,906
1100,733	-5	-1,969
1102,647	-2	-1,051
1104,579	4	-0,079
1106,51	4,5	-0,008
1108,436	2	-0,206
1147,062	0	-0,837
1149	4,5	0
1150,938	4,5	-0,009
1152,864	2	-0,211
1154,796	-1,5	-1,134
1156,728	-7,5	-2,033
1158,648	-19	-2,938
1160,591	-21	-3,498
1162,547	-21	-3,488
1164,467	-16	-3,317
1166,405	-9	-2,568
1168,337	-4	-1,67
1170,269	0	-0,798
1172,207	4,5	0
1174,121	4,5	-0,015
1176,053	2	-0,222
1177,996	-1,5	-1,008
1179,928	-6,5	-1,917
1181,842	-18	-2,969
1183,762	-21	-3,498
1185,706	-20,5	-3,478
1187,614	-13	-2,991
1189,54	-5	-1,987
1191,466	-1,5	-1,043
1193,404	4	-0,078
1195,329	4,5	-0,008
1197,266	3	-0,096
1199,193	0	-0,836
1201,143	-4,5	-1,613
1203,063	-13	-2,539
1204,971	-21	-3,5
1206,897	-21	-3,493
1208,823	-18,5	-3,414
1210,724	-8	-2,503
1212,674	-4	-1,722
1214,613	-0,5	-0,852
1216,532	4	-0,001
1218,458	4	-0,012
1220,384	2	-0,176
1222,304	-1,5	-1,144
1224,218	-8	-2,104
1226,156	-17,5	-2,974
1228,082	-21	-3,498
1230,007	-20	-3,473
1231,927	-14	-3,099
1233,859	-6	-2,136
1235,779	-1	-0,991
1237,729	4	-0,265
1239,643	4	-0,005
1241,563	3	-0,086
1243,501	0	-0,806
1245,45	-4,5	-1,727
1247,382	-13	-2,54
1249,314	-21	-3,36
1251,228	-20,5	-3,494
1253,148	-18,5	-3,383
1255,086	-10	-2,664
1257,03	-5	-1,921
1258,95	-2	-1,107
1260,87	4	-0,246
1262,802	4,5	-0,003
1264,752	4,5	-0,02
1266,677	1,5	-0,3
1268,597	-2	-1,205
1270,535	-6	-1,978
1272,485	-14	-2,734
1274,405	-20,5	-3,499
1276,331	-20,5	-3,49
1278,269	-18	-3,389
1280,189	-8,5	-2,61
1282,12	-3,5	-1,764
1284,058	0	-0,902
1285,996	4,5	-0,175
1287,947	4,5	-0,004
1289,872	4	-0,042
1291,804	0	-0,505
1293,724	-3,5	-1,491
1295,662	-9	-2,247
1297,582	-20,5	-3,252
1299,525	-20,5	-3,498
1301,433	-19,5	-3,46
1303,353	-11	-2,902
1305,255	-4	-1,875
1307,193	-1,5	-1,066
1309,149	4	-0,311
1311,093	4,5	-0,003
1313,043	4	-0,026
1314,951	0,5	-0,494
1316,877	-3	-1,408
1318,82	-8,5	-2,175
1320,752	-19,5	-3,054
1322,69	-20,5	-3,498
1324,622	-20	-3,473
1326,53	-12	-3,001
1328,468	-5,5	-2,094
1330,406	-2	-1,241
1332,338	4	-0,385
1334,263	4	-0,002
1336,213	4	-0,03
1338,151	0,5	-0,379
1340,065	-3	-1,356
1341,985	-9	-2,224
1343,917	-19,5	-3,054
1345,855	-20,5	-3,498
1347,793	-20	-3,486
1349,713	-14	-3,231
1351,644	-6,5	-2,33
1353,57	-3	-1,449
1355,485	3,5	-0,39
1357,416	4	-0,002
1359,348	4	-0,045
1361,268	0	-0,58
1363,188	-4	-1,544
1365,144	-10,5	-2,344
1367,082	-19,5	-3,101
1369,013	-20,5	-3,498
1370,951	-19,5	-3,471
1372,901	-14,5	-3,178
1374,815	-6	-2,222
1376,741	-2,5	-1,417
1378,685	3,5	-0,524
1380,599	4	-0,002
1382,549	4	-0,031
1384,481	1	-0,42
1386,395	-3	-1,382
1388,338	-9	-2,225
1390,264	-19,5	-3,091
1392,184	-20,5	-3,498
1394,104	-19,5	-3,47
1396,018	-12	-2,95
1397,932	-4,5	-2,014
1399,864	-1,5	-1,062
1401,766	4,5	-0,091
1403,697	4	-0,007
1405,617	2,5	-0,141
1407,549	-0,5	-0,952
1409,469	-6	-1,853
1411,389	-15	-2,773
1413,303	-20,5	-3,499
1415,223	-20	-3,485
1417,137	-14,5	-3,189
1419,057	-6,5	-2,342
1421,012	-3	-1,483
1422,938	2	-0,544
1424,864	4,5	-0,002
1426,808	4	-0,029
1428,734	0,5	-0,485
1430,654	-3	-1,405
1432,574	-9,5	-2,262
1434,512	-20	-3,128
1436,456	-20,5	-3,498
1438,387	-19,5	-3,469
1440,295	-11,5	-2,94
1442,227	-5	-2,005
1444,135	-1	-0,917
1446,067	4,5	-0,015
1447,992	4,5	-0,008
1449,925	2	-0,159
1451,863	-1	-0,989
1453,783	-6	-1,947
1455,702	-18	-2,975
1457,641	-20,5	-3,499
1459,56	-19,5	-3,471
1461,516	-13	-3,078
1463,448	-5,5	-2,175
1465,398	-2,5	-1,43
1467,318	4	-0,401
1469,256	4,5	-0,003
1471,188	4	-0,057
1473,107	0	-0,673
1475,045	-3,5	-1,542
1476,983	-11	-2,416
1478,903	-20	-3,339
1480,824	-20	-3,495
1482,785	-18,5	-3,449
1484,717	-10,5	-2,859
1486,625	-3,5	-1,83
1488,557	-1	-0,986
1490,477	4,5	-0,019
1492,408	4,5	-0,01
1494,34	2	-0,178
1496,26	-1,5	-1,126
1498,174	-7	-2,05
1500,088	-19,5	-3,066
1502,008	-20	-3,498
1503,952	-19,5	-3,475
1505,872	-13	-3,059
1507,804	-5,5	-2,144
1509,729	-2,5	-1,248
1511,667	4	-0,385
1513,611	4,5	-0,002
1515,531	4	-0,045
1517,469	0	-0,581
1519,401	-3	-1,394
1521,315	-10,5	-2,448
1523,229	-20	-3,499
1525,149	-20	-3,492
1527,086	-15	-3,382
1529,012	-8	-2,541
1530,932	-3	-1,626
1532,858	1	-0,678
1534,766	4,5	-0,002
1536,692	4,5	-0,028
1538,6	0,5	-0,518
1540,526	-3	-1,429
1542,44	-10,5	-2,428
1544,353	-20	-3,476
1546,261	-20	-3,493
1548,193	-17,5	-3,399
1550,101	-8	-2,55
1552,027	-3,5	-1,605
1553,941	1	-0,664
1555,873	4,5	-0,001
1557,792	4	-0,025
1559,718	0,5	-0,395
1561,644	-2	-1,292
1563,569	-9	-2,209
1565,489	-19	-3,159
1567,397	-20	-3,497
1569,329	-19,5	-3,461
1571,255	-11,5	-2,937
1573,187	-5	-2,022
1575,119	-1,5	-1,112
1577,021	4,5	-0,147
1578,928	4,5	-0,008
1580,848	3	-0,116
1582,768	-0,5	-0,9
1584,724	-3,5	-1,626
1586,632	-13	-2,579
1588,558	-19,5	-3,5
1590,478	-19,5	-3,49
1592,386	-16	-3,329
1594,342	-8,5	-2,632
1596,244	-3,5	-1,642
1598,182	-0,5	-0,881
1600,101	4	-0,001
1602,015	4	-0,019
1603,947	1	-0,379
1605,873	-2	-1,291
1607,775	-10,5	-2,377
1609,701	-20	-3,262
1611,609	-20	-3,496
1613,535	-18	-3,433
1615,442	-9,5	-2,685
1617,374	-4,5	-1,924
1619,294	-1	-0,928
1621,214	4,5	0
1623,116	4,5	-0,014
1625,036	1,5	-0,312
1626,968	-1,5	-1,178
1628,888	-7,5	-2,125
1630,837	-16	-2,86
1632,751	-20	-3,499
1634,653	-19,5	-3,477
1636,585	-13	-3,086
1638,493	-5	-2,099
1640,425	-2	-1,2
1642,363	4	-0,373
1644,289	4,5	-0,005
1646,209	3,5	-0,069
1648,141	0	-0,793
1650,073	-4,5	-1,706
1651,992	-13,5	-2,686
1653,924	-19,5	-3,5
1655,832	-19,5	-3,488
1657,74	-14,5	-3,239
1659,678	-7,5	-2,401
1661,592	-2,5	-1,446
1663,5	2,5	-0,479
1665,414	4,5	-0,003
1667,345	4	-0,05
1669,253	0	-0,695
1671,179	-3,5	-1,613
1673,081	-13	-2,715
1675,013	-19,5	-3,5
1676,921	-19,5	-3,49
1678,847	-15,5	-3,335
1680,791	-8,5	-2,62
1682,723	-3,5	-1,701
1684,643	0	-0,732
1686,562	4,5	-0,001
1688,47	4	-0,026
1690,384	0	-0,546
1692,298	-3	-1,571
1694,212	-12	-2,549
1696,132	-20	-3,496
1698,046	-19,5	-3,492
1699,966	-16	-3,352
1701,891	-7,5	-2,541
1703,871	-4	-1,812
1705,803	-1	-0,941
1707,729	4,5	-0,003
1709,649	4,5	-0,012
1711,563	1,5	-0,225
1713,471	-2	-1,212
1715,403	-7	-2,104
1717,305	-20	-3,117
1719,224	-20	-3,498
1721,132	-18,5	-3,455
1723,04	-10,5	-2,812
1724,972	-4,5	-1,983
1726,892	-1,5	-1,087
1728,812	4,5	-0,26
1730,732	4,5	-0,005
1732,658	3,5	-0,063
1734,572	-0,5	-0,809
1736,486	-4,5	-1,765
1738,393	-13	-2,741
1740,307	-19,5	-3,499
1742,215	-19,5	-3,482
1744,135	-14	-3,17
1746,073	-6,5	-2,259
1747,993	-2	-1,246
1749,913	3,5	-0,319
1751,821	4,5	-0,004
1753,741	3,5	-0,071
1755,648	0	-0,812
1757,586	-3,5	-1,69
1759,494	-11,5	-2,635
1761,402	-19,5	-3,499
1763,328	-19,5	-3,49
1765,23	-15,5	-3,305
1767,15	-6,5	-2,367
1769,064	-2,5	-1,378
1770,995	3	-0,437
1772,903	4,5	-0,003
1774,817	3,5	-0,076
1776,731	0	-0,779
1778,639	-4,5	-1,845
1780,553	-14	-2,84
1782,467	-19,5	-3,499
1784,411	-19,5	-3,483
1786,325	-12	-3,082
1788,245	-5	-2,134
1790,152	-1,5	-1,116
1792,072	4	-0,166
1793,98	4,5	-0,008
1795,882	2	-0,154
1797,814	-0,5	-0,919
1799,716	-6	-1,96
1801,618	-18	-3,032
1803,556	-19,5	-3,498
1805,463	-18,5	-3,468
1807,39	-11	-2,961
1809,303	-4	-1,981
1811,235	-1,5	-1,186
1813,155	4,5	-0,212
1815,069	4,5	-0,006
1816,983	2	-0,138
1818,927	-0,5	-0,863
1820,847	-5	-1,754
1822,767	-15	-2,754
1824,674	-19,5	-3,499
1826,576	-19	-3,477
1828,496	-12	-3,07
1830,44	-5,5	-2,348
1832,366	-2	-1,414
1834,268	3	-0,392
1836,176	4,5	-0,004
1838,102	3	-0,068
1840,01	-0,5	-0,832
1841,918	-4,5	-1,76
1843,837	-13,5	-2,681
1845,745	-19,5	-3,499
1847,659	-19,5	-3,481
1849,561	-11	-3,011
1851,463	-4	-1,877
1853,395	-0,5	-0,932
1855,297	4	0
1857,199	4	-0,023
1859,118	0,5	-0,474
1861,02	-3,5	-1,522
1862,946	-10,5	-2,465
1864,854	-19,5	-3,451
1866,762	-19,5	-3,492
1868,688	-15,5	-3,363
1870,614	-7,5	-2,552
1872,534	-3	-1,562
1874,442	2,5	-0,597
1876,374	4,5	-0,001
1878,275	4	-0,04
1880,183	0	-0,605
1882,115	-3,5	-1,542
1884,023	-11,5	-2,482
1885,931	-19,5	-3,462
1887,839	-19,5	-3,491
1889,765	-15	-3,32
1891,685	-7	-2,434
1893,593	-2,5	-1,416
1895,512	3	-0,505
1897,432	4	-0,002
1899,352	3,5	-0,044
1901,272	0	-0,656
1903,174	-4,5	-1,725
1905,088	-13,5	-2,719
1907,02	-19,5	-3,5
1908,94	-19,5	-3,491
1910,842	-13	-3,249
1912,743	-5,5	-2,234
1914,657	-2	-1,31
1916,565	4	-0,224
1918,485	4,5	-0,004
1920,417	4	-0,046
1922,325	0	-0,673
1924,239	-4	-1,661
1926,159	-12	-2,555
1928,06	-19,5	-3,5
1929,974	-19,5	-3,491
1931,888	-14,5	-3,302
1933,802	-6	-2,312
1935,71	-1,5	-1,224
1937,612	4,5	-0,121
1939,526	4,5	-0,009
1941,434	1,5	-0,202
1943,336	-1,5	-1,193
1945,256	-7,5	-2,135
1947,163	-18	-3,128
1949,071	-19,5	-3,497
1950,979	-18,5	-3,454
1952,881	-9	-2,749
1954,783	-3	-1,722
1956,697	0	-0,797
1958,617	4,5	0
1960,543	4,5	-0,012
1962,457	1	-0,31
1964,437	-1	-1
1966,351	-6	-2,001
1968,258	-17,5	-3,084
1970,172	-19,5	-3,497
1972,074	-17,5	-3,435
1973,982	-8,5	-2,663
1975,89	-3	-1,623
1977,804	0	-0,737
1979,712	4,5	-0,001
1981,625	4	-0,029
1983,527	0	-0,626
1985,435	-4	-1,613
1987,349	-11,5	-2,558
1989,263	-19,5	-3,471
1991,195	-19,5	-3,494
1993,103	-16,5	-3,398
1995,005	-7,5	-2,555
1996,919	-3	-1,56
1998,821	1,5	-0,597
2000,728	4,5	-0,002
2002,642	4	-0,035
2004,544	0	-0,669
2006,452	-4	-1,682
2008,366	-12,5	-2,644
2010,268	-19,5	-3,499
2012,17	-19	-3,484
2014,102	-13,5	-3,209
2016,034	-6	-2,375
2017,959	-2,5	-1,472
2019,861	3,5	-0,37
2021,763	4,5	-0,004
2023,671	3,5	-0,071
2025,591	0	-0,87
2027,499	-4,5	-1,884
2029,425	-13,5	-2,732
2031,333	-19,5	-3,499
2033,276	-19	-3,491
2035,184	-14	-3,299
2037,11	-6	-2,441
2039,024	-2,5	-1,489
2040,932	3,5	-0,486
2042,84	4,5	-0,003
2044,76	3,5	-0,07
2046,668	0	-0,895
2048,57	-5,5	-1,9
2050,496	-14,5	-2,861
2052,415	-19,5	-3,499
2054,347	-19	-3,485
2056,255	-13	-3,144
2058,163	-5	-2,196
2060,077	-1,5	-1,121
2061,991	4,5	-0,076
2063,893	4,5	-0,012
2065,807	1,5	-0,296
2067,733	-1,5	-1,293
2069,64	-8	-2,318
2071,548	-19	-3,427
2073,456	-19	-3,493
2075,358	-15	-3,337
2077,278	-6	-2,408
2079,186	-1,5	-1,289
2081,088	4,5	-0,147
2083,014	4,5	-0,006
2084,922	2,5	-0,16
2086,853	0	-1,018
2088,761	-6	-2,019
2090,663	-18,5	-3,15
2092,583	-19	-3,497
2094,491	-17,5	-3,442
2096,399	-9	-2,727
2098,313	-3,5	-1,69
2100,233	0	-0,784
2102,147	4,5	-0,001
2104,048	4	-0,034
2105,968	0	-0,603
2107,912	-2	-1,446
2109,838	-9	-2,384
2111,74	-19,5	-3,476
2113,648	-19	-3,492
2115,568	-15	-3,372
2117,482	-6,5	-2,45
2119,39	-2,5	-1,41
2121,298	3,5	-0,369
2123,218	4,5	-0,004
2125,137	3,5	-0,084
2127,051	0	-0,885
2128,959	-5	-1,919
2130,867	-17	-3,008
2132,787	-19	-3,498
2134,707	-18	-3,458
2136,639	-10	-2,904
2138,576	-4,5	-2,01
2140,496	-1	-0,992
2142,404	4,5	0
2144,312	4,5	-0,02
2146,22	1	-0,413
2148,152	-1,5	-1,3
2150,06	-9	-2,344
2151,974	-19	-3,366
2153,9	-19,5	-3,495
2155,808	-16	-3,359
2157,727	-6,5	-2,409
2159,629	-1,5	-1,286
2161,531	4	-0,138
2163,445	4,5	-0,008
2165,353	2,5	-0,184
2167,261	-1,5	-1,191
2169,163	-8,5	-2,282
2171,107	-18,5	-3,212
2173,015	-19	-3,496
2174,94	-17	-3,422
2176,854	-7,5	-2,553
2178,762	-2,5	-1,446
2180,682	3	-0,476
2182,596	4	-0,003
2184,498	3	-0,096
2186,406	-0,5	-1,072
2188,332	-6	-2,086
2190,24	-18,5	-3,137
2192,147	-19	-3,496
2194,079	-16,5	-3,428
2195,987	-7,5	-2,555
2197,889	-2,5	-1,432
2199,821	3	-0,48
2201,723	4,5	-0,003
2203,631	3,5	-0,096
2205,545	-0,5	-1,025
2207,447	-5,5	-2,079
2209,361	-17,5	-3,068
2211,275	-19	-3,498
2213,189	-15,5	-3,447
2215,09	-8	-2,649
2217,004	-3	-1,577
2218,918	3	-0,502
2220,82	4,5	-0,003
2222,74	3,5	-0,076
2224,648	0	-0,888
2226,556	-5	-1,901
2228,481	-14	-2,803
2230,419	-19	-3,499
2232,327	-18,5	-3,485
2234,241	-12,5	-3,091
2236,149	-4,5	-2,03
2238,057	-0,5	-0,947
2239,965	4,5	-0,001
2241,897	4	-0,012
2243,811	1,5	-0,308
2245,742	-1,5	-1,238
2247,65	-8,5	-2,33
2249,558	-19	-3,408
2251,496	-19	-3,495
2253,446	-17,5	-3,435
2255,354	-8	-2,618
2257,262	-3	-1,632
2259,164	1	-0,572
2261,065	4,5	-0,003
2262,974	4	-0,045
2264,893	0	-0,727
2266,801	-3,5	-1,778
2268,721	-12	-2,752
2270,653	-18,5	-3,499
2272,561	-18,5	-3,483
2274,469	-10,5	-3,018
2276,383	-4	-2,003
2278,314	-1	-1,051
2280,229	4,5	-0,065
2282,142	4,5	-0,01
2284,056	1,5	-0,184
2285,976	-1	-1,073
2287,884	-6	-2,075
2289,792	-18	-3,095
2291,694	-18,5	-3,496
2293,602	-16,5	-3,43
2295,51	-7,5	-2,633
2297,429	-2,5	-1,636
2299,349	2	-0,625
2301,275	4,5	-0,002
2303,183	4	-0,034
2305,127	1	-0,408
2307,047	-2	-1,399
2308,955	-10,5	-2,502
2310,869	-18,5	-3,483
2312,789	-18	-3,492
2314,696	-13,5	-3,282
2316,604	-5	-2,272
2318,512	-1	-1,179
2320,42	4,5	-0,098
2322,322	4,5	-0,007
2324,236	3	-0,116
2326,144	-0,5	-1,029
2328,046	-6	-2,064
2329,972	-15,5	-2,924
2331,879	-18,5	-3,498
2333,799	-17,5	-3,464
2335,707	-9	-2,847
2337,633	-3	-1,785
2339,541	1	-0,681
2341,443	4,5	-0,002
2343,369	4	-0,028
2345,271	0	-0,624
2347,173	-3,5	-1,64
2349,08	-12	-2,619
2351	-18	-3,5
2352,902	-18,5	-3,488
2354,822	-12,5	-3,24
2356,724	-5	-2,298
2358,626	-1	-1,191
2360,54	4,5	-0,136
2362,466	4,5	-0,007
2364,38	2	-0,14
2366,287	-1	-1,098
2368,201	-6	-2,129
2370,109	-18,5	-3,197
2372,017	-18	-3,495
2373,925	-15	-3,397
2375,833	-7	-2,54
2377,741	-2	-1,42
2379,643	4	-0,334
2381,575	4,5	-0,003
2383,476	3,5	-0,108
2385,385	-1	-1,113
2387,322	-6	-2,06
2389,23	-17,5	-3,059
2391,132	-18	-3,497
2393,046	-16	-3,43
2394,948	-6,5	-2,562
2396,85	-2	-1,461
2398,8	2	-0,598
2400,72	4,5	-0,002
2402,657	4	-0,039
2404,583	0	-0,66
2406,497	-3	-1,691
2408,423	-9,5	-2,511
2410,343	-18	-3,5
2412,251	-18	-3,488
2414,153	-10,5	-3,007
2416,067	-4	-2,013
2417,975	-1	-1,032
2419,876	4,5	0
2421,79	4,5	-0,014
2423,692	1,5	-0,332
2425,606	-2	-1,407
2427,526	-10	-2,509
2429,446	-17,5	-3,497
2431,354	-17,5	-3,489
2433,262	-11,5	-3,19
2435,17	-4,5	-2,119
2437,089	-1	-1,117
2438,991	4,5	-0,001
2440,893	4,5	-0,016
2442,801	1	-0,437
2444,715	-1,5	-1,373
2446,629	-7,5	-2,371
2448,537	-17,5	-3,471
2450,445	-17,5	-3,492
2452,359	-13,5	-3,348
2454,266	-5	-2,354
2456,168	-2	-1,311
2458,094	4	-0,279
2459,996	4	-0,006
2461,898	2	-0,166
2463,806	-1	-1,174
2465,732	-6,5	-2,165
2467,64	-17,5	-3,238
2469,548	-17,5	-3,496
2471,461	-15	-3,417
2473,37	-6,5	-2,592
2475,289	-3	-1,644
2477,203	2,5	-0,666
2479,111	4,5	-0,002
2481,013	4	-0,046
2482,939	0,5	-0,635
2484,859	-2,5	-1,61
2486,761	-10,5	-2,643
2488,668	-17	-3,499
2490,601	-17	-3,488
2492,502	-11	-3,232
2494,41	-4,5	-2,216
2496,318	-1	-1,183
2498,238	4,5	-0,221
2500,14	4,5	-0,008
2502,048	2	-0,216
2503,968	-0,5	-1,225
2505,876	-6,5	-2,27
2507,777	-17	-3,36
2509,685	-16,5	-3,494
2511,605	-14,5	-3,39
2513,513	-5,5	-2,503
2515,421	-2	-1,428
2517,323	4,5	-0,254
2519,231	4,5	-0,006
2521,139	2	-0,211
2523,041	-1	-1,28
2524,942	-6	-2,275
2526,856	-15,5	-3,234
2528,764	-15,5	-3,495
2530,678	-13,5	-3,411
2532,595	-5,5	-2,521
2534,494	-2	-1,521
2536,414	2,5	-0,566
2538,328	4,5	-0,002
2540,248	4	-0,042
2542,161	0,5	-0,6
2544,099	-1,5	-1,437
2546,001	-7,5	-2,444
2547,909	-15,5	-3,446
2549,817	-15,5	-3,493
2551,737	-12	-3,35
2553,675	-6	-2,611
2555,583	-2,5	-1,646
2557,485	1	-0,629
2559,405	4,5	-0,002
2561,312	4	-0,03
2563,22	1	-0,519
2565,14	-1	-1,434
2567,048	-7,5	-2,474
2568,95	-15	-3,5
2570,858	-15	-3,49
2572,778	-10,5	-3,275
2574,692	-4,5	-2,318
2576,599	-1,5	-1,242
2578,507	4,5	-0,198
2580,427	4,5	-0,006
2582,335	3	-0,144
2584,243	0	-1,068
2586,151	-4,5	-2,118
2588,065	-15	-3,194
2589,973	-15,5	-3,496
2591,875	-13,5	-3,41
2593,782	-6	-2,583
2595,708	-2,5	-1,648
2597,617	2	-0,608
2599,518	4,5	-0,002
2601,432	4	-0,06
2603,34	0,5	-0,833
2605,248	-3	-1,899
2607,156	-11	-2,854
2609,07	-15	-3,499
2610,977	-15	-3,483
2612,879	-8,5	-2,998
2614,787	-3	-1,974
2616,695	0	-0,988
2618,597	4,5	0
2620,505	4,5	-0,018
2622,413	1,5	-0,426
2624,327	-0,5	-1,382
2626,247	-5,5	-2,356
2628,155	-14,5	-3,414
2630,062	-15	-3,493
2631,982	-12	-3,374
2633,89	-5	-2,478
2635,798	-1,5	-1,412
2637,718	2,5	-0,475
2639,62	4,5	-0,004
2641,522	3,5	-0,1
2643,448	0	-0,906
2645,356	-2,5	-1,96
2647,258	-12	-3,064
2649,159	-14	-3,497
2651,073	-12,5	-3,442
2652,975	-6	-2,706
2654,877	-2,5	-1,743
2656,785	1,5	-0,645
2658,711	4,5	-0,001
2660,619	4	-0,042
2662,521	0,5	-0,78
2664,428	-2	-1,788
2666,336	-8	-2,827
2668,244	-13,5	-3,499
2670,152	-13	-3,473
2672,054	-7	-2,927
2673,98	-3	-2,072
2675,888	-0,5	-1,101
2677,79	4,5	-0,071
2679,698	4,5	-0,012
2681,611	1,5	-0,4
2683,513	-0,5	-1,511
2685,427	-5,5	-2,526
2687,335	-12,5	-3,5
2689,255	-12,5	-3,49
2691,157	-8,5	-3,248
2693,059	-3	-2,19
2694,973	-1	-1,117
2696,893	4	-0,219
2698,8	4,5	-0,007
2700,709	3	-0,15
2702,64	0	-1,117
2704,542	-3	-2,234
2706,45	-12	-3,3
2708,394	-12	-3,499
2710,314	-12	-3,488
2712,216	-7,5	-3,14
2714,124	-3	-2,127
2716,031	-0,5	-1,141
2717,939	4,5	-0,139
2719,841	4,5	-0,009
2721,749	2,5	-0,184
2723,651	0	-1,189
2725,565	-3	-2,171
2727,467	-12	-3,196
2729,375	-12	-3,496
2731,283	-11	-3,429
2733,196	-5,5	-2,798
2735,11	-2	-1,758
2737,018	0,5	-0,708
2738,926	4,5	-0,001
2740,846	4	-0,025
2742,754	1,5	-0,529
2744,662	-0,5	-1,495
2746,57	-4,5	-2,55
2748,481	-12	-3,5
2750,379	-12	-3,491
2752,281	-8	-3,254
2754,189	-3,5	-2,257
2756,109	-1	-1,312
2758,023	4,5	-0,343
2759,931	4,5	-0,005
2761,839	3,5	-0,086
2763,753	0,5	-0,824
2765,661	-1	-1,772
2767,569	-7	-2,812
2769,482	-11,5	-3,499
2771,384	-10,5	-3,47
2773,304	-5	-2,946
2775,23	-2,5	-2,04
2777,138	0	-1,004
2779,07	4,5	-0,115
2780,99	4,5	-0,008
2782,898	2,5	-0,172
2784,818	0	-1,004
2786,731	-1,5	-1,986
2788,634	-8,5	-2,944
2790,541	-11,5	-3,498
2792,461	-10,5	-3,471
2794,369	-5,5	-2,942
2796,277	-2	-1,95
2798,185	0	-0,947
2800,117	4,5	-0,009
2802,025	4,5	-0,012
2803,932	2	-0,25
2805,84	0	-1,255
2807,76	-2,5	-2,165
2809,668	-10,5	-3,208
2811,582	-11	-3,496
2813,502	-9,5	-3,424
2815,41	-4	-2,631
2817,318	-1	-1,632
2819,226	1,5	-0,634
2821,128	4,5	-0,002
2823,041	3,5	-0,047
2824,943	1	-0,724
2826,851	-0,5	-1,728
2828,765	-5,5	-2,679
2830,673	-11	-3,499
2832,581	-10,5	-3,485
2834,483	-6	-3,16
2836,385	-2	-2,107
2838,299	-0,5	-1,218
2840,206	4,5	-0,207
2842,108	4,5	-0,007
2844,016	2,5	-0,17
2845,93	0	-1,089
2847,832	-2	-2,078
2849,74	-10,5	-3,152
2851,648	-11	-3,496
2853,562	-10	-3,441
2855,463	-4,5	-2,65
2857,366	-1,5	-1,602
2859,273	2	-0,636
2861,181	4,5	-0,002
2863,125	4	-0,033
2865,033	1	-0,562
2866,935	-0,5	-1,558
2868,849	-4,5	-2,556
2870,757	-11	-3,5
2872,659	-10,5	-3,489
2874,566	-7	-3,272
2876,474	-3	-2,337
2878,394	-0,5	-1,374
2880,302	3,5	-0,339
2882,216	4,5	-0,005
2884,118	3	-0,091
2886,032	0,5	-0,844
2887,952	-1	-1,85
2889,86	-7	-2,859
2891,767	-10,5	-3,498
2893,681	-10,5	-3,476
2895,589	-5,5	-2,997
2897,497	-2	-2,033
2899,405	0	-1,056
2901,325	4,5	-0,211
2903,233	4,5	-0,01
2905,135	1,5	-0,276
2907,043	0	-1,316
2908,962	-3	-2,321
2910,864	-10,5	-3,351
2912,772	-10,5	-3,494
2914,686	-8,5	-3,394
2916,606	-3,5	-2,557
2918,508	-1	-1,539
2920,416	3,5	-0,51
2922,324	4,5	-0,003
2924,226	3	-0,086
2926,145	0,5	-0,864
2928,054	-1,5	-1,84
2929,961	-7	-2,88
2931,863	-10,5	-3,498
2933,789	-10	-3,473
2935,697	-5	-2,91
2937,599	-1,5	-1,925
2939,513	0	-1
2941,433	4,5	0
2943,34	4	-0,016
2945,248	1,5	-0,414
2947,156	0	-1,426
2949,07	-3	-2,399
2950,978	-10,5	-3,494
2952,88	-10,5	-3,49
2954,794	-7	-3,319
2956,708	-2	-2,236
2958,61	0	-1,112
2960,517	4,5	-0,166
2962,419	4,5	-0,01
2964,34	2	-0,217
2966,247	0	-1,253
2968,149	-3	-2,35
2970,051	-10,5	-3,461
2971,977	-10,5	-3,494
2973,885	-8,5	-3,394
2975,799	-3	-2,473
2977,719	-1	-1,488
2979,626	3	-0,453
2981,546	4,5	-0,003
2983,454	3,5	-0,102
2985,392	0,5	-0,905
2987,3	-1	-1,945
2989,208	-8,5	-3,013
2991,128	-10,5	-3,498
2993,03	-9	-3,454
2994,938	-4,5	-2,801
2996,845	-1,5	-1,735
2998,759	0,5	-0,752
3000,661	4	-0,001
3002,569	4	-0,036
3004,471	1	-0,649
3006,409	-0,5	-1,534
3008,317	-4	-2,558
3010,225	-10	-3,5
3012,133	-10	-3,488
3014,034	-6	-3,204
3015,967	-2	-2,223
3017,868	-0,5	-1,132
3019,812	4,5	-0,222
3021,72	4,5	-0,007
3023,652	2,5	-0,162
3025,56	0	-1,235
3027,48	-1,5	-2,14
3029,388	-9,5	-3,171
3031,296	-10	-3,496
3033,204	-8,5	-3,43
3035,135	-4,5	-2,781
3037,043	-1,5	-1,709
3038,951	1	-0,626
3040,853	4	-0,002
3042,767	3,5	-0,043
3044,675	1	-0,672
3046,577	-0,5	-1,758
3048,478	-5,5	-2,806
3050,387	-10	-3,499
3052,3	-9,5	-3,473
3054,202	-4,5	-2,902
3056,104	-1,5	-1,811
3058,006	1	-0,748
3059,914	4,5	-0,001
3061,822	4	-0,034
3063,724	1	-0,675
3065,626	-0,5	-1,671
3067,533	-4,5	-2,691
3069,447	-9,5	-3,499
3071,349	-9,5	-3,477
3073,251	-5	-3,036
3075,159	-1,5	-2,012
3077,061	0	-1,038
3078,993	4,5	-0,047
3080,901	4	-0,011
3082,839	2,5	-0,192
3084,747	0	-1,206
3086,654	-1,5	-2,234
3088,556	-9	-3,408
3090,464	-9	-3,493
3092,378	-6,5	-3,338
3094,286	-2	-2,292
3096,188	0	-1,184
3098,096	4,5	-0,116
3099,998	4,5	-0,011
3101,917	2	-0,313
3103,844	0	-1,22
3105,751	-1,5	-2,224
3107,671	-8,5	-3,182
3109,579	-9,5	-3,496
3111,481	-8	-3,421
3113,389	-3	-2,625
3115,297	-1	-1,633
3117,211	1,5	-0,639
3119,119	4,5	-0,002
3121,02	4	-0,046
3122,928	1,5	-0,63
3124,842	0	-1,561
3126,75	-3	-2,553
3128,658	-9,5	-3,499
3130,56	-9	-3,481
3132,468	-5	-3,111
3134,388	-1,5	-2,156
3136,295	0	-1,117
3138,203	4,5	-0,047
3140,105	4,5	-0,012
3142,013	2	-0,184
3143,927	0	-1,221
3145,836	-1	-2,165
3147,743	-8,5	-3,152
3149,645	-9	-3,497
3151,559	-7,5	-3,442
3153,46	-3	-2,736
3155,362	-1	-1,644
3157,27	1,5	-0,642
3159,184	4,5	-0,002
3161,098	4	-0,03
3163,012	1,5	-0,54
3164,914	0	-1,536
3166,816	-3	-2,574
3168,736	-9	-3,5
3170,643	-9	-3,489
3171,891	4,5	0