File: ensaios_Ciclicos/_20perc/_4gap/entrada/_3.txt
Time (s)	Load (N)	Displacement (mm)
0	0	-0,136
0,306	-13,5	-1,594
0,642	-30,5	-3,313
1,032	-34,5	-3,499
1,38	-20	-1,854
1,751	-2,5	-0,166
2,088	1	-0,001
2,454	-10,5	-1,598
2,784	-26	-3,297
3,155	-33,5	-3,499
3,474	-23	-2,328
3,822	-5,5	-0,474
4,223	1	-0,002
4,542	-6,5	-1,143
4,883	-22,5	-2,858
5,231	-33	-3,497
5,555	-27	-2,769
6,384	1,5	-0,002
6,744	-7,5	-1,334
7,086	-23,5	-3,039
7,457	-32,5	-3,498
7,781	-23	-2,41
8,129	-6	-0,609
8,472	1,5	-0,004
8,813	-4	-0,871
9,162	-19	-2,61
9,551	-32	-3,496
9,911	-24	-2,573
10,218	-9,5	-1,043
10,575	1,5	-0,011
10,92	-0,5	-0,602
11,237	-15	-2,217
11,585	-31	-3,469
11,91	-31,5	-3,434
12,246	-15,5	-1,728
12,581	0	-0,136
12,935	1,5	0
13,312	-11,5	-1,867
13,679	-29	-3,422
14,015	-31,5	-3,499
14,345	-19,5	-2,11
14,657	-3,5	-0,46
15,005	2	-0,003
15,353	-5,5	-1,228
15,737	-22,5	-3,028
16,067	-31,5	-3,497
16,445	-22,5	-2,382
16,817	-3	-0,517
17,165	2	-0,003
17,519	-5,5	-1,146
17,895	-22,5	-3,041
18,25	-31	-3,498
18,613	-21,5	-2,252
19,001	-2	-0,363
19,337	2	-0,002
19,724	-7,5	-1,482
20,045	-22	-3,037
20,363	-31	-3,496
20,795	-19	-2,142
21,149	-2	-0,372
21,472	2	-0,002
21,79	-3	-0,963
22,127	-18	-2,643
22,486	-31	-3,494
22,823	-26,5	-2,826
23,176	-7,5	-1,056
23,507	2	-0,018
23,837	1	-0,501
24,172	-13,5	-2,096
24,491	-29	-3,434
24,826	-30,5	-3,5
25,216	-13	-1,565
25,588	1,5	-0,051
25,948	2	-0,253
26,315	-12,5	-2,03
26,675	-29,5	-3,458
27,058	-30	-3,159
27,417	-10,5	-1,362
27,73	1,5	-0,064
28,072	2	-0,031
28,432	-10,5	-1,99
28,768	-26,5	-3,413
29,123	-30,5	-3,5
29,464	-16	-1,883
29,788	-0,5	-0,266
30,154	2	-0,001
30,49	-8	-1,534
30,85	-24,5	-3,256
31,242	-30	-3,499
31,593	-15,5	-1,918
31,93	-0,5	-0,247
32,248	2	-0,002
32,602	-6,5	-1,322
32,926	-20	-2,997
33,28	-30	-3,497
34,09	0	-0,204
34,42	2,5	-0,001
34,782	-7	-1,442
35,116	-22,5	-3,122
35,494	-30	-3,499
35,854	-17,5	-2,035
36,19	-1,5	-0,406
36,55	2,5	-0,002
36,892	-6,5	-1,32
37,227	-21	-3
37,564	-30	-3,498
37,99	-17	-2,087
38,302	-3	-0,528
38,62	2,5	-0,004
38,937	-2,5	-0,96
39,262	-15,5	-2,5
39,622	-29,5	-3,491
39,987	-25,5	-2,798
40,312	-7,5	-1,183
40,671	2,5	-0,017
41,019	0,5	-0,54
41,356	-13,5	-2,22
41,686	-28,5	-3,463
42,039	-30	-3,254
42,382	-12	-1,546
42,738	1	-0,058
43,041	2,5	0
43,378	-8	-1,607
43,725	-24	-3,341
44,097	-29,5	-3,499
128,962	2,5	-0,375
129,262	-8,5	-1,871
129,574	-23,5	-3,357
129,886	-27,5	-3,499
130,222	-17	-2,205
130,522	-2	-0,651
130,847	3	-0,007
131,182	-0,5	-0,778
131,476	-11,5	-2,378
131,824	-27	-3,474
132,172	-27,5	-3,23
132,502	-10	-1,492
132,808	1	-0,136
133,132	3	-0,001
133,504	-7,5	-1,633
133,834	-22	-3,27
134,158	-27,5	-3,498
134,494	-17,5	-2,319
134,812	-2,5	-0,734
135,142	3	-0,007
135,472	-0,5	-0,718
135,778	-11,5	-2,248
136,116	-26,5	-3,469
136,444	-27,5	-3,304
136,756	-11	-1,678
137,068	0,5	-0,204
137,386	3	-0,001
137,674	-3,5	-1,026
138,016	-16	-2,736
138,304	-27	-3,485
138,658	-24,5	-2,946
138,976	-7,5	-1,361
139,318	2,5	-0,04
139,654	3	-0,258
139,978	-8	-1,996
140,314	-24	-3,401
140,656	-27	-3,5
140,998	-13	-1,914
141,316	0	-0,324
141,628	3	-0,002
141,958	-3,5	-1,079
142,294	-16	-2,764
142,636	-27	-3,494
142,954	-22,5	-2,795
143,283	-5	-1,144
143,596	3	-0,032
143,889	3	-0,103
144,189	-6,5	-1,619
144,514	-20,5	-3,178
144,885	-27	-3,499
145,221	-16	-2,123
145,545	-1	-0,563
145,839	3	-0,007
146,157	0	-0,696
146,463	-12	-2,226
146,769	-25,5	-3,458
147,099	-27	-3,492
147,411	-12,5	-1,914
147,735	0	-0,295
148,035	3	-0,003
148,383	-4,5	-1,216
148,749	-18,5	-2,986
149,037	-27	-3,493
149,373	-22,5	-2,785
149,667	-6	-1,314
149,979	2,5	-0,055
150,279	3	0
150,61	-6	-1,537
150,945	-21	-3,266
151,287	-27	-3,498
151,617	-17	-2,288
151,905	-3	-0,848
152,259	3	-0,007
152,613	-2	-0,881
152,919	-12,5	-2,416
153,249	-26,5	-3,479
153,591	-26,5	-3,149
153,933	-7,5	-1,433
154,263	2,5	-0,061
154,575	3	0
154,887	-6	-1,512
155,187	-19	-3,102
155,505	-27	-3,496
155,835	-20,5	-2,624
156,171	-3,5	-0,944
156,483	3	-0,018
156,795	2,5	-0,359
157,125	-9,5	-2,005
157,449	-25	-3,42
157,773	-27	-3,499
158,553	2,5	-0,057
158,853	3	0
159,176	-5,5	-1,527
159,465	-18,5	-3,027
159,795	-27	-3,497
160,095	-22,5	-2,77
160,413	-5,5	-1,18
160,713	2,5	-0,044
161,031	3	-0,064
161,361	-7	-1,738
161,672	-21,5	-3,281
161,99	-27	-3,498
162,339	-17	-2,29
162,681	-1	-0,585
163,016	3	-0,004
163,316	0	-0,716
163,652	-12,5	-2,396
163,964	-26	-3,472
164,282	-27	-3,237
164,594	-11	-1,764
164,928	0,5	-0,152
165,248	3,5	-0,001
165,548	-4,5	-1,19
165,878	-16,5	-2,84
166,196	-26,5	-3,495
166,569	-20	-2,603
166,874	-4,5	-1,018
167,198	3	-0,022
167,546	1,5	-0,553
167,87	-10	-2,194
168,206	-25,5	-3,452
168,506	-27	-3,499
168,83	-13,5	-2,01
169,136	-1	-0,48
169,466	3	-0,003
169,784	-3	-1,008
170,115	-14	-2,588
170,456	-26,5	-3,49
170,762	-24,5	-2,987
171,086	-7	-1,367
171,428	2,5	-0,039
171,764	3	-0,155
172,058	-6	-1,693
172,388	-21,5	-3,266
172,676	-27	-3,497
173	-20	-2,554
173,354	-2,5	-0,784
173,66	3	-0,012
173,984	2	-0,577
174,35	-12	-2,348
174,662	-26	-3,467
174,988	-26,5	-3,395
175,286	-11,5	-1,878
175,61	0	-0,258
175,925	3,5	-0,002
176,228	-3	-1
176,546	-14,5	-2,594
176,852	-26,5	-3,483
177,212	-24	-2,94
177,56	-5,5	-1,2
177,878	3	-0,035
178,202	3	-0,217
178,562	-9	-1,946
178,897	-24	-3,434
179,227	-27	-3,5
179,557	-13	-1,97
179,899	0	-0,264
180,247	3,5	-0,001
180,578	-4,5	-1,261
180,908	-17,5	-2,911
181,219	-26,5	-3,494
181,555	-20,5	-2,655
181,891	-3,5	-0,915
182,215	3,5	-0,013
182,521	3	-0,45
182,875	-9,5	-2,081
183,193	-24,5	-3,432
183,529	-26,5	-3,5
183,841	-12	-1,848
184,159	0	-0,348
184,507	3,5	-0,002
184,813	-3,5	-1,112
185,155	-15,5	-2,762
185,469	-26,5	-3,491
185,858	-20	-2,592
186,187	-3	-0,948
186,505	3,5	-0,016
186,805	3	-0,292
187,135	-8,5	-1,94
187,441	-23,5	-3,373
187,765	-26,5	-3,499
188,083	-14,5	-2,174
188,413	-1	-0,524
188,737	3,5	-0,003
189,049	-1,5	-0,817
189,385	-13,5	-2,502
189,709	-26	-3,482
190,021	-26,5	-3,167
190,372	-8	-1,501
190,693	2	-0,081
190,999	3,5	-0,001
191,317	-5	-1,443
191,683	-21	-3,294
192,001	-27	-3,498
192,319	-18,5	-2,463
192,643	-2,5	-0,844
192,955	3,5	-0,011
193,297	0,5	-0,606
193,615	-10,5	-2,196
193,939	-25	-3,456
194,262	-26,5	-3,382
194,562	-11,5	-1,898
194,905	0	-0,21
195,216	3,5	-0,002
195,529	-4	-1,149
195,855	-15,5	-2,774
196,159	-26	-3,491
196,5	-22	-2,873
196,825	-5,5	-1,252
197,124	3	-0,054
197,442	3	0
197,778	-6	-1,671
198,156	-23,5	-3,403
198,468	-26,5	-3,499
198,808	-13	-2,038
199,122	0	-0,448
199,446	3,5	-0,003
199,784	-3	-0,998
200,07	-12,5	-2,438
200,37	-25,5	-3,47
200,73	-25,5	-3,155
201,042	-8	-1,594
201,354	1,5	-0,132
201,667	3,5	-0,001
201,954	-3,5	-1,116
202,266	-15	-2,676
202,566	-26	-3,486
202,89	-24,5	-3,055
203,209	-7	-1,46
203,526	2	-0,08
203,851	3,5	0
204,169	-5,5	-1,476
204,516	-19,5	-3,211
204,822	-26,5	-3,498
205,17	-17	-2,399
205,5	-1,5	-0,749
205,831	3,5	-0,007
206,172	-1,5	-0,823
206,491	-11,5	-2,353
206,802	-25,5	-3,467
207,102	-26	-3,489
207,426	-10,5	-1,838
207,756	0,5	-0,214
208,098	3,5	-0,001
208,452	-5	-1,446
208,788	-19,5	-3,126
209,099	-26	-3,497
209,406	-19,5	-2,612
209,7	-4	-1,138
210,024	3	-0,027
210,354	3,5	-0,26
210,708	-9	-2,033
211,032	-24	-3,427
211,374	-26	-3,489
211,674	-12,5	-1,969
211,962	0	-0,52
212,28	3,5	-0,003
212,615	-1,5	-0,914
212,903	-11,5	-2,354
213,228	-25,5	-3,474
213,576	-25,5	-3,109
213,887	-7,5	-1,548
214,206	2	-0,103
214,559	3,5	0
214,877	-5,5	-1,59
215,189	-19,5	-3,14
215,502	-26,5	-3,497
215,801	-19,5	-2,659
216,12	-3,5	-1,064
216,413	3	-0,033
216,738	3,5	-0,178
217,049	-6,5	-1,744
217,361	-21,5	-3,284
217,68	-26	-3,498
218,003	-16	-2,356
218,303	-2,5	-0,856
218,628	3,5	-0,011
218,939	1,5	-0,555
219,257	-8,5	-2,061
219,593	-24,5	-3,444
219,881	-26	-3,499
220,193	-14	-2,114
220,505	-0,5	-0,424
220,817	3,5	-0,005
221,117	0	-0,658
221,441	-11	-2,278
221,753	-25	-3,459
222,041	-26	-3,5
222,341	-12,5	-2,038
222,659	0	-0,448
222,965	3,5	-0,004
223,271	-0,5	-0,774
223,589	-11,5	-2,369
223,884	-25	-3,459
224,189	-26	-3,494
224,483	-12,5	-2,041
224,807	0	-0,421
225,101	3,5	-0,004
225,894	-19,5	-3,203
226,229	-26	-3,498
226,559	-15	-2,342
226,889	-1,5	-0,647
227,207	3,5	-0,005
227,537	0	-0,711
227,891	-12,5	-2,481
228,26	-25,5	-3,492
228,587	-23	-2,931
228,887	-6,5	-1,431
229,187	2	-0,087
229,511	3,5	-0,001
229,811	-4,5	-1,367
230,141	-18	-3,042
230,459	-26	-3,496
230,776	-20,5	-2,683
231,095	-4	-1,098
231,418	3,5	-0,022
231,73	3	-0,348
232,042	-7,5	-1,789
232,36	-22	-3,329
232,672	-26	-3,498
232,996	-16,5	-2,328
233,326	-1,5	-0,678
233,639	3,5	-0,008
233,963	0	-0,676
234,286	-10,5	-2,291
234,598	-25	-3,46
234,892	-26	-3,5
235,222	-11	-1,899
235,534	0	-0,344
235,846	3,5	-0,002
236,158	-3	-0,944
236,483	-13,5	-2,568
236,794	-25,5	-3,483
237,094	-26	-3,216
237,418	-7,5	-1,594
237,73	1,5	-0,13
238,049	3,5	-0,001
238,348	-4	-1,381
238,689	-16	-2,976
239,019	-25,5	-3,496
239,309	-21	-2,789
239,633	-4,5	-1,174
239,962	3,5	-0,027
240,262	3	-0,103
240,574	-6	-1,678
240,928	-22	-3,362
241,264	-25,5	-3,499
241,576	-14,5	-2,177
241,9	-0,5	-0,552
242,23	3,5	-0,004
242,542	-1	-0,757
242,848	-10,5	-2,287
243,172	-25	-3,475
243,49	-25,5	-3,332
243,808	-9,5	-1,735
244,108	0,5	-0,244
244,426	3,5	-0,002
244,75	-3,5	-1,148
245,08	-15,5	-2,858
245,41	-25,5	-3,494
245,746	-21	-2,784
246,052	-5,5	-1,259
246,394	3,5	-0,028
246,694	3,5	-0,078
247,006	-6	-1,653
247,336	-20	-3,29
247,66	-25,5	-3,498
247,99	-15	-2,277
248,301	-1,5	-0,712
248,614	3,5	-0,009
248,944	0	-0,698
249,256	-11	-2,263
249,585	-25	-3,467
249,909	-25,5	-3,299
250,233	-9	-1,662
329,381	-13,5	-2,122
329,693	-0,5	-0,638
329,999	3,5	-0,004
330,329	0	-0,716
330,657	-10,5	-2,372
330,953	-24	-3,458
331,289	-24,5	-3,372
331,589	-9,5	-1,859
331,907	1	-0,272
332,231	3,5	-0,002
332,555	-3	-1,128
332,861	-13,5	-2,658
333,173	-24,5	-3,487
333,466	-24,5	-3,158
333,785	-7	-1,561
334,133	3	-0,074
334,427	3,5	-0,001
334,738	-4	-1,32
335,026	-14	-2,76
335,338	-24,5	-3,491
335,627	-24	-3,09
335,939	-6	-1,53
336,251	3	-0,106
336,562	3,5	-0,001
336,863	-3,5	-1,243
337,18	-15	-2,913
337,486	-24,5	-3,492
337,786	-23	-2,953
338,099	-5,5	-1,468
338,422	3	-0,073
338,728	3,5	-0,001
339,07	-5	-1,512
339,358	-16	-2,952
339,646	-24,5	-3,493
339,976	-19,5	-2,828
340,27	-4,5	-1,358
340,606	3,5	-0,043
340,894	3,5	0
341,194	-4,5	-1,573
341,506	-17	-3,043
341,812	-24,5	-3,496
342,112	-19,5	-2,818
342,436	-3,5	-1,193
342,742	3,5	-0,036
343,048	3,5	0
343,354	-5	-1,517
343,666	-17	-3,157
343,996	-24,5	-3,498
344,296	-17,5	-2,616
344,596	-3	-1,117
344,902	3,5	-0,033
345,226	3,5	-0,163
345,538	-6	-1,735
345,844	-19	-3,274
346,192	-24,5	-3,499
346,54	-12	-2,119
346,846	-0,5	-0,589
347,158	3,5	-0,005
347,512	-1,5	-0,845
347,812	-10,5	-2,346
348,106	-23,5	-3,456
348,406	-24,5	-3,5
348,718	-10,5	-1,97
349,018	0	-0,42
349,354	4	-0,003
349,642	-1,5	-0,882
349,954	-11	-2,357
350,266	-24	-3,467
350,566	-24,5	-3,41
350,878	-9	-1,828
351,166	0	-0,388
351,46	3,5	-0,004
351,759	-0,5	-0,733
352,059	-9,5	-2,233
352,371	-24	-3,453
352,66	-24,5	-3,499
352,965	-12	-2,085
353,254	-0,5	-0,645
353,553	3,5	-0,008
353,865	1	-0,588
354,16	-8	-2,058
354,471	-23	-3,419
354,765	-24,5	-3,499
355,101	-11,5	-2,059
355,402	0	-0,559
355,719	3,5	-0,005
356,031	-1	-0,753
356,349	-10	-2,344
356,669	-24	-3,469
356,979	-24,5	-3,366
357,273	-9	-1,879
357,585	0,5	-0,324
357,885	3,5	-0,003
358,203	-2	-0,932
358,509	-12	-2,463
358,809	-24	-3,478
359,109	-24,5	-3,338
359,427	-9,5	-1,823
359,727	0	-0,329
360,045	4	-0,002
360,357	-2,5	-0,953
360,658	-11,5	-2,458
360,957	-24	-3,478
361,281	-24,5	-3,22
361,582	-8	-1,718
361,905	1,5	-0,159
362,193	3,5	-0,002
362,521	-3	-1,161
362,811	-13	-2,6
363,111	-24	-3,481
363,417	-24	-3,154
363,729	-6,5	-1,653
364,029	1,5	-0,189
364,341	3,5	-0,001
364,665	-3	-1,195
364,971	-14,5	-2,725
365,26	-24	-3,485
365,583	-23	-3,064
365,871	-6,5	-1,628
366,171	1,5	-0,172
366,471	3,5	-0,002
366,795	-3	-1,132
367,083	-12,5	-2,572
367,371	-24	-3,476
367,689	-24,5	-3,322
406,201	-24	-3,498
406,488	-10,5	-2,054
407,226	3,5	-0,001
407,544	-4,5	-1,4
407,844	-15	-2,9
408,138	-24	-3,492
408,444	-23	-2,944
408,738	-5,5	-1,474
409,069	3	-0,067
409,387	3,5	0
409,686	-4,5	-1,386
409,998	-15,5	-2,946
410,31	-24,5	-3,495
410,604	-20,5	-2,878
410,892	-5	-1,438
411,198	2,5	-0,09
411,486	3,5	-0,001
411,774	-3	-1,13
412,086	-14	-2,7
412,404	-24	-3,492
412,71	-21,5	-3,024
413,022	-5,5	-1,468
413,322	2	-0,108
413,61	3,5	-0,001
413,916	-3,5	-1,243
414,204	-12,5	-2,673
414,516	-24	-3,488
414,804	-24	-3,134
415,105	-7	-1,713
415,41	1,5	-0,204
415,734	3,5	-0,001
416,022	-3	-1,051
416,31	-12	-2,496
416,622	-24	-3,478
416,952	-24	-3,181
417,24	-8	-1,74
417,558	1,5	-0,184
417,858	3,5	-0,002
418,146	-2,5	-0,984
418,458	-12	-2,544
418,758	-23,5	-3,478
419,052	-24	-3,354
419,352	-8,5	-1,844
419,67	1	-0,254
419,958	3,5	-0,002
420,258	-1,5	-0,902
420,57	-11	-2,407
420,894	-24	-3,477
421,182	-24	-3,446
421,47	-9,5	-1,973
421,77	0	-0,473
422,058	3,5	-0,006
422,345	0	-0,58
422,645	-8	-2,075
422,945	-21	-3,409
423,263	-24	-3,499
423,575	-12	-2,155
423,882	-0,5	-0,626
424,187	3,5	-0,007
424,487	1	-0,52
424,775	-7,5	-1,955
425,075	-21	-3,367
425,375	-24	-3,498
425,687	-13,5	-2,254
425,999	-1	-0,749
426,287	3,5	-0,014
426,605	2	-0,412
426,899	-6,5	-1,883
427,199	-20	-3,331
427,487	-24	-3,498
427,781	-16,5	-2,539
428,081	-2,5	-1,04
428,375	3,5	-0,031
428,663	3,5	-0,133
428,981	-5	-1,644
429,282	-18,5	-3,231
429,587	-24	-3,497
429,905	-16,5	-2,622
430,199	-3	-1,152
430,487	3,5	-0,048
430,787	3,5	0
431,081	-4	-1,372
431,387	-15,5	-2,903
431,675	-24	-3,492
431,975	-21	-2,985
432,305	-4	-1,275
432,605	3,5	-0,06
432,923	3,5	0
433,229	-4,5	-1,448
433,517	-15	-2,893
433,805	-24	-3,492
434,105	-21	-3,006
434,393	-6	-1,565
434,681	1,5	-0,173
434,975	3,5	-0,002
435,281	-2	-0,99
435,587	-12	-2,515
435,893	-24	-3,478
436,181	-24	-3,354
436,481	-9	-1,843
436,775	0,5	-0,372
437,075	3,5	-0,003
437,363	0	-0,686
437,669	-9	-2,217
437,969	-23	-3,439
438,257	-24	-3,499
438,569	-11,5	-2,158
438,875	-0,5	-0,628
439,198	3,5	-0,005
439,493	0,5	-0,592
439,805	-9	-2,153
440,104	-22,5	-3,426
440,417	-24	-3,499
440,723	-12	-2,133
441,04	0	-0,544
441,328	3,5	-0,007
441,64	0,5	-0,62
441,94	-8	-2,12
442,271	-23	-3,449
442,558	-24	-3,499
442,858	-12	-2,154
443,146	-0,5	-0,709
443,434	4	-0,012
443,734	3	-0,37
444,04	-6	-1,902
481,958	4	-0,009
482,27	1	-0,548
482,57	-7,5	-2,048
482,87	-20,5	-3,424
483,194	-23,5	-3,499
483,494	-12,5	-2,238
483,794	-0,5	-0,739
484,094	4	-0,011
484,4	3	-0,457
484,718	-6,5	-2,048
485,006	-20,5	-3,378
485,294	-23,5	-3,498
485,594	-15,5	-2,468
485,894	-2	-0,968
486,194	4	-0,022
486,494	4	-0,184
486,782	-4,5	-1,629
487,082	-16,5	-3,129
487,37	-24	-3,496
487,682	-17,5	-2,693
487,97	-3,5	-1,253
488,27	3,5	-0,054
488,57	3,5	0
488,858	-3,5	-1,365
489,17	-14,5	-2,925
489,488	-23,5	-3,495
489,776	-21	-2,914
490,064	-5	-1,474
490,37	2,5	-0,097
490,658	4	-0,001
490,946	-3	-1,142
491,246	-12	-2,642
491,561	-23,5	-3,487
491,858	-23,5	-3,198
492,145	-7,5	-1,761
492,451	1	-0,241
492,776	4	-0,002
493,064	-2	-1,008
493,364	-11	-2,578
493,675	-23,5	-3,479
493,981	-23,5	-3,278
494,287	-7,5	-1,683
494,599	0,5	-0,207
494,887	4	-0,002
495,187	-1,5	-0,931
495,475	-9	-2,372
495,763	-22,5	-3,455
496,075	-23,5	-3,497
496,363	-10,5	-2,044
496,651	-0,5	-0,609
496,951	3,5	-0,007
497,239	3	-0,501
497,527	-6	-1,941
497,839	-19,5	-3,383
498,127	-23,5	-3,498
498,427	-14,5	-2,414
498,715	-2,5	-0,974
499,021	3,5	-0,014
499,333	3,5	-0,312
499,645	-6	-1,844
499,945	-19	-3,31
500,233	-23,5	-3,498
500,551	-15,5	-2,497
500,851	-2,5	-0,997
501,151	3,5	-0,025
501,439	3,5	-0,132
501,751	-5	-1,704
502,051	-17	-3,198
502,339	-24	-3,496
502,639	-18	-2,678
502,927	-3,5	-1,239
503,263	3,5	-0,03
503,551	4	-0,015
503,863	-4,5	-1,598
504,151	-15	-3,038
504,445	-23,5	-3,495
504,757	-19,5	-2,759
505,045	-4	-1,319
505,393	3,5	-0,032
505,681	3,5	-0,022
505,981	-4,5	-1,545
506,269	-15	-2,985
506,575	-23,5	-3,495
506,863	-21	-2,803
507,187	-4	-1,253
507,475	3,5	-0,05
507,781	3,5	0
508,087	-4	-1,432
508,375	-13,5	-2,867
508,687	-23,5	-3,493
508,975	-22	-2,978
509,293	-5	-1,388
509,599	2,5	-0,076
509,886	3,5	-0,001
510,204	-3,5	-1,399
510,493	-13,5	-2,838
510,78	-23,5	-3,49
511,08	-22,5	-3,097
511,369	-7	-1,656
511,668	1	-0,191
511,968	3,5	-0,002
512,262	-2	-1,003
512,562	-11	-2,504
512,862	-23	-3,475
513,162	-23,5	-3,321
513,45	-9	-1,873
513,738	0	-0,433
514,05	4	-0,004
514,338	0,5	-0,734
514,638	-8	-2,234
514,926	-22	-3,431
515,226	-23,5	-3,499
515,539	-10,5	-2,104
515,826	-0,5	-0,664
516,126	4	-0,009
516,414	3	-0,4
516,708	-6	-1,877
517,008	-19	-3,326
517,308	-23,5	-3,498
517,614	-15	-2,431
517,902	-2	-0,991
518,238	3,5	-0,014
518,526	3,5	-0,346
518,82	-5,5	-1,788
519,126	-18,5	-3,294
519,42	-23,5	-3,498
519,72	-15,5	-2,559
520,008	-3	-1,12
520,308	3,5	-0,036
520,62	4	-0,091
520,926	-4,5	-1,637
521,244	-17,5	-3,225
521,532	-23,5	-3,497
521,85	-16,5	-2,585
522,138	-3,5	-1,15
522,426	3,5	-0,032
522,738	4	0
523,026	-4	-1,414
523,314	-12,5	-2,854
523,614	-23,5	-3,492
523,92	-21,5	-3,009
524,214	-6	-1,538
524,502	1,5	-0,159
524,82	3,5	-0,001
525,126	-3	-1,175
525,414	-11,5	-2,61
525,708	-23	-3,48
525,996	-23,5	-3,355
526,284	-9	-1,905
526,584	0	-0,405
526,877	3,5	-0,004
527,178	1	-0,7
527,477	-8	-2,201
527,765	-21,5	-3,424
528,065	-23,5	-3,499
528,365	-12	-2,187
528,654	-1	-0,687
528,953	4	-0,012
529,241	3	-0,328
529,553	-5,5	-1,889
529,841	-19	-3,301
530,129	-23,5	-3,498
530,447	-15	-2,488
530,735	-3	-1,048
531,047	3,5	-0,024
531,335	4	-0,031
531,653	-4,5	-1,645
531,941	-16	-3,084
532,229	-23,5	-3,495
532,517	-21	-2,9
532,853	-4	-1,224
533,141	3	-0,06
533,441	4	0
533,747	-4	-1,471
534,035	-14	-2,911
534,335	-23,5	-3,493
534,641	-19,5	-2,898
534,929	-5	-1,458
535,229	2,5	-0,103
535,529	3,5	-0,001
535,817	-2,5	-1,194
536,117	-12	-2,694
536,405	-23	-3,483
536,717	-23,5	-3,151
537,005	-7	-1,71
537,293	1	-0,273
537,581	4	-0,003
537,893	-1	-0,883
538,181	-9	-2,322
538,481	-22,5	-3,457
538,787	-23,5	-3,5
539,075	-11	-2,068
539,375	0	-0,568
539,663	4	-0,008
539,951	3	-0,584
540,263	-6,5	-2,025
540,551	-19,5	-3,367
540,839	-23	-3,498
541,151	-14,5	-2,415
541,439	-1,5	-0,97
541,739	3,5	-0,022
542,027	3,5	-0,07
542,315	-4	-1,53
542,615	-15	-3,03
542,903	-23,5	-3,494
543,215	-20,5	-2,814
543,503	-4	-1,374
543,79	3	-0,095
544,103	4	-0,001
544,391	-3	-1,24
544,679	-12,5	-2,68
544,972	-23	-3,484
545,26	-23	-3,258
545,548	-8	-1,814
545,849	0,5	-0,314
546,136	4	-0,003
546,424	0	-0,723
546,724	-8	-2,223
547,012	-21	-3,429
547,313	-23,5	-3,499
547,606	-12	-2,215
547,894	-1	-0,775
548,182	4	-0,015
548,482	3	-0,336
548,782	-5,5	-1,838
549,07	-17,5	-3,266
549,37	-23,5	-3,498
549,658	-16,5	-2,653
549,97	-3	-1,092
550,258	3,5	-0,039
550,546	4	0
550,846	-3,5	-1,419
551,146	-14,5	-2,923
551,434	-23	-3,492
551,74	-21	-3,019
552,028	-6	-1,578
552,335	1,5	-0,136
552,622	3,5	-0,002
552,91	-1,5	-0,973
553,228	-10,5	-2,563
553,516	-22,5	-3,475
553,832	-23	-3,284
554,122	-8	-1,848
554,44	1,5	-0,262
554,728	4	-0,003
555,016	0	-0,78
555,304	-8	-2,22
555,604	-22	-3,442
555,892	-23	-3,499
556,234	-10,5	-2,028
667,923	-1,5	-0,904
668,212	3,5	-0,022
668,511	4	-0,126
668,818	-5	-1,667
669,105	-15,5	-3,107
669,393	-23	-3,495
669,693	-18	-2,819
669,987	-4	-1,349
670,287	3	-0,074
670,575	3,5	-0,001
670,863	-3	-1,2
671,175	-12,5	-2,76
671,464	-22,5	-3,487
671,751	-22,5	-3,24
672,063	-6,5	-1,676
672,369	1,5	-0,185
672,657	3,5	-0,002
672,957	-1,5	-0,919
673,245	-8,5	-2,358
673,551	-22,5	-3,465
673,851	-23	-3,48
674,139	-9,5	-2,014
674,427	0	-0,574
674,733	4	-0,006
675,021	1,5	-0,552
675,309	-6	-1,992
675,609	-19	-3,38
675,897	-23	-3,498
676,185	-14,5	-2,47
676,509	-1	-0,85
676,803	4	-0,017
677,091	3,5	-0,213
677,379	-4,5	-1,657
677,691	-17,5	-3,216
677,979	-23	-3,497
678,273	-16,5	-2,7
678,561	-4	-1,259
678,861	3	-0,056
679,161	3,5	0
679,449	-3,5	-1,373
679,737	-13	-2,813
680,025	-23	-3,491
680,337	-21,5	-3,068
680,625	-6	-1,627
680,925	1,5	-0,172
681,213	4	-0,002
681,519	-2	-0,996
681,819	-10	-2,486
682,119	-22,5	-3,474
682,419	-23	-3,3
682,719	-7,5	-1,789
683,007	0,5	-0,354
683,301	3,5	-0,003
683,589	-0,5	-0,734
683,877	-8	-2,174
684,177	-21	-3,431
684,464	-23	-3,499
684,752	-11,5	-2,23
685,065	-0,5	-0,676
685,352	3,5	-0,011
685,641	3	-0,402
685,953	-6	-1,963
686,24	-18,5	-3,342
686,528	-23	-3,498
686,829	-14	-2,488
687,128	-1,5	-0,994
687,416	3,5	-0,029
687,716	4	-0,09
688,004	-4	-1,548
688,298	-15	-3,018
688,598	-23	-3,495
688,898	-19	-2,868
689,186	-4,5	-1,428
689,486	2,5	-0,094
689,774	3,5	-0,001
690,074	-3	-1,17
690,374	-12	-2,67
690,662	-22,5	-3,482
690,95	-23	-3,36
691,262	-7,5	-1,788
691,55	0,5	-0,348
691,838	4	-0,004
692,138	0	-0,728
692,444	-8	-2,259
692,732	-21,5	-3,437
693,032	-23	-3,499
693,32	-11,5	-2,22
693,626	-0,5	-0,691
693,926	4	-0,01
694,226	2	-0,514
694,514	-6	-1,954
694,814	-19,5	-3,365
695,108	-23	-3,498
695,408	-13,5	-2,456
695,696	-2	-1,016
695,984	3,5	-0,031
696,284	4	-0,051
696,572	-4	-1,511
696,866	-13,5	-2,981
697,166	-23	-3,494
697,466	-19,5	-2,9
697,754	-4,5	-1,459
698,066	2,5	-0,086
698,354	4	-0,001
698,642	-2,5	-1,244
698,948	-12	-2,684
699,236	-22,5	-3,483
699,524	-23	-3,255
699,83	-7	-1,782
700,118	0,5	-0,342
700,418	4	-0,003
700,718	-0,5	-0,826
701,006	-7,5	-2,266
701,318	-22	-3,457
701,606	-22,5	-3,499
701,953	-7,5	-1,879
702,259	0,5	-0,349
702,548	3,5	-0,004
702,835	0	-0,724
703,141	-8	-2,26
703,43	-21,5	-3,436
703,729	-22,5	-3,499
704,017	-13	-2,235
704,311	-0,5	-0,765
704,611	4	-0,012
816,198	4	-0,015
816,499	3,5	-0,296
816,798	-5	-1,798
817,086	-17	-3,234
817,386	-22	-3,497
817,674	-15,5	-2,67
817,962	-2,5	-1,229
818,25	3,5	-0,061
818,544	4	-0,001
818,832	-3	-1,303
819,132	-12,5	-2,808
819,432	-22	-3,49
819,72	-20,5	-3,095
820,008	-5,5	-1,654
820,308	2	-0,189
820,596	4	-0,002
820,896	-1,5	-0,991
821,196	-9,5	-2,491
821,484	-21,5	-3,469
821,772	-22	-3,494
822,084	-8,5	-1,919
822,372	0,5	-0,479
822,66	4	-0,006
822,96	0,5	-0,608
823,266	-7	-2,138
823,566	-20,5	-3,424
823,866	-22	-3,499
824,154	-11,5	-2,27
824,459	0	-0,68
824,777	4	-0,008
825,077	3	-0,475
825,377	-5,5	-1,976
825,678	-18,5	-3,374
825,965	-22	-3,498
826,265	-12,5	-2,439
826,565	-1	-0,939
826,877	4	-0,017
827,165	3,5	-0,296
827,453	-4,5	-1,739
827,741	-16	-3,259
828,047	-22	-3,497
828,335	-16	-2,624
828,647	-2	-1,12
828,947	4	-0,036
829,253	4	-0,036
829,565	-4	-1,624
829,853	-14,5	-3,063
830,165	-22	-3,496
830,453	-17	-2,775
830,741	-3	-1,335
831,029	3,5	-0,058
831,341	4	-0,001
831,629	-2,5	-1,241
831,917	-10,5	-2,681
832,229	-22	-3,488
832,535	-20,5	-3,041
832,847	-4	-1,486
833,135	2,5	-0,135
833,423	4	-0,002
833,723	-2	-1,037
834,023	-10	-2,536
834,311	-21,5	-3,473
834,611	-22	-3,404
834,899	-7,5	-1,939
835,199	1	-0,384
835,499	4	-0,004
835,799	0	-0,697
836,099	-7,5	-2,197
836,399	-20,5	-3,438
836,687	-22	-3,499
836,987	-10,5	-2,238
837,275	-0,5	-0,798
837,575	4	-0,014
837,875	3	-0,348
838,163	-5	-1,789
838,463	-17,5	-3,274
838,763	-22	-3,498
839,051	-15	-2,614
839,351	-2	-1,115
839,651	3,5	-0,036
839,939	4	0
840,227	-3	-1,428
840,539	-14,5	-2,988
840,827	-22	-3,494
841,115	-19,5	-2,97
841,414	-4,5	-1,469
841,714	3	-0,107
842,003	4	-0,001
842,315	-2,5	-1,214
842,603	-11	-2,654
842,891	-22	-3,481
843,19	-22	-3,266
843,478	-6	-1,822
843,766	1	-0,382
844,078	4	-0,003
844,366	-0,5	-0,81
844,654	-7,5	-2,25
844,966	-21	-3,455
845,261	-22	-3,5
845,578	-8	-1,99
845,866	0	-0,556
846,166	4	-0,006
846,454	1,5	-0,568
846,754	-6	-2,069
847,06	-20	-3,414
847,348	-22	-3,499
847,636	-12,5	-2,365
847,936	-1	-0,865
848,224	4	-0,02
848,53	3,5	-0,271
848,83	-4,5	-1,774
849,118	-16,5	-3,213
849,406	-22	-3,497
849,7	-15	-2,704
850,012	-2,5	-1,144
850,312	4	-0,038
850,612	4	-0,012
850,9	-3,5	-1,468
851,2	-14	-2,968
851,5	-22	-3,494
851,788	-18,5	-2,924
852,082	-3,5	-1,453
852,382	3	-0,102
852,67	4	-0,001
852,964	-2,5	-1,108
853,276	-10,5	-2,668
853,564	-22	-3,482
853,852	-22	-3,289
854,164	-5,5	-1,724
854,464	1,5	-0,236
854,77	4	-0,002
855,058	-1,5	-0,893
855,346	-8,5	-2,333
855,646	-21	-3,457
855,952	-22	-3,486
856,24	-8	-2,02
856,54	0,5	-0,52
856,828	4	-0,006
857,116	3	-0,453
857,434	-6	-2,044
857,722	-18,5	-3,379
858,028	-22	-3,499
858,328	-12	-2,345
858,616	-1	-0,905
858,916	4	-0,019
859,215	4	-0,298
859,509	-5	-1,769
859,797	-16,5	-3,209
860,109	-22	-3,498
860,397	-14,5	-2,628
860,685	-2,5	-1,188
860,986	3,5	-0,044
861,274	4	0
861,561	-3	-1,338
861,873	-13,5	-2,898
862,162	-22	-3,492
862,449	-21,5	-3,066
862,737	-5	-1,625
863,031	1,5	-0,19
863,319	4	-0,002
863,607	-1,5	-0,876
863,895	-8	-2,317
864,207	-21	-3,463
864,495	-22	-3,5
864,783	-9	-2,033
865,083	0	-0,593
865,371	4	-0,008
865,659	2,5	-0,412
865,959	-5,5	-1,913
866,247	-15,5	-3,315
866,535	-22	-3,498
866,835	-14,5	-2,55
867,123	-2	-1,11
867,43	3,5	-0,032
867,741	3,5	-0,132
868,029	-4	-1,583
868,317	-15	-3,023
868,617	-22	-3,495
868,935	-18	-2,726
869,241	-2	-1,196
869,529	3,5	-0,055
869,817	4	-0,001
870,135	-3	-1,378
870,423	-12,5	-2,818
870,711	-22	-3,489
871,029	-20,5	-2,969
871,317	-4	-1,529
871,617	2,5	-0,128
871,917	4	-0,001
872,205	-2	-1,016
872,493	-9	-2,456
872,802	-21,5	-3,474
873,099	-22	-3,35
873,387	-7,5	-1,902
873,692	1	-0,372
873,981	4	-0,004
874,275	1	-0,621
874,563	-6,5	-2,056
874,863	-19,5	-3,402
875,151	-22	-3,499
875,439	-11,5	-2,359
875,739	-0,5	-0,859
876,027	4	-0,02
876,315	3,5	-0,125
876,627	-4,5	-1,696
876,915	-15	-3,136
877,203	-22	-3,496
877,491	-17,5	-2,818
877,802	-3	-1,248
878,096	3,5	-0,061
878,385	4	-0,001
878,684	-3	-1,278
878,972	-11	-2,718
879,26	-22	-3,484
879,578	-20,5	-3,107
879,866	-5,5	-1,666
880,154	1,5	-0,237
880,442	4	-0,002
880,754	-1	-0,926
881,042	-8,5	-2,372
881,33	-20,5	-3,455
881,642	-22	-3,462
881,93	-8,5	-2
882,218	0	-0,55
882,518	4	-0,006
882,806	1,5	-0,537
883,095	-5,5	-1,977
883,406	-19,5	-3,397
883,694	-22	-3,498
883,982	-12	-2,41
884,294	-0,5	-0,849
884,582	4	-0,019
884,87	4	-0,221
885,158	-4,5	-1,669
885,464	-16	-3,194
885,752	-22	-3,496
886,04	-19,5	-2,738
886,34	-2,5	-1,232
886,64	3,5	-0,051
886,928	4	-0,001
887,228	-3	-1,307
887,516	-12	-2,747
887,804	-22	-3,486
888,092	-22	-3,198
888,404	-5	-1,641
888,692	1,5	-0,216
888,98	4	-0,002
889,28	-1	-0,843
889,568	-7,5	-2,283
889,862	-21	-3,445
3187,382	-0,5	-1,378
3187,677	-4	-2,848
3187,965	-9	-3,49
3188,252	-8,5	-3,187
3188,54	-0,5	-1,744
3188,829	1,5	-0,305
3189,128	4	-0,003
3189,422	0	-0,817
3189,71	-2,5	-2,257
3189,998	-8	-3,436
3190,286	-9	-3,499
3190,574	-2,5	-2,356
3190,88	0,5	-0,821
3191,168	3,5	-0,018
3191,456	4	-0,191
3191,744	-1	-1,636
3192,032	-5	-3,076
3192,326	-9	-3,495
3192,614	-6	-2,912
3192,902	0	-1,472
3193,19	2,5	-0,13
3193,478	4	-0,002
3193,784	0	-1,117
3194,072	-3	-2,558
3194,36	-9	-3,475
3194,648	-9	-3,471
3194,936	-1,5	-2,004
3195,224	1	-0,564
3195,518	4	-0,007
3195,806	3	-0,471
3196,094	-1,5	-1,912
3196,382	-6	-3,314
3196,67	-9	-3,498
3196,97	-3,5	-2,621
3197,258	0	-1,18
3197,546	3	-0,052
3197,834	4	-0,001
3198,122	-0,5	-1,287
3198,422	-3,5	-2,786
3198,71	-9	-3,488
3198,998	-8,5	-3,212
3199,286	-0,5	-1,769
3199,574	1,5	-0,33
3199,862	4	-0,003
3200,156	0	-0,765
3200,444	-2	-2,205
3200,732	-8	-3,425
3201,02	-9	-3,499
3201,308	-2,5	-2,273
3201,608	0,5	-0,798
3201,896	4	-0,017
3202,184	3,5	-0,237
3202,472	-1	-1,68
3202,76	-5	-3,12
3203,048	-9	-3,496
3203,342	-5,5	-2,867
3203,63	0	-1,427
3203,918	2,5	-0,113
3204,206	4	-0,001
3204,494	0	-1,051
3204,806	-3	-2,612
3205,129	-9	-3,488
3205,418	-9	-3,235
3205,705	-0,5	-1,792
3205,993	1,5	-0,352
3206,294	4	-0,003
3206,593	0	-0,806
3206,881	-2	-2,247
3207,17	-8	-3,434
3207,457	-9	-3,499
3207,757	-2,5	-2,276
3208,045	0,5	-0,836
3208,333	4	-0,018
3208,621	4	-0,179
3208,909	-1	-1,627
3209,209	-5	-3,127
3209,497	-9	-3,496
3209,785	-5,5	-2,812
3210,073	0	-1,372
3210,361	3	-0,096
3210,649	4	-0,001
3210,697	4	-0,001