File: ensaios_Ciclicos/_20perc/_4gap/entrada/_4.txt
Time (s)	Load (N)	Displacement (mm)
329,063	3	-0,028
329,219	3,5	-0,002
329,363	3	-0,321
329,519	-3	-1,042
329,675	-6	-1,827
329,837	-13	-2,628
329,981	-21	-3,312
330,125	-25	-3,48
330,269	-25,5	-3,498
330,413	-25,5	-3,462
330,569	-19	-2,657
330,725	-10	-1,878
330,869	-4	-1,152
331,013	0	-0,432
331,175	3	-0,037
331,331	3,5	-0,003
331,475	3,5	-0,132
331,643	-2,5	-0,977
331,787	-5,5	-1,692
331,943	-12	-2,472
332,087	-19	-3,197
332,255	-25	-3,478
332,398	-25,5	-3,497
332,542	-25,5	-3,466
332,699	-18,5	-2,666
332,854	-10,5	-1,886
333,01	-3,5	-1,106
333,172	0	-0,296
333,335	3,5	-0,024
333,479	3,5	-0,002
333,635	3	-0,351
333,785	-3	-1,102
333,941	-7	-1,882
334,097	-14	-2,662
334,252	-21	-3,36
334,396	-25	-3,485
334,552	-25,5	-3,499
334,708	-24,5	-3,068
334,852	-15,5	-2,348
335,026	-6	-1,478
335,189	-1	-0,658
335,332	2	-0,1
335,488	3,5	-0,008
335,657	3	0
335,816	-1	-0,772
335,962	-4,5	-1,482
336,112	-9	-2,297
336,269	-17	-3,012
336,436	-24,5	-3,467
336,604	-25,5	-3,497
336,767	-25,5	-3,456
336,923	-18,5	-2,648
337,09	-9,5	-1,803
337,252	-3	-0,998
337,396	0	-0,28
337,552	3	-0,024
337,708	3,5	-0,002
337,87	3	-0,317
338,014	-2,5	-1,039
338,158	-6	-1,759
338,302	-12	-2,478
338,446	-19	-3,198
338,602	-25	-3,473
338,764	-25,5	-3,497
338,936	-25	-3,22
339,094	-16,5	-2,447
339,263	-7	-1,602
339,406	-2	-0,882
339,577	1,5	-0,136
339,719	3,5	-0,015
339,869	3,5	-0,001
340,012	2,5	-0,522
340,18	-3,5	-1,237
340,324	-7,5	-1,962
340,474	-13,5	-2,707
340,642	-23	-3,4
340,829	-25,5	-3,494
341,003	-25,5	-3,488
341,158	-19	-2,694
341,303	-10,5	-1,974
341,471	-3,5	-1,134
341,62	0	-0,379
341,777	3,5	-0,034
341,926	3,5	-0,004
342,082	3	-0,212
342,238	-2,5	-0,932
342,394	-5,5	-1,712
342,556	-11,5	-2,527
342,7	-19,5	-3,242
342,844	-24,5	-3,472
342,994	-25,5	-3,497
343,15	-25,5	-3,358
343,294	-19	-2,628
343,438	-10	-1,908
343,582	-4	-1,188
343,726	-0,5	-0,468
343,87	3	-0,054
344,026	3,5	-0,005
344,188	3,5	-0,047
344,332	-0,5	-0,799
344,494	-5	-1,609
344,65	-10,5	-2,389
344,794	-17,5	-3,109
344,938	-24,5	-3,458
345,1	-25,5	-3,496
345,274	-25,5	-3,365
345,43	-18	-2,575
345,574	-11	-1,85
345,736	-3	-1,04
345,892	0,5	-0,264
346,048	3,5	-0,023
346,192	3,5	-0,002
346,378	1,5	-0,439
346,522	-3,5	-1,159
346,666	-7	-1,879
346,846	-14,5	-2,784
346,99	-22	-3,402
347,146	-25,5	-3,489
347,29	-25,5	-3,499
347,464	-22,5	-2,985
347,626	-13,5	-2,175
347,77	-6	-1,455
347,914	-1,5	-0,735
348,058	2	-0,123
348,22	3,5	-0,01
348,364	3,5	-0,001
348,532	0,5	-0,624
348,676	-4	-1,399
348,832	-8,5	-2,124
348,994	-15,5	-2,939
349,15	-24	-3,44
349,318	-25,5	-3,495
349,462	-25,5	-3,5
349,606	-21	-2,883
349,768	-12	-2,072
349,924	-4,5	-1,292
350,079	0	-0,512
350,223	3	-0,062
350,368	3,5	-0,007
350,536	3	-0,019
350,68	-1	-0,768
350,83	-4,5	-1,518
350,974	-9	-2,358
351,142	-18	-3,078
351,31	-24,5	-3,468
351,478	-25,5	-3,497
351,634	-25,5	-3,456
351,778	-19	-2,708
351,921	-10,5	-1,988
352,065	-4,5	-1,208
352,221	0	-0,488
352,365	3	-0,056
352,509	3,5	-0,005
352,677	3,5	-0,023
352,852	-1,5	-0,916
353,007	-5,5	-1,696
353,175	-12	-2,536
353,326	-19,5	-3,272
353,469	-25	-3,475
353,613	-25,5	-3,497
353,769	-25,5	-3,419
353,913	-19,5	-2,677
354,057	-10,5	-1,956
354,201	-4	-1,237
354,375	0	-0,367
354,531	3	-0,033
354,675	3,5	-0,004
354,819	3	-0,048
354,969	-1	-0,825
355,143	-5,5	-1,696
355,287	-11	-2,416
355,438	-19	-3,166
355,581	-24,5	-3,464
355,725	-25,5	-3,496
355,881	-25,5	-3,496
356,025	-20	-2,765
356,181	-11	-1,985
356,325	-4,5	-1,265
356,469	0	-0,54
356,634	3	-0,052
356,775	3,5	-0,006
356,919	3,5	0
357,063	0	-0,646
357,237	-5	-1,516
357,381	-9,5	-2,236
357,538	-17	-3,021
357,681	-24	-3,444
357,831	-25,5	-3,494
357,987	-25,5	-3,499
358,137	-22	-2,956
358,287	-13,5	-2,205
358,431	-6	-1,485
358,587	-1	-0,705
358,761	3	-0,07
358,905	3,5	-0,008
359,074	3,5	0
359,217	0	-0,671
359,379	-4,5	-1,481
359,548	-10	-2,321
359,715	-18	-3,161
359,871	-24,5	-3,47
360,016	-25,5	-3,497
360,171	-25	-3,461
360,333	-19	-2,624
360,496	-8,5	-1,814
360,651	-3	-1,034
360,795	0	-0,314
360,958	3,5	-0,025
361,101	3,5	-0,002
361,281	2,5	-0,363
361,437	-3,5	-1,144
361,593	-6,5	-1,954
361,761	-14,5	-2,764
361,917	-22,5	-3,397
362,073	-25,5	-3,491
362,217	-25,5	-3,499
362,373	-23,5	-2,972
362,517	-13,5	-2,252
362,667	-6	-1,502
362,847	-0,5	-0,602
363,009	2,5	-0,062
363,153	3,5	-0,007
363,297	3,5	0
363,459	-0,5	-0,711
363,603	-4,5	-1,601
363,777	-10,5	-2,361
363,945	-18,5	-3,146
364,101	-25	-3,468
364,245	-25,5	-3,496
364,401	-25,5	-3,461
364,557	-18,5	-2,583
364,725	-9,5	-1,818
364,875	-3	-1,068
365,019	0	-0,289
365,175	3	-0,031
365,319	3,5	-0,002
365,481	3,5	-0,176
365,655	-2,5	-1,143
365,817	-7	-1,862
365,979	-14	-2,672
366,123	-21	-3,336
366,279	-25,5	-3,486
366,423	-25,5	-3,498
366,567	-25,5	-3,211
366,711	-17	-2,489
366,861	-8,5	-1,738
367,017	-2	-0,959
367,179	1,5	-0,186
367,334	3,5	-0,016
367,491	3	-0,001
405,924	1,5	-0,505
406,068	-3,5	-1,226
406,212	-7	-1,946
406,374	-14,5	-2,756
406,518	-22	-3,374
406,662	-25	-3,487
406,806	-25	-3,498
406,979	-24,5	-3,178
407,124	-16	-2,456
407,268	-8,5	-1,736
407,412	-2,5	-1,016
407,556	0,5	-0,296
407,712	3	-0,026
407,874	3,5	-0,002
408,018	3	-0,278
408,174	-3	-1,001
408,33	-6	-1,78
408,474	-12	-2,501
408,636	-20	-3,288
408,78	-24,5	-3,478
408,924	-25	-3,498
409,08	-25	-3,376
409,224	-18	-2,642
409,38	-9	-1,862
409,524	-3,5	-1,142
409,668	0	-0,422
409,83	3	-0,035
409,986	3	-0,003
410,13	3	-0,138
410,274	-2	-0,867
410,43	-5	-1,647
410,574	-10,5	-2,367
410,718	-17,5	-3,087
410,874	-24	-3,462
411,018	-25	-3,496
411,193	-25	-3,461
411,336	-18,5	-2,709
411,48	-10,5	-1,994
411,624	-4,5	-1,274
411,768	-0,5	-0,494
411,936	3	-0,048
412,08	3,5	-0,005
412,224	3	0
412,38	-1	-0,818
412,536	-5	-1,543
412,692	-9,5	-2,318
412,836	-17	-3,038
412,98	-24	-3,447
413,136	-25	-3,495
413,292	-25	-3,5
413,448	-20,5	-2,836
413,604	-11,5	-2,055
413,76	-4	-1,275
413,904	0	-0,556
414,048	2,5	-0,07
414,192	3,5	-0,008
414,336	3,5	-0,001
414,51	-0,5	-0,754
414,678	-5	-1,594
414,822	-10	-2,314
414,978	-17,5	-3,094
415,122	-24	-3,456
415,266	-25	-3,495
415,41	-25	-3,5
415,566	-21	-2,868
415,734	-10,5	-2,028
415,878	-4,5	-1,308
416,022	-0,5	-0,588
416,166	2,5	-0,078
416,34	3,5	-0,006
416,484	3	0
416,628	0	-0,704
416,778	-4,5	-1,424
416,922	-8,5	-2,144
417,078	-15,5	-2,924
417,24	-24	-3,443
417,384	-25	-3,494
417,528	-25	-3,499
417,672	-20	-2,891
417,816	-12	-2,11
417,972	-5,5	-1,39
418,116	-0,5	-0,671
418,272	2	-0,084
418,416	3	-0,009
418,572	3,5	-0,001
418,716	0,5	-0,56
418,872	-3,5	-1,34
419,028	-8	-2,12
419,184	-15	-2,9
419,328	-22,5	-3,419
419,484	-25	-3,492
419,64	-25	-3,499
419,795	-22	-3,016
419,94	-14	-2,29
420,084	-6,5	-1,575
420,228	-1,5	-0,855
420,383	1,5	-0,148
420,539	3,5	-0,011
420,707	3,5	-0,001
420,852	2,5	-0,538
420,996	-3,5	-1,314
421,151	-7,5	-2,034
421,295	-14,5	-2,758
421,445	-21,5	-3,386
421,59	-24,5	-3,488
421,757	-25	-3,499
421,914	-23	-3,08
422,057	-14,5	-2,364
422,22	-6	-1,554
422,375	-1	-0,774
422,525	1,5	-0,126
422,669	3,5	-0,014
422,813	3,5	-0,001
422,957	2	-0,409
423,113	-3,5	-1,19
423,275	-7,5	-2
423,419	-13,5	-2,72
423,563	-21	-3,359
423,731	-24,5	-3,49
423,875	-25	-3,499
424,037	-23	-3,05
424,181	-14	-2,33
424,325	-7	-1,61
424,481	-1,5	-0,83
424,637	1,5	-0,137
424,781	3,5	-0,015
424,925	3,5	-0,002
425,093	1,5	-0,456
425,249	-3	-1,237
425,394	-7	-1,957
425,537	-13,5	-2,677
425,681	-20,5	-3,338
425,855	-24,5	-3,489
425,999	-24,5	-3,499
426,143	-24,5	-3,16
426,311	-13,5	-2,319
426,455	-6	-1,599
426,611	-1,5	-0,819
426,755	1,5	-0,16
426,899	3,5	-0,017
427,067	3,5	-0,001
427,211	2,5	-0,437
427,355	-3,5	-1,157
427,499	-6,5	-1,877
427,643	-12,5	-2,597
427,793	-20,5	-3,312
427,937	-24,5	-3,48
428,081	-25	-3,498
428,237	-24,5	-3,178
428,405	-15	-2,406
428,549	-8	-1,686
428,693	-1,5	-0,967
428,837	1	-0,253
428,981	3	-0,027
429,149	3,5	-0,002
429,293	3	-0,284
429,437	-2,5	-1,006
429,581	-5,5	-1,726
429,731	-11,5	-2,482
429,875	-19	-3,196
430,031	-24	-3,473
430,187	-24,5	-3,497
430,332	-24,5	-3,5
430,499	-18	-2,671
430,643	-10	-1,95
430,793	-3	-1,201
430,937	0	-0,476
431,111	3	-0,035
431,255	3,5	-0,004
431,399	3,5	-0,048
431,543	-2	-0,852
431,699	-5	-1,572
431,861	-10,5	-2,382
432,005	-17,5	-3,102
432,173	-24,5	-3,47
432,317	-25	-3,496
432,461	-25	-3,488
432,605	-19,5	-2,748
432,749	-11	-2,028
432,905	-4	-1,208
433,067	0	-0,438
433,229	3	-0,037
433,373	3,5	-0,004
433,517	3,5	-0,109
433,691	-1,5	-0,996
433,847	-5	-1,711
433,991	-10,5	-2,431
434,135	-18	-3,152
434,291	-24,5	-3,469
434,441	-24,5	-3,497
434,585	-25	-3,5
434,771	-17,5	-2,638
434,921	-9,5	-1,918
435,065	-3,5	-1,198
435,209	0	-0,478
435,353	3	-0,056
435,509	3,5	-0,005
435,653	3,5	-0,042
435,797	-1	-0,785
435,941	-4,5	-1,505
436,085	-9	-2,225
436,253	-17,5	-3,065
436,415	-24	-3,464
436,559	-25	-3,496
436,703	-25	-3,5
436,847	-20,5	-2,85
437,003	-11,5	-2,07
437,159	-4	-1,29
437,303	-0,5	-0,57
437,447	2,5	-0,074
437,621	3,5	-0,005
437,764	3,5	-0,009
437,921	-1	-0,804
438,064	-4,5	-1,524
438,249	-11,5	-2,459
438,395	-18,5	-3,174
438,539	-24	-3,466
438,7	-25	-3,497
438,856	-25	-3,413
439,001	-18	-2,677
439,145	-10,5	-1,957
439,288	-4	-1,237
439,444	0	-0,457
439,612	3,5	-0,036
439,757	3,5	-0,004
439,9	3,5	-0,005
440,044	0	-0,738
440,188	-4	-1,459
440,344	-9	-2,239
440,488	-15	-2,959
440,632	-23,5	-3,433
440,776	-24,5	-3,492
440,92	-25	-3,499
441,064	-23	-3,022
441,22	-13	-2,241
441,376	-5	-1,461
441,533	-0,5	-0,681
441,676	2,5	-0,104
441,85	3,5	-0,007
442,012	3,5	-0,007
442,156	-0,5	-0,74
442,312	-5	-1,52
442,456	-9,5	-2,24
442,628	-16,5	-3,08
442,768	-23,5	-3,454
442,936	-24,5	-3,496
443,08	-24,5	-3,499
443,224	-19,5	-2,78
443,38	-10,5	-1,999
443,537	-3,5	-1,219
518,742	-3	-1,192
518,886	-6,5	-1,912
519,042	-12,5	-2,692
519,204	-21	-3,383
519,348	-24,5	-3,488
519,492	-24,5	-3,498
519,636	-24	-3,19
519,786	-14,5	-2,438
519,93	-7	-1,718
520,074	-2	-0,998
520,236	1	-0,21
520,392	3,5	-0,019
520,536	3,5	-0,002
520,68	3	-0,284
520,824	-2,5	-1,006
520,968	-5,5	-1,786
521,136	-11,5	-2,566
521,28	-19	-3,272
521,424	-24	-3,475
521,58	-24,5	-3,498
521,742	-24,5	-3,342
521,886	-16	-2,613
522,03	-8,5	-1,893
522,174	-3	-1,173
522,33	0	-0,393
522,474	3,5	-0,035
522,642	3,5	-0,003
522,786	3	-0,131
522,93	-1,5	-0,86
523,074	-4,5	-1,58
523,248	-11	-2,45
523,392	-18	-3,171
523,536	-24	-3,465
523,698	-24,5	-3,497
523,842	-24,5	-3,438
523,992	-17	-2,662
524,136	-9,5	-1,942
524,28	-3,5	-1,222
524,424	0	-0,502
524,568	3	-0,06
524,73	3,5	-0,005
524,873	3,5	-0,002
525,018	-0,5	-0,726
525,162	-4	-1,446
525,306	-8,5	-2,166
525,449	-15	-2,885
525,605	-23	-3,429
525,773	-24,5	-3,494
525,917	-24,5	-3,499
526,062	-20,5	-2,898
526,214	-11,5	-2,148
526,356	-5	-1,428
526,499	-0,5	-0,708
526,643	2	-0,113
526,799	3,5	-0,01
526,955	3,5	-0,001
527,111	0	-0,654
527,268	-4,5	-1,434
527,412	-8,5	-2,214
527,567	-15	-2,938
527,711	-22,5	-3,427
527,855	-24,5	-3,492
527,999	-24,5	-3,499
528,155	-21,5	-2,991
528,311	-12	-2,21
528,455	-5	-1,49
528,599	-1	-0,77
528,743	0,5	-0,137
528,887	3,5	-0,015
529,055	3,5	-0,001
529,199	2	-0,492
529,343	-3	-1,213
529,487	-6,5	-1,933
529,631	-12,5	-2,653
529,793	-21	-3,368
529,937	-24	-3,486
530,093	-24,5	-3,499
530,237	-24	-3,467
530,381	-17	-2,658
530,537	-9,5	-1,938
530,681	-3,5	-1,218
530,825	0	-0,498
530,969	3	-0,054
531,119	3,5	-0,005
531,293	3,5	-0,091
531,437	-1	-0,826
531,605	-4,5	-1,666
531,761	-10,5	-2,446
531,905	-18	-3,166
532,049	-24	-3,464
532,193	-24	-3,496
532,337	-24	-3,5
532,481	-21,5	-2,784
532,637	-10,5	-2,064
532,781	-5	-1,344
532,925	0	-0,624
533,069	2,5	-0,087
533,213	3,5	-0,01
533,381	3,5	0
533,525	0	-0,65
533,669	-3,5	-1,37
533,831	-8,5	-2,18
533,975	-15	-2,9
534,119	-22	-3,419
534,263	-24,5	-3,491
534,407	-24,5	-3,499
534,551	-23,5	-3,135
534,719	-13,5	-2,294
534,863	-6	-1,574
535,007	-1	-0,854
535,151	1,5	-0,175
535,295	3,5	-0,019
535,439	3,5	-0,002
535,595	2,5	-0,36
535,739	-2,5	-1,081
535,883	-5,5	-1,801
536,045	-12,5	-2,611
536,201	-18,5	-3,336
536,345	-24	-3,483
536,489	-24,5	-3,498
536,633	-24	-3,343
536,789	-15,5	-2,555
536,957	-7	-1,715
537,101	-2	-0,995
537,245	1	-0,277
537,389	3,5	-0,03
537,533	3,5	-0,003
537,701	3,5	-0,234
537,845	-2,5	-0,958
537,989	-5,5	-1,678
538,133	-10	-2,398
538,277	-17	-3,118
538,433	-24	-3,466
538,577	-24,5	-3,496
538,721	-24	-3,413
538,883	-18	-2,67
539,027	-9	-1,949
539,171	-3	-1,23
539,327	0	-0,45
539,471	3	-0,051
539,615	3,5	-0,006
539,759	3,5	-0,003
539,915	-1	-0,792
540,089	-5,5	-1,662
540,233	-10	-2,382
540,394	-15,5	-3,192
540,539	-23,5	-3,472
540,695	-24,5	-3,497
540,839	-24	-3,383
540,983	-17,5	-2,65
541,127	-9	-1,93
541,277	-3	-1,18
541,433	0	-0,4
541,577	3	-0,043
541,727	3,5	-0,004
541,871	3,5	-0,072
542,027	-1	-0,872
542,195	-5,5	-1,718
542,338	-10,5	-2,432
542,483	-17	-3,153
542,626	-24	-3,463
542,783	-24,5	-3,496
542,927	-24,5	-3,482
543,07	-18	-2,741
543,214	-10	-2,021
543,359	-4	-1,296
543,502	0	-0,516
543,658	3	-0,063
543,802	3,5	-0,007
543,947	3,5	0
544,09	0	-0,623
544,234	-3,5	-1,338
544,405	-8	-2,183
544,546	-15	-2,908
544,69	-20,5	-3,42
544,834	-24	-3,491
544,978	-24	-3,499
545,122	-24,5	-3,093
545,278	-13,5	-2,312
545,422	-6	-1,592
545,566	-1	-0,842
545,716	1,5	-0,171
545,86	3,5	-0,018
546,011	3,5	-0,002
546,155	3	-0,32
546,298	-2,5	-1,042
546,442	-5,5	-1,762
546,586	-11	-2,482
546,73	-18	-3,202
546,904	-23,5	-3,48
547,048	-24,5	-3,498
547,192	-24	-3,323
547,336	-16,5	-2,597
547,48	-9	-1,877
547,636	-2,5	-1,097
547,792	0,5	-0,317
547,937	3,5	-0,033
548,08	3,5	-0,004
548,224	3,5	-0,048
548,38	-1	-0,85
548,524	-5	-1,571
548,668	-9,5	-2,291
548,818	-16	-3,041
548,962	-23,5	-3,458
549,118	-24,5	-3,495
549,262	-24,5	-3,499
549,406	-22,5	-2,896
549,55	-11,5	-2,176
549,694	-5	-1,456
549,838	-1	-0,736
549,994	2	-0,102
550,138	3,5	-0,011
550,282	3,5	-0,001
550,438	1	-0,533
550,582	-3	-1,254
550,732	-7	-2,004
550,876	-13	-2,724
551,02	-18	-3,36
551,164	-24	-3,485
551,308	-24	-3,498
551,464	-23,5	-3,192
551,608	-15	-2,465
551,752	-7	-1,75
551,896	-2,5	-1,029
552,04	0,5	-0,31
552,19	3,5	-0,03
552,346	3,5	-0,003
552,49	3	-0,158
552,634	-1,5	-0,886
552,778	-4,5	-1,606
552,934	-10	-2,386
553,078	-18	-3,166
553,234	-23,5	-3,465
553,378	-24,5	-3,496
553,522	-24,5	-3,488
553,666	-17,5	-2,75
553,81	-10	-2,029
553,966	-3	-1,249
554,11	0	-0,529
554,272	3	-0,049
554,416	3,5	-0,006
554,56	3,5	0
554,716	-0,5	-0,742
554,86	-4	-1,462
555,004	-9	-2,182
555,148	-15	-2,902
555,292	-21,5	-3,42
555,436	-24,5	-3,491
555,61	-24,5	-3,5
555,754	-20	-2,879
667,09	-15	-3,091
667,234	-22,5	-3,457
667,377	-24	-3,495
667,533	-24	-3,5
667,678	-18,5	-2,791
667,821	-10	-2,072
667,965	-4	-1,356
668,121	0	-0,576
668,272	3	-0,067
668,415	3,5	-0,008
668,559	3,5	0
668,703	0	-0,662
668,847	-3	-1,382
669,004	-7	-2,162
669,147	-13,5	-2,876
669,303	-21,5	-3,428
669,447	-24	-3,492
669,591	-24	-3,499
669,735	-22,5	-3,024
669,891	-12,5	-2,238
670,035	-5,5	-1,523
670,18	-0,5	-0,798
670,323	1,5	-0,15
670,467	3,5	-0,016
670,611	3,5	-0,002
670,755	2,5	-0,453
670,911	-2	-1,174
671,067	-5,5	-1,954
671,211	-11	-2,669
671,355	-19,5	-3,34
671,499	-23,5	-3,483
671,649	-24	-3,498
671,793	-24	-3,274
671,937	-15,5	-2,549
672,081	-7,5	-1,834
672,231	-2,5	-1,084
672,387	0,5	-0,294
672,531	3,5	-0,032
672,675	3,5	-0,004
672,819	3,5	-0,159
672,981	-1,5	-0,971
673,125	-4,5	-1,696
673,281	-10	-2,476
673,425	-16,5	-3,196
673,569	-23	-3,468
673,719	-24	-3,496
673,863	-24	-3,48
674,007	-18	-2,732
674,163	-9	-1,952
674,307	-3,5	-1,232
674,451	0	-0,512
674,595	2,5	-0,062
674,739	3,5	-0,006
674,895	3,5	-0,003
675,051	0	-0,784
675,195	-3,5	-1,51
675,339	-8	-2,229
675,483	-14,5	-2,949
675,627	-21,5	-3,432
675,771	-24	-3,492
675,927	-24	-3,499
676,071	-20,5	-2,896
676,215	-12	-2,175
676,359	-4,5	-1,455
676,503	-0,5	-0,735
676,647	1,5	-0,123
676,815	3,5	-0,01
676,959	3,5	-0,001
677,103	2	-0,501
677,247	-2,5	-1,221
677,391	-5,5	-1,941
677,559	-13	-2,781
677,703	-20	-3,383
677,847	-23,5	-3,488
678,009	-24	-3,499
678,153	-23,5	-3,11
678,309	-13,5	-2,268
678,465	-5,5	-1,549
678,609	-1,5	-0,829
678,753	1,5	-0,164
678,897	3,5	-0,017
679,041	3,5	-0,002
679,203	3	-0,372
679,347	-2	-1,093
679,491	-5	-1,813
679,635	-10	-2,538
679,779	-18	-3,247
679,923	-23,5	-3,477
680,079	-23,5	-3,497
680,235	-24	-3,317
680,379	-15,5	-2,5
680,541	-7	-1,779
680,691	-2,5	-1,029
680,835	0,5	-0,309
680,979	3,5	-0,033
681,123	3,5	-0,004
681,267	3,5	-0,091
681,429	-1,5	-0,918
681,597	-5	-1,758
681,741	-10	-2,478
681,885	-17	-3,198
682,029	-22,5	-3,468
682,173	-24	-3,497
682,328	-24	-3,456
682,473	-18,5	-2,71
682,617	-9	-1,99
682,778	-3	-1,18
682,922	0	-0,46
683,067	3	-0,044
683,234	3,5	-0,004
683,378	3,5	-0,144
683,523	-1	-0,948
683,678	-4,5	-1,653
683,834	-9	-2,433
683,991	-16,5	-3,217
684,134	-22,5	-3,469
684,278	-23,5	-3,496
684,422	-24	-3,494
684,578	-17	-2,696
684,722	-9	-1,976
684,866	-3,5	-1,257
685,01	0	-0,537
685,172	3	-0,05
685,328	3,5	-0,005
685,473	3,5	-0,056
685,616	-0,5	-0,8
685,766	-4	-1,551
685,923	-8,5	-2,335
686,066	-15	-3,05
686,222	-22,5	-3,458
686,367	-24	-3,495
686,51	-24	-3,5
686,654	-20	-2,832
686,81	-10,5	-2,052
686,954	-4,5	-1,332
687,11	0	-0,552
687,271	3	-0,052
687,416	3,5	-0,006
687,56	3,5	-0,001
687,716	0	-0,779
687,86	-3,5	-1,499
688,004	-7,5	-2,22
688,166	-15	-3,029
688,31	-21,5	-3,446
688,454	-23,5	-3,494
688,61	-23,5	-3,499
688,754	-22	-2,902
688,898	-11	-2,182
689,043	-4,5	-1,462
689,186	-0,5	-0,742
689,33	2	-0,125
689,498	3,5	-0,009
689,642	3,5	-0,001
689,786	2	-0,522
689,93	-2,5	-1,242
690,074	-5,5	-1,962
690,218	-12	-2,687
690,374	-19	-3,368
690,518	-23,5	-3,486
690,662	-23,5	-3,498
690,806	-23,5	-3,234
690,95	-15	-2,512
691,094	-7,5	-1,792
691,256	-1,5	-0,982
691,4	1	-0,266
691,544	3,5	-0,029
691,688	3,5	-0,003
691,832	3,5	-0,196
691,976	-1,5	-0,92
692,132	-4,5	-1,7
692,276	-9,5	-2,42
692,42	-16	-3,14
692,564	-22,5	-3,462
692,72	-23,5	-3,496
692,864	-23,5	-3,499
693,02	-17,5	-2,72
693,164	-9,5	-2
693,308	-3,5	-1,28
693,452	0	-0,56
693,596	3	-0,071
693,764	4	-0,006
693,908	3,5	0
694,052	0,5	-0,703
694,196	-3,5	-1,424
694,34	-7	-2,144
694,484	-13	-2,864
694,64	-21,5	-3,425
694,784	-23,5	-3,492
694,946	-23,5	-3,499
695,108	-20	-2,875
695,252	-10,5	-2,095
695,408	-4	-1,375
695,552	0	-0,65
695,696	2,5	-0,096
695,84	3,5	-0,01
695,996	3,5	-0,001
696,15	1,5	-0,602
696,296	-3	-1,322
696,44	-6,5	-2,042
696,584	-12	-2,762
696,728	-19,5	-3,376
696,872	-23	-3,487
697,022	-23,5	-3,499
697,184	-22,5	-3,087
697,34	-12,5	-2,306
697,484	-5,5	-1,586
697,628	-1,5	-0,802
697,79	1,5	-0,14
697,934	3,5	-0,015
698,078	3,5	-0,002
698,222	3	-0,388
698,366	-2	-1,109
698,54	-6	-1,979
698,684	-11,5	-2,699
698,828	-19	-3,349
698,972	-23	-3,484
699,116	-23,5	-3,498
699,278	-23	-3,164
699,422	-14,5	-2,448
699,566	-7	-1,728
699,722	-1,5	-0,948
699,866	1	-0,235
700,01	3,5	-0,026
700,165	3,5	-0,002
700,31	3,5	-0,234
700,465	-1,5	-1,018
700,61	-4,5	-1,738
700,754	-9	-2,458
700,921	-18	-3,28
701,066	-23	-3,476
701,209	-23,5	-3,497
701,354	-23,5	-3,37
701,497	-16	-2,638
701,653	-8,5	-1,858
701,798	-2,5	-1,138
701,941	0	-0,418
702,086	3,5	-0,046
702,229	3,5	-0,005
702,373	3,5	-0,004
702,517	0	-0,826
702,679	-4	-1,546
702,823	-8	-2,266
702,968	-14,5	-2,986
703,111	-21,5	-3,438
703,255	-23,5	-3,493
703,399	-23,5	-3,499
703,555	-20	-2,939
703,699	-11,5	-2,218
703,855	-4,5	-1,438
703,999	-0,5	-0,718
704,143	2	-0,115
704,299	3,5	-0,011
704,455	3,5	-0,001
704,599	1,5	-0,528
704,743	-2,5	-1,248
704,887	-5,5	-1,969
705,043	-12	-2,748
705,187	-19,5	-3,371
705,343	-23,5	-3,488
705,487	-23,5	-3,499
705,631	-23,5	-3,172
705,787	-14	-2,39
705,943	-5,5	-1,605
706,087	-1	-0,89
706,231	1	-0,199
706,375	3,5	-0,021
706,543	3,5	-0,002
706,687	3	-0,404
706,831	-2	-1,125
706,975	-5,5	-1,845
707,167	-12,5	-2,805
707,311	-19,5	-3,392
707,455	-23,5	-3,488
707,599	-23,5	-3,498
707,767	-22	-3,029
707,913	-13	-2,308
708,055	-5,5	-1,588
708,199	-1	-0,868
708,343	1,5	-0,154
708,517	3,5	-0,013
708,661	3,5	-0,001
708,805	3	-0,372
708,949	-2	-1,093
709,094	-5	-1,813
709,249	-10	-2,593
709,393	-17,5	-3,29
709,537	-23	-3,477
709,693	-23,5	-3,498
709,873	-23	-3,078
710,017	-13	-2,358
710,161	-6	-1,638
710,305	-1,5	-0,918
710,449	1	-0,217
710,593	3,5	-0,023
710,761	3,5	-0,002
710,905	3	-0,329
711,049	-1,5	-1,05
711,193	-4,5	-1,77
711,337	-10	-2,495
711,481	-16,5	-3,21
711,637	-23	-3,474
711,781	-23,5	-3,497
711,937	-23,5	-3,31
712,081	-15,5	-2,584
712,225	-8	-1,865
712,381	-2	-1,085
712,525	0,5	-0,364
712,681	3,5	-0,033
712,825	3,5	-0,004
712,969	3,5	-0,042
713,113	0	-0,791
713,269	-3,5	-1,571
713,419	-8,5	-2,322
713,563	-15	-3,047
713,707	-22	-3,448
713,851	-23,5	-3,494
714,007	-23,5	-3,5
714,151	-19	-2,799
714,295	-9,5	-2,078
714,451	-4	-1,298
714,595	0	-0,578
714,751	1,5	-0,063
714,895	3,5	-0,007
715,039	3,5	0
715,183	1	-0,592
715,327	-3	-1,337
715,477	-6,5	-2,062
715,633	-12,5	-2,842
715,777	-20,5	-3,403
715,921	-23,5	-3,49
716,065	-23,5	-3,499
716,209	-23,5	-3,11
716,353	-14,5	-2,39
716,497	-6	-1,53
716,665	-1	-0,83
716,809	1,5	-0,165
716,953	3,5	-0,017
717,097	3,5	-0,002
717,241	3	-0,328
717,396	-2	-1,104
717,54	-5,5	-1,824
717,685	-10,5	-2,574
717,835	-18	-3,277
717,996	-23,5	-3,482
718,152	-23,5	-3,498
718,297	-23,5	-3,292
718,44	-15,5	-2,568
718,585	-8	-1,848
718,728	-2,5	-1,128
718,872	0	-0,408
719,016	3	-0,037
719,172	3,5	-0,004
719,328	3,5	-0,132
719,472	-0,5	-0,862
719,616	-4	-1,582
719,76	-8	-2,302
719,917	-14,5	-3,087
720,06	-22,5	-3,454
720,204	-23,5	-3,494
720,348	-23,5	-3,5
720,51	-18,5	-2,764
720,654	-9,5	-1,984
720,81	-3,5	-1,264
720,954	0	-0,544
721,099	3	-0,068
721,242	3,5	-0,008
721,386	3,5	0
721,56	-0,5	-0,776
721,71	-3,5	-1,526
721,854	-8	-2,246
721,998	-14,5	-2,966
722,142	-21,5	-3,434
722,286	-23,5	-3,493
722,43	-23,5	-3,499
722,58	-20,5	-2,936
722,741	-10,5	-2,126
722,886	-4,5	-1,406
723,03	-0,5	-0,686
723,174	2,5	-0,106
723,33	4	-0,01
723,474	3,5	-0,001
723,618	1,5	-0,533
723,762	-3	-1,253
723,906	-5,5	-1,973
724,05	-11	-2,692
724,195	-19,5	-3,346
724,35	-23	-3,486
724,494	-23,5	-3,498
724,638	-23,5	-3,196
724,794	-13,5	-2,414
724,938	-6	-1,688
725,082	-1,5	-0,974
725,232	1	-0,236
725,376	3,5	-0,025
725,52	3,5	-0,003
725,664	3,5	-0,212
725,808	-1,5	-0,936
725,981	-5	-1,807
726,126	-9,5	-2,527
726,27	-16,5	-3,242
726,414	-23	-3,472
726,559	-23,5	-3,497
726,702	-23,5	-3,491
726,846	-18	-2,755
726,99	-10	-2,035
727,154	-3	-1,225
727,296	0	-0,505
727,44	3	-0,06
727,585	3,5	-0,007
727,728	3,5	0
727,884	0,5	-0,673
728,028	-3	-1,393
728,178	-7	-2,143
728,322	-13	-2,863
728,466	-20,5	-3,41
728,61	-23	-3,49
728,766	-23,5	-3,499
728,922	-20,5	-2,944
729,066	-12	-2,225
729,225	-4,5	-1,444
729,378	0	-0,664
729,522	2,5	-0,099
729,666	3,5	-0,011
729,81	3,5	-0,001
729,954	1,5	-0,505
730,098	-2,5	-1,225
730,242	-6	-2,005
730,398	-12	-2,725
730,542	-19	-3,361
730,686	-23	-3,485
730,836	-23,5	-3,498
730,98	-23,5	-3,253
731,136	-14	-2,47
731,28	-6,5	-1,749
731,424	-2	-1,029
731,574	1	-0,281
731,718	3,5	-0,019
731,91	3,5	-0,001
732,054	3	-0,389
732,198	-2	-1,11
732,342	-5	-1,83
732,498	-11	-2,61
732,642	-18	-3,301
732,798	-23	-3,482
732,942	-23,5	-3,498
733,086	-23,5	-3,328
733,23	-16	-2,601
733,386	-8,5	-1,82
733,53	-2,5	-1,101
733,674	0,5	-0,366
733,818	3,5	-0,041
733,974	3,5	-0,004
734,13	3,5	-0,19
734,274	-1,5	-0,915
734,418	-4	-1,635
734,562	-8,5	-2,355
734,706	-15	-3,075
734,85	-22	-3,453
734,993	-23,5	-3,495
735,149	-23,5	-3,5
735,294	-18	-2,808
735,438	-10	-2,088
735,599	-3	-1,277
735,744	0	-0,563
735,888	3	-0,06
736,043	3,5	-0,006
736,187	3,5	0
736,331	1,5	-0,62
736,476	-3	-1,341
736,619	-6	-2,061
736,763	-12	-2,781
736,908	-19,5	-3,403
737,076	-23,5	-3,491
737,219	-23,5	-3,499
737,375	-21	-3,024
737,519	-12,5	-2,304
737,675	-5	-1,509
737,819	-0,5	-0,804
737,963	2	-0,124
738,119	3,5	-0,014
738,263	3,5	-0,001
738,407	3	-0,404
738,563	-2,5	-1,184
738,707	-5,5	-1,904
738,851	-10,5	-2,624
738,995	-18,5	-3,31
739,139	-23	-3,48
739,307	-23,5	-3,498
739,451	-23,5	-3,212
739,595	-14,5	-2,489
739,739	-7	-1,769
739,883	-2	-1,049
740,027	0,5	-0,329
740,183	3,5	-0,029
740,327	3,5	-0,003
740,471	3,5	-0,158
740,616	-1,5	-0,89
740,759	-4	-1,605
740,903	-8	-2,325
741,047	-14,5	-3,045
3150,395	3,5	-0,033
3150,539	4	-0,004
3150,684	4	-0,116
3150,846	0	-0,938
3151,001	-1	-1,718
3151,145	-3	-2,438
3151,289	-6	-3,158
3151,433	-10	-3,464
3151,577	-11	-3,496
3151,722	-11	-3,5
3151,865	-6,5	-2,817
3152,009	-2,5	-2,096
3152,165	0	-1,316
3152,309	1	-0,601
3152,453	3	-0,08
3152,598	3,5	-0,009
3152,741	3,5	-0,001
3152,885	1,5	-0,573
3153,029	-0,5	-1,294
3153,173	-1,5	-2,014
3153,317	-3,5	-2,733
3153,461	-8	-3,364
3153,618	-11	-3,488
3153,761	-11	-3,498
3153,905	-10,5	-3,171
3154,049	-4	-2,449
3154,193	-1	-1,729
3154,337	0	-1,009
3154,481	1,5	-0,29
3154,625	3,5	-0,031
3154,769	3,5	-0,003
3154,913	3,5	-0,096
3155,057	0,5	-0,868
3155,207	-1	-1,588
3155,352	-2,5	-2,308
3155,495	-5	-3,028
3155,639	-10	-3,446
3155,783	-11	-3,494
3155,927	-11	-3,499
3156,071	-7,5	-2,872
3156,215	-3	-2,151
3156,359	0	-1,431
3156,515	0,5	-0,652
3156,659	3	-0,095
3156,803	3,5	-0,01
3156,947	4	-0,001
3157,091	3	-0,471
3157,235	0	-1,196
3157,379	-1,5	-1,911
3157,523	-3,5	-2,632
3157,673	-7	-3,33
3157,817	-10,5	-3,482
3157,961	-11	-3,498
3158,105	-11	-3,285
3158,261	-4	-2,5
3158,405	-1	-1,781
3158,549	0	-1,061
3158,693	1,5	-0,341
3158,837	3,5	-0,036
3158,981	4	-0,004
3159,125	4	-0,032
3159,269	0,5	-0,776
3159,413	-0,5	-1,497
3159,557	-2	-2,217
3159,701	-5	-2,937
3159,851	-9,5	-3,434
3159,995	-11	-3,492
3160,139	-11	-3,499
3160,283	-9,5	-2,971
3160,427	-3	-2,251
3160,571	-0,5	-1,53
3160,715	0,5	-0,81
3160,859	2	-0,153
3161,003	3,5	-0,016
3161,147	3,5	-0,002
3161,303	3	-0,366
3161,447	0	-1,087
3161,591	-1	-1,807
3161,735	-3	-2,527
3161,879	-6,5	-3,242
3162,023	-10,5	-3,472
3162,167	-11	-3,497
3162,311	-11	-3,439
3162,455	-6	-2,696
3162,599	-1,5	-1,975
3162,743	0	-1,256
3162,899	1	-0,476
3163,043	3	-0,055
3163,187	4	-0,006
3163,331	3,5	0
3163,475	1,5	-0,684
3163,619	-0,5	-1,404
3163,763	-2	-2,124
3163,907	-4	-2,844
3164,051	-8,5	-3,404
3164,195	-10,5	-3,49
3164,339	-11	-3,499
3164,489	-9,5	-2,999
3164,633	-3	-2,278
3164,777	-0,5	-1,558
3164,921	0,5	-0,839
3165,065	2	-0,17
3165,209	3,5	-0,018
3165,353	4	-0,002
3165,497	4	-0,281
3165,641	0	-1,003
3165,785	-1	-1,723
3165,929	-3	-2,503
3166,085	-6	-3,221
3166,229	-10,5	-3,47
3166,373	-11	-3,496
3166,535	-10,5	-3,241
3166,679	-4	-2,517
3166,823	-1	-1,797
3166,967	0	-1,077
3167,111	1,5	-0,358
3167,273	3,5	-0,029
3167,417	3,5	-0,003
3167,561	3,5	-0,115
3167,704	0	-0,845
3167,849	-1	-1,565
3167,993	-2,5	-2,29
3168,137	-5	-3,005
3168,28	-9,5	-3,442
3168,424	-11	-3,493
3168,568	-11	-3,499
3168,712	-8	-2,9
3168,869	-2,5	-2,119
3169,013	0	-1,399
3169,156	0,5	-0,679
3169,3	3	-0,103
3169,444	4	-0,011
3169,594	3,5	-0,001
3169,738	2	-0,493
3169,883	-0,5	-1,214
3170,027	-1,5	-1,934
3170,17	-3,5	-2,654
3170,326	-7,5	-3,356
3170,47	-10,5	-3,484
3170,614	-11	-3,498
3170,758	-10,5	-3,248
3170,903	-4	-2,524
3171,046	-1	-1,804
3171,19	0	-1,084
3171,334	1,5	-0,365
3171,478	3,5	-0,039
3171,623	4	-0,004
3171,766	3,5	-0,1
3171,922	0	-0,838
3172,066	-0,5	-1,558
3172,21	-2	-2,278
3172,354	-4,5	-2,998
3172,498	-9,5	-3,44
3172,642	-10,5	-3,493
3172,786	-10,5	-3,499
3172,93	-8,5	-2,943
3173,074	-3	-2,223
3173,218	0	-1,503
3173,362	0,5	-0,783
3173,512	2	-0,13
3173,656	4	-0,014
3173,8	3,5	-0,002
3173,944	3	-0,379
3174,088	0	-1,1
3174,232	-1	-1,82
3174,376	-3	-2,54
3174,52	-6	-3,252
3174,664	-10,5	-3,473
3174,808	-10,5	-3,497
3174,964	-10,5	-3,342
3175,108	-5	-2,613
3175,252	-1,5	-1,893
3175,396	0	-1,173
3175,54	1,5	-0,452
3175,684	3,5	-0,052
3175,828	4	-0,006
3175,972	3,5	0
3176,116	1	-0,702
3176,26	-0,5	-1,423
3176,404	-2	-2,133
3176,572	-5	-2,988
3176,716	-9	-3,438
3176,86	-10,5	-3,493
3177,004	-10,5	-3,499
3177,148	-8,5	-2,954
3177,292	-3	-2,234
3177,436	-0,5	-1,514
3177,58	0,5	-0,794
3177,724	2	-0,148
3177,868	3,5	-0,016
3178,024	3,5	-0,001
3178,168	2,5	-0,468
3178,312	0	-1,188
3178,456	-1	-1,908
3178,6	-3,5	-2,628
3178,744	-7	-3,312
3178,888	-10,5	-3,48
3179,032	-10,5	-3,498
3179,176	-10,5	-3,289
3179,32	-4,5	-2,563
3179,476	-1,5	-1,783
3179,62	0	-1,063
3179,764	1,5	-0,343
3179,908	3,5	-0,037
3180,052	4	-0,004
3180,196	3,5	-0,012
3180,34	0	-0,753
3180,484	-0,5	-1,473
3180,628	-2	-2,193
3180,772	-4	-2,913
3180,916	-9	-3,422
3181,078	-10,5	-3,493
3181,222	-10,5	-3,499
3181,366	-8	-2,934
3181,51	-3	-2,214
3181,66	0	-1,464
3181,804	0,5	-0,739
3181,948	2	-0,126
3182,092	3,5	-0,014
3182,236	3,5	-0,001
3182,284	3,5	0