File: Cycling_tests/_newS/_4G30/entrada/_3.txt
Time (s)	Load (N)	Displacement (mm)
0	-0,26	-0,035
2,16	0,56	-0,306
4,277	0,16	-0,349
6,389	0,76	-0,399
8,507	0,94	-0,328
10,619	1,32	-0,292
12,737	1,56	-0,264
14,849	1,68	-0,26
16,961	1,78	-0,251
19,073	1,58	-0,28
21,184	1,68	-0,309
23,302	1,12	-0,442
25,414	0,64	-0,475
27,532	0,78	-0,501
29,644	0,52	-0,524
31,762	1,22	-0,545
33,874	0,72	-0,461
35,992	1,52	-0,365
38,104	2,34	-0,302
40,227	2,42	-0,321
42,345	1,66	-0,406
44,469	2	-0,415
46,581	2,52	-0,25
48,705	2,56	-0,209
50,817	2,62	-0,071
52,935	2,66	0
55,046	2,74	-0,023
57,164	2,74	-0,058
59,288	2,54	-0,236
61,406	2,8	-0,279
63,53	2,84	-0,179
65,654	2,4	-0,335
67,766	2,88	-0,2
69,884	2,92	-0,071
72,001	2,96	-0,005
74,125	2,98	-0,065
76,243	3,02	-0,132
78,367	3,04	-0,222
80,479	2,66	-0,326
82,591	2,58	-0,37
84,703	2,34	-0,41
86,821	1,74	-0,526
88,945	0,66	-0,674
91,057	0,56	-0,595
93,18	0,16	-0,694
95,31	-1,4	-0,886
97,428	-2,06	-1,006
99,558	-3,42	-1,148
101,682	-3,66	-1,225
103,8	-4,44	-1,316
105,912	-4,68	-1,344
108,03	-5,44	-1,401
110,147	-5,5	-1,428
112,259	-5,38	-1,504
114,377	-6,42	-1,567
116,489	-6,26	-1,66
118,607	-8,22	-1,756
120,719	-7,74	-1,794
122,843	-8,3	-1,925
124,961	-9,4	-2,003
127,078	-9,74	-2,056
129,196	-9,96	-2,104
131,314	-11,4	-2,221
133,432	-11,12	-2,21
135,55	-11,48	-2,282
137,662	-10,68	-2,184
139,774	-10,16	-2,105
141,886	-10,12	-2,086
144,015	-9,64	-2,124
146,139	-9,48	-2,042
148,263	-10,08	-2,097
150,381	-7,92	-2,055
152,493	-9,98	-2,102
154,611	-10,28	-2,162
156,735	-11,04	-2,23
158,847	-12,08	-2,343
160,97	-12,12	-2,4
163,088	-13,48	-2,483
165,206	-13,98	-2,568
167,324	-11,8	-2,328
169,436	-11,92	-2,356
171,56	-12,18	-2,444
173,684	-13,44	-2,66
175,796	-14,88	-2,71
177,919	-15,76	-2,846
180,037	-16,92	-2,989
182,155	-17,9	-3,132
184,285	-20,36	-3,248
186,409	-21,02	-3,289
188,533	-20,82	-3,308
190,651	-21,22	-3,34
192,769	-19,88	-3,206
194,886	-20,36	-3,256
197,01	-21,4	-3,351
199,122	-22,7	-3,375
201,24	-22,8	-3,388
203,358	-22,14	-3,401
205,482	-24	-3,438
207,594	-23,46	-3,438
209,718	-23,7	-3,456
211,847	-23,76	-3,438
213,971	-23,56	-3,44
216,089	-24,12	-3,452
218,207	-24,14	-3,458
220,337	-23,06	-3,419
222,455	-20,76	-3,334
224,573	-21,72	-3,361
226,697	-21,52	-3,38
228,815	-21,42	-3,394
230,932	-22,88	-3,42
233,044	-22,6	-3,415
235,168	-21,32	-3,344
237,292	-21,7	-3,38
239,428	-21,5	-3,344
241,546	-18,84	-3,156
243,676	-17,6	-3,115
245,788	-17,28	-2,994
247,899	-16,58	-2,916
250,029	-14,18	-2,763
252,153	-12,46	-2,511
254,277	-13,86	-2,615
256,395	-13,74	-2,651
258,519	-13,98	-2,65
260,637	-14,52	-2,654
262,755	-12,82	-2,596
264,878	-11,18	-2,274
267,002	-11,24	-2,342
269,138	-12	-2,44
271,256	-10,78	-2,239
273,38	-11,1	-2,327
275,504	-10,96	-2,378
277,628	-10,34	-2,259
279,752	-8,58	-2,086
281,863	-9,34	-2,099
283,993	-7,46	-1,902
286,105	-4,94	-1,537
288,229	-3,2	-1,327
290,353	-1	-1,028
292,483	-2,36	-1,167
294,601	-1,34	-1,001
296,713	1,92	-0,663
298,837	2,68	-0,645
300,966	4,18	-0,35
303,096	4,44	-0,09
305,214	4,46	-0,09
307,344	4,46	0
309,468	4,52	-0,001
311,592	4,54	-0,001
313,71	4,56	-0,001
315,828	4,58	-0,002
317,945	4,62	-0,004
320,063	4,62	-0,007
322,187	4,54	-0,012
324,317	4,6	-0,009
326,435	4,58	-0,014
328,565	4,62	-0,008
330,689	4,6	-0,011
332,813	4,64	-0,011
334,93	4,54	-0,013
337,054	4,66	-0,01
339,178	4,56	-0,017
341,308	4,6	-0,014
343,432	4,62	-0,015
345,55	4,64	-0,011
347,68	4,18	-0,042
349,798	2,48	-0,164
351,921	-0,26	-0,472
354,039	-3,38	-0,878
356,163	-4,82	-1,135
358,287	-7,84	-1,482
360,411	-10,44	-1,708
362,529	-12,66	-2,033
364,653	-15,22	-2,354
366,777	-15,66	-2,328
368,9	-15,84	-2,406
371,03	-14,94	-2,404
373,142	-15,86	-2,404
375,272	-14,72	-2,37
377,396	-14,36	-2,278
379,52	-14,66	-2,268
381,644	-19,28	-2,643
383,762	-18,12	-2,623
385,892	-21,16	-2,893
388,015	-23,9	-3,232
390,139	-23,98	-3,489
392,269	-24,02	-3,499
394,393	-24	-3,499
396,523	-23,98	-3,499
398,653	-23,98	-3,499
400,789	-24	-3,496
402,919	-23,92	-3,489
405,03	-23,58	-3,474
407,16	-23,18	-3,457
409,284	-20,98	-3,387
411,408	-16,84	-3,053
413,532	-15,28	-3,162
415,656	-14,04	-2,766
417,786	-12,54	-2,608
419,916	-9,06	-2,179
422,04	-7,28	-1,926
424,163	-4,08	-1,53
426,287	-2,38	-1,261
428,405	0,14	-0,926
430,523	4,2	-0,533
432,653	4,36	-0,331
434,777	4,82	0
436,895	4,86	0
439,025	4,88	-0,001
441,154	4,96	-0,002
443,284	4,96	-0,004
445,408	4,94	-0,009
447,538	4,7	-0,024
449,668	4,2	-0,063
451,798	2,2	-0,163
453,922	1,6	-0,234
456,052	1,22	-0,3
458,163	1,16	-0,395
460,293	1,34	-0,293
462,417	1,12	-0,275
464,541	1,58	-0,235
466,671	2,42	-0,169
468,795	2,9	-0,143
470,907	2,62	-0,168
473,043	3,04	-0,168
475,16	2	-0,192
477,29	2,26	-0,182
479,42	2,56	-0,154
481,538	1,82	-0,207
483,668	2,4	-0,166
485,792	2,88	-0,147
487,916	3,28	-0,103
490,04	1,62	-0,201
492,169	1,8	-0,249
494,287	0,8	-0,36
496,411	0,2	-0,483
498,535	-1,9	-0,758
500,659	-3,04	-0,877
502,789	-1,9	-0,806
504,913	-2,88	-0,883
507,049	-3,22	-1,001
509,178	-6,1	-1,324
511,308	-5,06	-1,216
513,426	-4,66	-1,217
515,568	-4,12	-1,088
517,698	-3,68	-1,032
519,828	-3,2	-0,972
521,964	-3,02	-1,01
524,094	-2,96	-0,913
526,224	-2,7	-0,965
528,347	-3,02	-0,963
530,477	-5,16	-1,157
532,607	-4,54	-1,188
534,731	-5,06	-1,213
536,867	-3,46	-1,053
538,997	-5,9	-1,304
541,121	-4,68	-1,127
543,257	-6,92	-1,454
545,38	-9,4	-1,803
547,504	-11,7	-2,081
549,622	-14,66	-2,427
551,752	-18,78	-2,739
553,876	-23,38	-3,205
556,006	-23,44	-3,5
558,13	-23,42	-3,498
560,254	-23,36	-3,491
562,371	-22,98	-3,477
564,501	-22,6	-3,452
566,631	-20,72	-3,397
568,755	-15,88	-3,135
570,891	-16,34	-3,091
573,021	-17,22	-3,162
575,145	-15,1	-2,92
577,269	-11,18	-2,471
579,398	-8,3	-2,1
581,522	-5,82	-1,832
583,67	-6,68	-1,94
585,788	-5,62	-1,827
587,918	-5,94	-1,766
590,048	-2,34	-1,308
592,178	-2,6	-1,36
594,302	-2,6	-1,334
596,425	-0,54	-1,092
598,549	-0,52	-1,043
600,673	2,5	-0,732
602,797	4,36	-0,362
604,927	5,14	-0,046
607,057	5,18	-0,012
609,187	5,18	0
611,305	5,22	-0,001
613,429	5,26	-0,001
615,564	5,26	-0,001
617,688	5,28	-0,002
619,818	5,28	-0,002
621,936	5,3	-0,005
624,06	5,3	-0,007
626,184	5,28	-0,009
628,308	5,14	-0,02
630,447	4,88	-0,035
632,567	4,44	-0,063
634,691	2,16	-0,177
636,815	0,98	-0,435
638,945	-1,14	-0,668
641,069	-3,58	-1,059
643,199	-5,62	-1,281
645,317	-4,42	-1,259
647,453	-4,88	-1,314
649,582	-5,76	-1,35
651,712	-5,46	-1,408
653,848	-5,18	-1,254
655,972	-4,08	-1,224
658,102	-3,12	-1,01
660,232	-1,3	-0,828
662,356	-1,52	-0,808
664,48	-0,64	-0,683
666,604	-0,78	-0,66
668,733	-0,58	-0,648
670,863	-0,3	-0,604
672,981	0,18	-0,504
675,117	1,04	-0,429
677,253	1,44	-0,362
679,389	0,82	-0,346
681,519	1,66	-0,314
683,649	1,42	-0,267
685,784	2,38	-0,208
687,92	3,12	-0,142
690,038	1,74	-0,257
692,168	2,18	-0,206
694,304	1,86	-0,202
696,428	1,68	-0,254
698,558	1,76	-0,321
700,688	1,18	-0,332
702,824	1,98	-0,217
704,941	2	-0,261
707,083	2,14	-0,219
709,225	2,64	-0,176
711,361	2,74	-0,169
713,485	3,02	-0,157
715,627	2,96	-0,141
717,751	3,06	-0,157
719,874	2,56	-0,21
721,998	1,88	-0,25
724,134	2,62	-0,219
726,264	1,94	-0,233
728,406	2,44	-0,199
730,53	2,5	-0,224
732,66	2,1	-0,262
734,784	1,74	-0,194
736,92	2,7	-0,162
739,049	3,16	-0,179
741,167	0,44	-0,518
743,297	-0,82	-0,71
745,421	-1,66	-0,792
747,545	-2,7	-0,969
749,681	-2,46	-0,89
751,811	-2,8	-1,038
753,929	-3,72	-1,12
756,076	-3,2	-1,08
758,2	-3,38	-1,04
760,33	-2,24	-0,964
762,454	-2,66	-1,025
764,59	-3,26	-1,101
766,72	-4,04	-1,132
768,844	-2,16	-0,984
770,974	-3,54	-1,095
773,097	-2,56	-0,981
775,227	-2,88	-1,043
777,357	-3,06	-1,058
779,481	-3,66	-0,997
781,611	-1,82	-0,91
783,735	-1,3	-0,778
785,863	-0,92	-0,67
787,971	-0,38	-0,674
790,1	-0,88	-0,673
792,236	0,58	-0,503
794,366	1,58	-0,369
796,508	2,58	-0,199
798,644	4,28	-0,105
800,762	3,94	-0,11
802,886	4,72	-0,072
805,016	4,84	-0,05
807,152	5,1	-0,044
809,281	5,28	-0,034
811,417	5,32	-0,028
813,535	5,32	-0,028
815,665	5,52	-0,022
817,789	5,48	-0,021
819,919	5,54	-0,017
822,043	5,52	-0,015
824,161	5,58	-0,02
826,284	5,56	-0,016
828,42	5,6	-0,014
830,544	5,66	-0,011
832,674	5,64	-0,01
834,81	5,68	-0,008
836,94	5,7	-0,006
839,064	5,7	-0,005
841,182	5,7	-0,004
843,318	5,7	-0,003
845,441	5,7	-0,004
847,565	5,72	-0,004
849,689	5,7	-0,004
851,819	5,7	-0,003
853,943	5,7	-0,002
856,085	5,7	-0,002
858,215	5,7	-0,002
860,344	5,7	-0,001
862,468	5,68	-0,001
864,61	5,68	-0,001
866,74	5,68	0
868,876	5,68	-0,002
871	5,68	-0,121
873,124	5,66	-0,238
875,254	5,68	-0,299
877,383	5,18	-0,398
879,507	4,34	-0,487
881,643	3,84	-0,591
883,761	3,1	-0,634
885,897	1,84	-0,762
888,033	1,62	-0,839
890,151	1,48	-0,913
892,281	0,34	-0,968
894,417	-0,26	-1,09
896,534	-0,28	-1,11
898,664	-0,96	-1,218
900,794	-1,28	-1,271
902,924	-2,16	-1,369
905,048	-2,26	-1,452
907,178	-3,56	-1,554
909,308	-3,58	-1,629
911,431	-4,3	-1,723
913,563	-5,66	-1,905
915,691	-6,54	-2,028
917,827	-7	-2,108
919,951	-6,98	-2,186
922,087	-8,14	-2,248
924,223	-8,66	-2,338
926,347	-9,04	-2,362
928,477	-10,14	-2,48
930,606	-9,64	-2,523
932,73	-10,2	-2,553
934,872	-12,06	-2,767
937,002	-12,66	-2,785
939,144	-13,66	-2,937
941,28	-14,5	-3,058
943,41	-15,82	-3,166
945,528	-16,2	-3,223
947,657	-18,56	-3,321
949,787	-18,74	-3,374
951,917	-19,12	-3,388
954,041	-20,24	-3,415
956,177	-21,34	-3,443
958,301	-21,32	-3,451
960,431	-21,32	-3,463
962,561	-21,88	-3,472
964,708	-22,04	-3,484
966,844	-22,2	-3,489
968,974	-22,24	-3,491
971,104	-22,26	-3,492
973,228	-22,24	-3,493
975,358	-22,28	-3,495
977,476	-22,3	-3,496
979,606	-22,28	-3,497
981,729	-22,28	-3,498
983,865	-22,28	-3,498
986,001	-22,28	-3,498
988,131	-22,24	-3,499
990,267	-22,26	-3,5
992,391	-22,18	-3,5
994,515	-22,2	-3,45
996,639	-22,14	-3,387
998,769	-22,12	-3,301
1000,892	-22,12	-3,255
1003,028	-21,62	-3,125
1005,152	-20,88	-3,089
1007,288	-20,22	-2,99
1009,418	-18,96	-2,914
1011,554	-18,16	-2,803
1013,684	-17,02	-2,717
1015,814	-15,7	-2,673
1017,937	-16,24	-2,67
1020,073	-14,84	-2,522
1022,197	-15,08	-2,476
1024,327	-13,92	-2,368
1026,451	-11,66	-2,264
1028,593	-10,86	-2,133
1030,723	-11,34	-2,079
1032,859	-8,84	-1,894
1034,982	-8,94	-1,858
1037,106	-8,28	-1,808
1039,236	-7,58	-1,743
1041,354	-7,82	-1,752
1043,484	-7,32	-1,694
1045,608	-6,68	-1,615
1047,732	-6,86	-1,609
1049,862	-6,44	-1,555
1051,985	-5,7	-1,483
1054,115	-4,28	-1,349
1056,245	-4,56	-1,31
1058,381	-3,88	-1,194
1060,505	-3,48	-1,159
1062,635	-2,86	-1,084
1064,765	-2,28	-0,988
1066,907	-1,1	-0,856
1069,037	-0,54	-0,759
1071,16	-0,5	-0,689
1073,278	-0,22	-0,703
1075,402	-0,7	-0,723
1077,52	-0,28	-0,707
1079,662	0,3	-0,561
1081,78	0,68	-0,555
1083,904	1,14	-0,531
1086,034	0,86	-0,499
1088,163	0,96	-0,475
1090,287	1,18	-0,483
1092,423	1,54	-0,388
1094,553	2,22	-0,292
1096,671	2,34	-0,329
1098,795	2	-0,327
1100,925	3,04	-0,261
1103,049	3,04	-0,222
1105,172	3,04	-0,184
1107,29	3,26	-0,199
1109,408	3,04	-0,196
1111,538	3,72	-0,14
1113,668	4,52	-0,096
1115,798	4,92	-0,072
1117,922	5,22	-0,064
1120,046	5,54	-0,046
1122,181	5,54	-0,043
1124,311	5,76	-0,028
1126,447	5,78	-0,025
1128,571	5,88	-0,02
1130,695	5,78	-0,022
1132,819	5,86	-0,018
1134,943	5,92	-0,019
1137,073	5,94	-0,017
1139,208	6	-0,012
1141,326	6,02	-0,01
1143,456	6	-0,01
1145,58	6,04	-0,01
1147,722	6,04	-0,007
1149,846	6,06	-0,006
1151,97	6,04	-0,007
1154,1	6,06	-0,006
1156,224	6,04	-0,006
1158,353	6,04	-0,006
1160,483	6,06	-0,005
1162,601	6,06	-0,006
1164,725	6,04	-0,007
1166,855	6,06	-0,005
1168,991	6,06	-0,005
1171,115	6,06	-0,004
1173,245	6,06	-0,003
1175,38	6,04	-0,003
1177,51	6,06	-0,003
1179,64	6,06	-0,004
1181,77	6,06	-0,003
1183,894	6,08	-0,003
1186,024	6,06	-0,003
1188,166	6,06	-0,002
1190,29	6,06	-0,002
1192,426	6,04	-0,001
1194,555	6,04	-0,001
1196,679	6,02	-0,001
1198,803	6,04	-0,001
1200,921	6,02	-0,001
1203,051	6,04	-0,001
1205,181	6,02	-0,001
1207,311	6,02	-0,001
1209,422	6,02	-0,001
1211,558	6,02	0
1213,688	6	0
1215,818	6	-0,003
1217,942	6	-0,071
1220,06	6	-0,091
1222,19	5,98	-0,176
1224,332	5,74	-0,338
1226,461	5,56	-0,377
1228,591	5,58	-0,384
1230,721	5,06	-0,438
1232,845	4,72	-0,474
1234,981	4,18	-0,542
1237,105	3,78	-0,587
1239,235	3,04	-0,652
1241,359	3,02	-0,634
1243,483	3,46	-0,637
1245,606	2,98	-0,672
1247,73	3,08	-0,724
1249,86	1,62	-0,858
1251,984	2,24	-0,828
1254,102	2,24	-0,802
1256,232	2,24	-0,862
1258,362	1,92	-0,835
1260,504	1,5	-0,918
1262,627	0,86	-1,016
1264,757	-0,24	-1,108
1266,881	-0,1	-1,159
1269,005	-0,42	-1,194
1271,141	-0,84	-1,279
1273,271	-1,02	-1,332
1275,401	-1,02	-1,324
1277,519	-1,14	-1,286
1279,642	-1,04	-1,267
1281,766	-0,4	-1,234
1283,89	-0,64	-1,268
1286,014	-1,62	-1,382
1288,138	-1,26	-1,338
1290,262	-1,16	-1,362
1292,392	-1,62	-1,337
1294,522	-1	-1,348
1296,646	-1,3	-1,368
1298,775	-1,88	-1,38
1300,899	-1,84	-1,456
1303,029	-2,1	-1,511
1305,147	-2,24	-1,57
1307,283	-3	-1,654
1309,407	-2,9	-1,684
1311,543	-3,54	-1,762
1313,667	-3,72	-1,856
1315,79	-4,28	-1,827
1317,92	-4,6	-1,935
1320,05	-5,12	-2,015
1322,174	-5,06	-2,087
1324,298	-5,52	-2,155
1326,428	-5,9	-2,236
1328,552	-6,52	-2,306
1330,688	-7,46	-2,503
1332,817	-8,28	-2,659
1334,941	-9,1	-2,752
1337,059	-9,92	-2,826
1339,183	-10,42	-2,966
1341,313	-12,06	-3,106
1343,437	-12,84	-3,271
1345,567	-13,98	-3,357
1347,697	-15,36	-3,4
1349,814	-15,4	-3,411
1351,938	-15,82	-3,427
1354,068	-16,44	-3,458
1356,198	-16,52	-3,473
1358,334	-16,86	-3,483
1360,458	-16,9	-3,488
1362,588	-16,94	-3,492
1364,712	-16,92	-3,493
1366,835	-16,88	-3,494
1368,977	-16,86	-3,497
1371,107	-16,8	-3,498
1373,237	-16,78	-3,499
1375,355	-16,74	-3,499
1377,479	-16,72	-3,499
1379,615	-16,68	-3,497
1381,739	-16,54	-3,354
1383,868	-16,44	-3,269
1385,992	-16,24	-3,179
1388,11	-15,48	-3,114
1390,24	-15,4	-2,985
1392,37	-13,36	-2,899
1394,494	-12,06	-2,784
1396,618	-11,62	-2,68
1398,736	-10,16	-2,563
1400,86	-9,16	-2,449
1402,989	-8,02	-2,324
1405,119	-7,22	-2,1
1407,237	-6,04	-2,011
1409,361	-5,26	-1,907
1411,485	-4,14	-1,766
1413,615	-4	-1,733
1415,739	-4,22	-1,712
1417,869	-3,32	-1,654
1420,004	-2,26	-1,49
1422,128	-2,1	-1,397
1424,258	-1,34	-1,231
1426,394	-0,6	-1,114
1428,524	0,12	-0,964
1430,66	0,64	-0,806
1432,796	1,12	-0,673
1434,926	2,08	-0,555
1437,043	2,26	-0,47
1439,167	2,18	-0,398
1441,297	2,74	-0,292
1443,421	3,9	-0,2
1445,539	3,66	-0,19
1447,663	4	-0,159
1449,787	4,42	-0,128
1451,923	4,92	-0,083
1454,052	5,38	-0,052
1456,188	5,54	-0,048
1458,306	5,64	-0,037
1460,442	5,88	-0,022
1462,578	5,88	-0,015
1464,708	5,98	-0,009
1466,832	6	-0,007
1468,974	6	-0,004
1471,104	5,98	-0,002
1473,233	5,96	-0,002
1475,369	5,94	-0,041
1477,499	5,6	-0,271
1479,623	5,12	-0,461
1481,747	3,76	-0,556
1483,883	2,34	-0,762
1486,001	1,64	-0,847
1488,131	0,66	-1,04
1490,254	0,34	-1,154
1492,396	-0,78	-1,333
1494,526	-2,08	-1,561
1496,644	-2,58	-1,642
1498,768	-3,44	-1,82
1500,904	-4,18	-1,994
1503,034	-5,08	-2,204
1505,152	-5,38	-2,294
1507,275	-5,86	-2,381
1509,405	-6,6	-2,509
1511,529	-7,24	-2,638
1513,659	-8,24	-2,705
1515,795	-8,48	-2,885
1517,919	-9,78	-2,978
1520,043	-10,54	-3,184
1522,167	-11,76	-3,296
1524,302	-13,22	-3,371
1526,432	-13,98	-3,424
1528,562	-14,58	-3,454
1530,692	-14,76	-3,474
1532,816	-15,06	-3,484
1534,952	-15,18	-3,49
1537,088	-15,2	-3,495
1539,224	-15,16	-3,497
1541,341	-15,12	-3,498
1543,477	-15,08	-3,5
1545,607	-15,02	-3,383
1547,743	-14,6	-3,155
1549,861	-14,98	-3,016
1551,991	-12,66	-2,855
1554,121	-10,06	-2,689
1556,251	-9,2	-2,571
1558,368	-8,62	-2,47
1560,504	-6,92	-2,29
1562,64	-5,42	-2,037
1564,764	-4,3	-1,864
1566,894	-2,7	-1,649
1569,018	-2,02	-1,444
1571,148	-0,98	-1,198
1573,272	-0,12	-1,009
1575,396	0,48	-0,884
1577,519	1,44	-0,658
1579,655	2,3	-0,43
1581,785	3,08	-0,25
1583,909	4,02	-0,143
1586,033	4,94	-0,08
1588,163	5,5	-0,037
1590,287	5,58	-0,028
1592,411	5,72	-0,018
1594,534	5,82	-0,012
1596,658	5,86	-0,007
1598,782	5,88	-0,004
1600,906	5,86	-0,002
1603,036	5,84	-0,002
1605,154	5,84	-0,001
1607,29	5,82	-0,001
1609,42	5,8	-0,071
1611,55	5,8	-0,283
1613,673	4,9	-0,481
1615,815	2,86	-0,658
1617,939	1,96	-0,795
1620,075	0,88	-0,995
1622,193	0,04	-1,096
1624,323	0,06	-1,14
1626,453	0,22	-1,104
1628,589	-0,96	-1,38
1630,712	-2,08	-1,537
1632,836	-2,32	-1,662
1634,972	-3,14	-1,784
1637,102	-3,54	-1,929
1639,226	-3,86	-2,059
1641,35	-5,1	-2,232
1643,486	-4,6	-2,167
1645,616	-5,3	-2,339
1647,745	-6,14	-2,526
1649,863	-6,82	-2,622
1651,987	-6,24	-2,57
1654,111	-6,56	-2,739
1656,241	-6,14	-2,608
1658,371	-7,28	-2,677
1660,495	-6,48	-2,6
1662,625	-7,38	-2,782
1664,752	-7,72	-2,828
1666,878	-8,58	-2,984
1669,008	-10,38	-3,186
1671,144	-10,44	-3,244
1673,268	-11,76	-3,341
1675,386	-11,96	-3,382
1677,504	-11,98	-3,404
1679,628	-13,56	-3,443
1681,758	-13,9	-3,465
1683,899	-14,06	-3,481
1686,017	-14,18	-3,485
1688,147	-14,28	-3,488
1690,277	-14,08	-3,476
1692,407	-13,96	-3,47
1694,531	-13,42	-3,441
1696,667	-12,52	-3,378
1698,797	-12,76	-3,421
1700,926	-13,48	-3,439
1703,056	-13,22	-3,448
1705,18	-12,74	-3,423
1707,316	-13,18	-3,431
1709,44	-10,96	-3,301
1711,564	-9,14	-3,126
1713,688	-6,64	-2,779
1715,818	-6,54	-2,669
1717,947	-6,14	-2,52
1720,065	-6,52	-2,552
1722,201	-6,34	-2,652
1724,325	-6,98	-2,661
1726,461	-7,06	-2,799
1728,573	-8,06	-2,906
1730,703	-8,92	-3,067
1732,833	-9,14	-3,116
1734,95	-10,1	-3,22
1737,08	-10,84	-3,311
1739,204	-12,34	-3,394
1741,34	-13,38	-3,457
1743,458	-13,64	-3,466
1745,588	-13,92	-3,483
1747,718	-13,96	-3,49
1749,842	-14	-3,493
1751,971	-14,02	-3,497
1754,09	-14	-3,498
1756,225	-13,96	-3,499
1758,361	-13,92	-3,5
1760,491	-13,86	-3,326
1762,609	-13,86	-3,237
1764,745	-12,9	-3,131
1766,875	-12,48	-2,969
1769,004	-10,02	-2,82
1771,134	-9,42	-2,724
1773,258	-8,62	-2,56
1775,394	-6,84	-2,369
1777,518	-6,04	-2,18
1779,648	-4,12	-1,935
1781,778	-3,28	-1,754
1783,902	-2,66	-1,659
1786,038	-2,08	-1,479
1788,161	-0,96	-1,323
1790,285	-0,74	-1,197
1792,421	0,28	-0,969
1794,539	0,64	-0,805
1796,669	1,56	-0,569
1798,799	2,28	-0,462
1800,929	2,82	-0,308
1803,047	3,06	-0,234
1805,182	4,1	-0,138
1807,318	4,96	-0,078
1809,442	5,26	-0,042
1811,566	5,42	-0,032
1813,696	5,56	-0,014
1815,826	5,68	-0,01
1817,956	5,7	-0,005
1820,074	5,72	-0,003
1822,215	5,7	-0,002
1824,351	5,68	-0,002
1826,481	5,66	-0,027
1828,611	5,64	-0,162
1830,729	5,62	-0,278
1832,865	4,34	-0,496
1835,001	2,62	-0,676
1837,125	1,84	-0,881
1839,26	0,12	-1,12
1841,384	-0,78	-1,315
1843,508	-1,2	-1,538
1845,65	-2,44	-1,74
1847,78	-2,76	-1,88
1849,916	-3,68	-2,033
1852,046	-4,34	-2,215
1854,164	-5	-2,413
1856,294	-6,34	-2,716
1858,417	-8,06	-2,926
1860,553	-8,52	-3,143
1862,683	-10,48	-3,32
1864,819	-11,52	-3,405
1866,949	-12,82	-3,46
1869,067	-13,2	-3,475
1871,197	-13,46	-3,486
1873,327	-13,5	-3,493
1875,456	-13,5	-3,496
1877,592	-13,48	-3,498
1879,722	-13,44	-3,499
1881,852	-13,38	-3,407
1883,97	-13,36	-3,257
1886,106	-12,06	-3,032
1888,236	-9,54	-2,844
1890,354	-7,52	-2,605
1892,483	-6,98	-2,424
1894,619	-4,74	-2,115
1896,755	-3,14	-1,855
1898,885	-2,54	-1,626
1901,021	-1,26	-1,361
1903,157	-0,22	-1,122
1905,281	0,26	-0,907
1907,417	1,16	-0,711
1909,546	1,92	-0,48
1911,682	2,74	-0,246
1913,8	3,78	-0,14
1915,93	4,8	-0,059
1918,06	5,28	-0,03
1920,19	5,48	-0,016
1922,32	5,6	-0,011
1924,45	5,6	-0,007
1926,58	5,64	-0,004
1928,697	5,64	-0,003
1930,833	5,62	-0,002
1932,969	5,6	0
1935,099	5,58	-0,223
1937,217	4,8	-0,348
1939,353	3,8	-0,56
1941,489	2,36	-0,777
1943,613	0,88	-0,914
1945,736	0,86	-1,012
1947,872	-0,6	-1,241
1950,002	-0,92	-1,458
1952,12	-1,7	-1,613
1954,256	-2,58	-1,788
1956,386	-2,76	-1,97
1958,522	-3,88	-2,208
1960,658	-5,08	-2,446
1962,781	-5,38	-2,593
1964,911	-6,86	-2,807
1967,047	-7,36	-3,061
1969,165	-8,6	-3,215
1971,295	-10,48	-3,354
1973,419	-11,26	-3,401
1975,537	-11,22	-3,413
1977,661	-11,56	-3,446
1979,784	-12,3	-3,462
1981,908	-12,56	-3,476
1984,038	-12,68	-3,486
1986,168	-12,68	-3,49
1988,286	-12,76	-3,494
1990,422	-12,76	-3,497
1992,552	-12,74	-3,498
1994,682	-12,72	-3,499
1996,805	-12,68	-3,5
1998,935	-12,66	-3,382
2001,059	-12,6	-3,224
2003,183	-11,76	-3,08
2005,313	-9,94	-2,878
2007,443	-8,68	-2,707
2009,567	-8,86	-2,639
2011,685	-7,1	-2,475
2013,808	-5,92	-2,403
2015,926	-5,38	-2,35
2018,05	-4,88	-2,198
2020,174	-3,7	-1,967
2022,292	-3,44	-1,844
2024,422	-2,48	-1,689
2026,552	-1,56	-1,454
2028,682	-0,84	-1,229
2030,806	0,2	-1,03
2032,941	0,48	-0,819
2035,077	0,86	-0,748
2037,201	1,28	-0,624
2039,331	1,8	-0,469
2041,461	1,82	-0,33
2043,597	2,92	-0,216
2045,721	3,42	-0,154
2047,851	4,1	-0,095
2049,98	4,52	-0,064
2052,11	5,06	-0,04
2054,252	5,3	-0,025
2056,394	5,38	-0,014
2058,512	5,4	-0,013
2060,648	5,48	-0,008
2062,772	5,48	-0,006
2064,908	5,5	-0,004
2067,025	5,5	-0,004
2069,149	5,5	-0,002
2071,279	5,48	-0,002
2073,403	5,46	-0,001
2075,527	5,44	0
2077,651	5,44	-0,012
2079,781	5,42	-0,159
2081,905	5,44	-0,262
2084,035	4,46	-0,477
2086,158	3,34	-0,636
2088,294	2	-0,868
2090,412	0,6	-1,075
2092,542	-0,5	-1,252
2094,678	-1,2	-1,527
2096,808	-2,16	-1,726
2098,932	-2,48	-1,887
2101,05	-3	-2,026
2103,173	-3,36	-2,14
2105,309	-4,16	-2,385
2107,433	-4,66	-2,505
2109,551	-5,44	-2,663
2111,687	-6,74	-2,896
2113,811	-6,86	-2,991
2115,935	-7,54	-3,11
2118,071	-9,2	-3,309
2120,194	-9,48	-3,371
2122,318	-10,3	-3,415
2124,442	-10,38	-3,44
2126,578	-11,74	-3,47
2128,708	-11,74	-3,48
2130,832	-11,88	-3,488
2132,956	-11,92	-3,492
2135,086	-11,92	-3,495
2137,215	-11,92	-3,497
2139,345	-11,9	-3,498
2141,469	-11,9	-3,499
2143,587	-11,88	-3,499
2145,711	-11,84	-3,5
2147,853	-11,8	-3,315
2149,971	-11,62	-3,216
2152,101	-10,66	-3,074
2154,23	-9,08	-2,865
2156,348	-8,76	-2,753
2158,478	-6,48	-2,604
2160,608	-5,74	-2,379
2162,726	-4,8	-2,242
2164,862	-3,84	-2,088
2166,992	-3,32	-1,874
2169,116	-2,6	-1,802
2171,246	-2,22	-1,684
2173,375	-1,66	-1,534
2175,517	-0,86	-1,314
2177,641	-0,4	-1,178
2179,771	0,12	-0,974
2181,895	0,68	-0,822
2184,019	1,22	-0,644
2186,155	2,12	-0,423
2188,285	2,54	-0,228
2190,414	3,58	-0,14
2192,538	4,22	-0,089
2194,668	4,72	-0,049
2196,81	5	-0,025
2198,922	5,08	-0,025
2201,058	5,22	-0,016
2203,188	5,24	-0,01
2205,306	5,28	-0,008
2207,429	5,32	-0,005
2209,559	5,32	-0,004
2211,683	5,32	-0,003
2213,807	5,3	-0,003
2215,931	5,3	-0,002
2218,067	5,3	-0,001
2220,197	5,28	-0,001
2222,333	5,26	0
2224,463	5,24	-0,108
2226,598	5,24	-0,288
2228,722	5	-0,319
2230,858	4	-0,472
2232,988	3,1	-0,59
2235,112	2,44	-0,672
2237,242	1,66	-0,829
2239,378	0,76	-0,976
2241,495	0,28	-1,024
2243,637	0,16	-1,155
2245,773	-0,68	-1,334
2247,897	-0,78	-1,45
2250,033	-1,18	-1,55
2252,169	-1,68	-1,73
2254,287	-1,98	-1,809
2256,423	-2,56	-1,956
2258,559	-2,9	-2,142
2260,682	-3,54	-2,299
2262,821	-4,32	-2,484
2264,948	-4,8	-2,629
2267,078	-5,38	-2,774
2269,202	-5,76	-2,862
2271,332	-6,14	-3,071
2273,45	-7,88	-3,183
2275,586	-7,94	-3,298
2277,721	-8,92	-3,362
2279,845	-8,92	-3,4
2281,981	-10,46	-3,448
2284,117	-10,8	-3,473
2286,253	-10,98	-3,483
2288,377	-10,98	-3,487
2290,507	-11,04	-3,492
2292,631	-11,08	-3,495
2294,748	-11,06	-3,494
2296,878	-11,06	-3,496
2299,002	-11,06	-3,496
2301,126	-11,04	-3,497
2303,25	-11,02	-3,498
2305,38	-11	-3,498
2307,504	-11	-3,499
2309,634	-11	-3,499
2311,769	-10,96	-3,486
2313,893	-10,92	-3,336
2316,035	-10,72	-3,222
2318,159	-10,88	-3,166
2320,283	-10,08	-3,045
2322,401	-8,94	-2,928
2324,531	-7,34	-2,794
2326,661	-7,4	-2,659
2328,785	-6,4	-2,598
2330,926	-4,9	-2,362
2333,062	-4,24	-2,154
2335,186	-3,62	-2,124
2337,316	-3,66	-2,033
2339,452	-2,94	-1,902
2341,57	-2,54	-1,832
2343,7	-2,22	-1,714
2345,83	-1,74	-1,569
2347,953	-1,2	-1,408
2350,083	-0,98	-1,316
2352,213	-0,54	-1,161
2354,331	-0,26	-1,108
2356,461	0	-0,979
2358,597	0,4	-0,883
2360,727	0,88	-0,767
2362,845	0,8	-0,75
2364,974	1,08	-0,633
2367,104	1,58	-0,536
2369,234	1,78	-0,36
2371,376	2,86	-0,158
2373,494	3,26	-0,132
2375,624	4,2	-0,078
2377,754	4,4	-0,043
2379,884	4,9	-0,02
2382,014	5	-0,012
2384,149	5,1	-0,007
2386,273	5,1	-0,005
2388,391	5,1	-0,004
2390,515	5,1	-0,003
2392,639	5,1	-0,002
2394,769	5,1	-0,001
2396,893	5,08	-0,001
2399,017	5,06	0
2401,146	5,06	-0,123
2403,288	4,5	-0,363
2405,406	4,22	-0,459
2407,536	2,72	-0,69
2409,66	1,7	-0,846
2411,778	1,96	-0,926
2413,902	0,36	-1,083
2416,038	-0,24	-1,274
2418,161	-0,94	-1,426
2420,291	-1,4	-1,676
2422,421	-1,96	-1,821
2424,557	-2,2	-1,98
2426,681	-3,12	-2,18
2428,811	-3,64	-2,372
2430,935	-3,8	-2,492
2433,053	-4,46	-2,64
2435,188	-5,32	-2,804
2437,312	-5,44	-2,914
2439,442	-6,46	-3,07
2441,566	-6,84	-3,141
2443,708	-7,88	-3,3
2445,832	-8,14	-3,331
2447,962	-8,9	-3,39
2450,086	-9,82	-3,445
2452,203	-10,04	-3,457
2454,327	-10,26	-3,473
2456,457	-10,34	-3,486
2458,581	-10,46	-3,49
2460,717	-10,5	-3,497
2462,853	-10,48	-3,499
2464,971	-10,46	-3,499
2467,101	-10,44	-3,494
2469,23	-10,42	-3,32
2471,348	-10,4	-3,258
2473,478	-9,86	-3,143
2475,62	-7,7	-2,878
2477,738	-6,5	-2,724
2479,868	-6,04	-2,612
2481,992	-5,4	-2,417
2484,122	-4	-2,188
2486,246	-3,54	-2,089
2488,381	-2,92	-1,968
2490,499	-2,52	-1,814
2492,635	-1,6	-1,591
2494,759	-1,1	-1,423
2496,883	-0,82	-1,33
2499,007	-0,44	-1,194
2501,137	-0,04	-1,044
2503,255	0,2	-0,975
2505,372	0,26	-0,885
2507,502	0,7	-0,778
2509,626	1	-0,623
2511,756	1,8	-0,444
2513,886	1,76	-0,348
2516,016	2,88	-0,177
2518,134	3,48	-0,124
2520,27	3,8	-0,08
2522,387	4,3	-0,044
2524,517	4,66	-0,027
2526,641	4,82	-0,016
2528,771	4,82	-0,014
2530,901	4,9	-0,01
2533,031	4,94	-0,007
2535,167	4,94	-0,005
2537,291	4,96	-0,004
2539,432	4,96	-0,002
2541,55	4,96	-0,002
2543,68	4,94	-0,001
2545,81	4,92	-0,022
2547,934	4,9	-0,164
2550,064	4,9	-0,27
2552,194	4,14	-0,38
2554,318	4	-0,43
2556,448	3,92	-0,517
2558,577	1,9	-0,757
2560,701	1,16	-0,921
2562,831	0,24	-1,065
2564,961	-0,06	-1,172
2567,085	0	-1,256
2569,215	-0,62	-1,406
2571,351	-1,3	-1,58
2573,481	-1,56	-1,72
2575,604	-1,78	-1,856
2577,734	-1,94	-1,979
2579,852	-2,62	-2,132
2581,982	-2,92	-2,234
2584,112	-3,34	-2,311
2586,236	-3,56	-2,467
2588,36	-4,2	-2,635
2590,484	-4,5	-2,729
2592,607	-4,78	-2,796
2594,737	-5,5	-3,009
2596,867	-6,24	-3,186
2598,991	-7,32	-3,288
2601,121	-8,34	-3,396
2603,239	-8,72	-3,415
2605,375	-9,32	-3,443
2607,511	-9,68	-3,465
2609,634	-9,6	-3,472
2611,758	-9,78	-3,483
2613,894	-9,92	-3,49
2616,018	-9,94	-3,492
2618,148	-9,96	-3,496
2620,284	-9,96	-3,498
2622,402	-9,96	-3,498
2624,526	-9,94	-3,499
2626,65	-9,92	-3,499
2628,773	-9,9	-3,5
2630,915	-9,88	-3,316
2633,039	-9,56	-3,144
2635,157	-8,52	-3
2637,281	-7,28	-2,832
2639,411	-6,06	-2,688
2641,529	-5,6	-2,613
2643,671	-4,26	-2,329
2645,794	-3,58	-2,161
2647,924	-3,28	-2,038
2650,06	-2,56	-1,873
2652,196	-1,64	-1,614
2654,32	-1,26	-1,467
2656,45	-0,6	-1,286
2658,58	-0,34	-1,14
2660,704	-0,08	-1,021
2662,845	0,88	-0,737
2664,969	1,2	-0,541
2667,099	1,48	-0,461
2669,235	2	-0,242
2671,359	2,54	-0,13
2673,489	3,64	-0,079
2675,625	4,28	-0,043
2677,761	4,48	-0,024
2679,89	4,68	-0,015
2682,026	4,8	-0,008
2684,168	4,82	-0,005
2686,286	4,82	-0,004
2688,428	4,82	-0,002
2690,558	4,82	-0,002
2692,682	4,82	-0,001
2694,812	4,8	-0,001
2696,936	4,8	-0,053
2699,065	4,78	-0,173
2701,189	4,54	-0,281
2703,313	3,78	-0,43
2705,449	2,74	-0,572
2707,579	3,18	-0,674
2709,703	1,62	-0,815
2711,833	0,76	-0,961
2713,957	0,6	-1
2716,074	0,72	-1,106
2718,216	-0,32	-1,295
2720,352	-0,7	-1,411
2722,47	-0,76	-1,485
2724,6	-1,1	-1,603
2726,73	-1,52	-1,774
2728,854	-1,82	-1,88
2730,984	-2,18	-1,98
2733,107	-2,34	-2,042
2735,237	-2,74	-2,235
2737,367	-3,18	-2,343
2739,497	-3,18	-2,487
2741,627	-4	-2,67
2743,751	-4,48	-2,804
2745,875	-4,72	-2,893
2747,999	-5,24	-3,03
2750,116	-5,68	-3,125
2752,258	-6,62	-3,301
2754,388	-7,66	-3,375
2756,512	-8,1	-3,411
2758,636	-8,56	-3,439
2760,766	-9,14	-3,466
2762,89	-9,22	-3,471
2765,026	-9,38	-3,483
2767,155	-9,42	-3,487
2769,279	-9,5	-3,49
2771,415	-9,5	-3,494
2773,539	-9,52	-3,497
2775,681	-9,5	-3,498
2777,811	-9,5	-3,499
2779,929	-9,5	-3,499
2782,059	-9,48	-3,499
2784,188	-9,48	-3,5
2786,318	-9,44	-3,496
2788,448	-9,42	-3,332
2790,584	-8,88	-3,156
2792,708	-8,5	-2,982
2794,844	-6,54	-2,833
2796,962	-5,62	-2,675
2799,086	-5,1	-2,56
2801,221	-4,5	-2,454
2803,345	-4,2	-2,367
2805,469	-3,7	-2,231
2807,593	-3,22	-2,094
2809,723	-2,52	-1,954
2811,859	-1,84	-1,764
2813,983	-1,48	-1,623
2816,113	-1,14	-1,458
2818,237	-0,58	-1,322
2820,366	-0,62	-1,214
2822,49	-0,36	-1,1
2824,608	-0,2	-1,047
2826,744	0,26	-0,882
2828,874	0,68	-0,748
2830,998	0,9	-0,655
2833,134	1,48	-0,46
2835,276	2,08	-0,268
2837,393	2,78	-0,163
2839,517	2,96	-0,134
2841,641	3,4	-0,078
2843,777	3,92	-0,046
2845,913	4,42	-0,03
2848,031	4,48	-0,021
2850,161	4,6	-0,016
2852,291	4,62	-0,012
2854,414	4,72	-0,008
2856,55	4,72	-0,005
2858,68	4,74	-0,003
2860,804	4,74	-0,002
2862,934	4,74	-0,001
2865,065	4,72	-0,001
2867,188	4,72	-0,012
2869,312	4,7	-0,119
2871,442	3,96	-0,389
2873,571	2,56	-0,556
2875,701	1,62	-0,754
2877,825	0,9	-0,95
2879,955	0,2	-1,072
2882,091	-0,28	-1,284
2884,215	-0,76	-1,431
2886,345	-1,1	-1,623
2888,463	-1,5	-1,789
2890,598	-1,66	-1,867
2892,728	-1,8	-1,968
2894,852	-2,46	-2,116
2896,988	-2,46	-2,296
2899,124	-2,98	-2,46
2901,248	-3,28	-2,558
2903,378	-3,94	-2,702
2905,514	-4,56	-2,862
2907,637	-4,78	-2,934
2909,767	-5,54	-3,175
2911,903	-6,8	-3,349
2914,027	-7,76	-3,423
2916,157	-8,5	-3,454
2918,281	-8,58	-3,46
2920,417	-8,96	-3,482
2922,553	-9,04	-3,488
2924,676	-9,08	-3,493
2926,8	-9,1	-3,496
2928,936	-9,08	-3,498
2931,066	-9,08	-3,5
2933,196	-9,04	-3,389
2935,314	-9,02	-3,306
2937,444	-9,02	-3,147
2939,574	-8,04	-3,081
2941,697	-7,24	-2,96
2943,827	-5,16	-2,668
2945,957	-4,32	-2,433
2948,087	-3,2	-2,213
2950,217	-2,52	-1,966
2952,347	-1,82	-1,791
2954,471	-1,48	-1,66
2956,595	-1,22	-1,545
2958,719	-0,8	-1,367
2960,848	-0,08	-1,126
2962,984	0,12	-0,946
2965,102	0,3	-0,878
2967,238	0,8	-0,693
2969,374	1,34	-0,502
2971,492	1,66	-0,407
2973,616	2,08	-0,259
2975,752	2,8	-0,126
2977,869	3,32	-0,089
2979,999	3,76	-0,053
2982,129	4,22	-0,034
2984,247	4,46	-0,021
2986,371	4,52	-0,014
2988,495	4,62	-0,009
2990,625	4,68	-0,005
2992,755	4,68	-0,003
2994,878	4,68	-0,002
2997,008	4,68	-0,001
2999,144	4,64	-0,041
3001,268	4,64	-0,21
3003,392	4,14	-0,343
3005,51	3,54	-0,46
3007,634	2,68	-0,581
3009,752	2,02	-0,706
3011,881	1,48	-0,837
3014,005	0,52	-1
3016,141	0,38	-1,137
3018,265	-0,16	-1,246
3020,389	-0,2	-1,361
3022,507	-0,74	-1,505
3024,643	-1,08	-1,642
3026,773	-1,36	-1,771
3028,89	-1,6	-1,85
3031,032	-2,3	-2,187
3033,15	-2,48	-2,23
3035,274	-2,86	-2,361
3037,404	-3,4	-2,5
3039,522	-3,6	-2,553
3041,646	-4,12	-2,741
3043,782	-4,86	-2,91
3045,9	-4,84	-3,075
3048,029	-5,5	-3,187
3050,153	-6,18	-3,317
3052,277	-6,62	-3,367
3054,413	-7,82	-3,44
3056,531	-8,3	-3,465
3058,655	-8,5	-3,478
3060,791	-8,72	-3,491
3062,909	-8,76	-3,494
3065,044	-8,76	-3,498
3067,174	-8,76	-3,499
3069,292	-8,74	-3,499
3071,428	-8,7	-3,4
3073,552	-8,46	-3,185
3075,682	-7,5	-3,045
3077,818	-6,28	-2,79
3079,936	-5,64	-2,699
3082,065	-4,08	-2,428
3084,195	-3,48	-2,235
3086,319	-2,56	-2,027
3088,449	-2,18	-1,886
3090,585	-1,46	-1,668
3092,709	-1,04	-1,49
3094,839	-0,58	-1,351
3096,963	-0,38	-1,247
3099,093	-0,02	-1,044
3101,222	0,3	-0,947
3103,346	0,74	-0,737
3105,47	1,08	-0,568
3107,612	1,92	-0,261
3109,736	2,36	-0,168
3111,866	2,96	-0,126
3113,99	3,38	-0,084
3116,12	4	-0,052
3118,249	4,2	-0,032
3120,373	4,3	-0,024
3122,497	4,46	-0,018
3124,615	4,54	-0,012
3126,739	4,54	-0,009
3128,875	4,58	-0,006
3130,993	4,58	-0,005
3133,123	4,58	-0,004
3135,246	4,58	-0,003
3137,376	4,58	-0,002
3139,518	4,58	-0,001
3141,636	4,56	0
3143,772	4,56	-0,13
3145,898	4,14	-0,289
3148,014	3,86	-0,36
3150,15	3,7	-0,497
3152,267	2,72	-0,615
3154,397	1,96	-0,71
3156,515	1,56	-0,748
3158,645	1,22	-0,877
3160,769	1,56	-0,917
3162,905	0,48	-1,05
3165,023	0,52	-1,06
3166,889	4,54	-0,001