File: Cycling_tests/_newS/_4G30/entrada/_4.txt
Time (s)	Load (N)	Displacement (mm)
0	-0,16	-0,032
2,202	-0,48	-0,478
4,338	-1,44	-0,654
6,479	-2,18	-0,715
8,615	-1,86	-0,831
10,751	-2,28	-0,894
12,887	-3,58	-1
15,023	-3,5	-0,999
17,159	-3,96	-1,057
19,295	-3,46	-1,11
21,431	-2,94	-1,039
23,567	-4,46	-1,167
25,702	-4,82	-1,249
27,844	-5,24	-1,317
29,986	-5,76	-1,431
32,134	-6,54	-1,618
34,27	-7,46	-1,639
36,412	-8,46	-1,796
38,554	-9,16	-1,922
40,696	-10,98	-2,104
42,843	-12,56	-2,253
44,991	-12,94	-2,366
47,127	-13,32	-2,466
49,263	-14,18	-2,472
51,405	-14,32	-2,532
53,553	-15,6	-2,676
55,689	-15,72	-2,793
57,825	-16,88	-2,844
59,96	-17,76	-2,876
62,096	-17,76	-2,876
64,232	-17,64	-2,974
66,374	-18,84	-2,978
68,51	-17,72	-2,966
70,646	-17,7	-2,982
72,788	-17,46	-3,022
74,93	-17,6	-2,966
77,077	-18,44	-3,026
79,219	-16,36	-3,064
81,355	-17,86	-3,139
83,491	-20,12	-3,26
85,633	-20,94	-3,288
87,775	-20,58	-3,355
89,911	-22,38	-3,39
92,053	-23,32	-3,409
94,194	-23,68	-3,417
96,336	-23,96	-3,439
98,484	-24,04	-3,455
100,632	-24,64	-3,471
102,786	-24,74	-3,483
104,928	-24,74	-3,487
107,07	-24,84	-3,493
109,206	-24,86	-3,494
111,348	-24,84	-3,496
113,501	-24,8	-3,497
115,643	-24,78	-3,497
117,791	-24,76	-3,498
119,933	-24,68	-3,499
122,081	-24,66	-3,499
124,223	-24,64	-3,499
126,359	-24,58	-3,499
128,5	-24,56	-3,5
130,648	-24,54	-3,5
132,784	-24,5	-3,5
134,92	-24,48	-3,488
137,062	-24,44	-3,326
139,204	-24,4	-3,278
141,34	-24,4	-3,165
143,482	-22,5	-2,98
145,629	-20,42	-2,828
147,771	-19,94	-2,714
149,913	-18,36	-2,622
152,055	-16,84	-2,513
154,203	-17,44	-2,411
156,345	-15,26	-2,265
158,481	-14,46	-2,181
160,635	-13,38	-2,054
162,776	-12,16	-1,988
164,912	-11,18	-1,842
167,066	-9,74	-1,687
169,208	-7,64	-1,498
171,356	-5,88	-1,289
173,504	-5,06	-1,184
175,652	-4,02	-1,086
177,806	-2,48	-0,856
179,953	-1,84	-0,735
182,095	-0,6	-0,61
184,243	-0,1	-0,483
186,385	0,28	-0,496
188,539	0,78	-0,407
190,681	0,66	-0,356
192,823	0,88	-0,364
194,959	1,68	-0,258
197,106	3,2	-0,178
199,254	3,36	-0,139
201,402	3,66	-0,095
203,55	4,9	-0,055
205,692	5,04	-0,041
207,828	5,1	-0,034
209,976	5,28	-0,028
212,124	5,44	-0,021
214,26	5,52	-0,013
216,401	5,56	-0,008
218,555	5,58	-0,004
220,691	5,58	-0,002
222,839	5,58	-0,001
224,981	5,6	-0,001
227,129	5,58	-0,001
229,277	5,58	-0,002
231,419	5,56	-0,17
233,561	5,56	-0,241
235,696	5,56	-0,294
237,844	4,28	-0,456
239,998	4,3	-0,546
242,14	3,04	-0,73
244,276	2,5	-0,728
246,424	0,9	-0,884
248,566	0,14	-0,956
250,713	-0,76	-1,126
252,855	-1,44	-1,283
255,003	-4	-1,497
257,145	-5,46	-1,723
259,299	-5,22	-1,8
261,441	-6,44	-1,808
263,589	-5,86	-1,805
265,731	-6,4	-1,929
267,878	-7,36	-2,021
270,02	-7,72	-2,028
272,168	-8,24	-2,088
274,304	-7,88	-2,05
276,446	-8,76	-2,121
278,588	-8,76	-2,151
280,736	-8,5	-2,193
282,884	-10,16	-2,286
285,031	-10,26	-2,366
287,173	-10,48	-2,432
289,327	-13,08	-2,649
291,475	-13,1	-2,724
293,617	-12,72	-2,716
295,759	-13,98	-2,718
297,907	-14,04	-2,804
300,055	-14,02	-2,896
302,209	-16,12	-3,043
304,344	-17,22	-3,096
306,492	-16,02	-3,144
308,64	-17,78	-3,209
310,788	-17	-3,214
312,936	-18,1	-3,278
315,078	-19,58	-3,298
317,22	-19,24	-3,312
319,368	-20	-3,349
321,521	-20,94	-3,391
323,663	-20,86	-3,404
325,811	-21,5	-3,422
327,953	-21,44	-3,43
330,101	-22	-3,446
332,243	-22,58	-3,458
334,391	-22,82	-3,474
336,533	-22,76	-3,478
338,674	-23,04	-3,486
340,822	-23,1	-3,488
342,97	-23,02	-3,488
345,118	-23,14	-3,49
347,266	-23,14	-3,491
349,42	-23,16	-3,494
351,562	-23,18	-3,494
353,71	-23,16	-3,496
355,851	-23,16	-3,497
357,993	-23,14	-3,498
360,141	-23,12	-3,498
362,289	-23,1	-3,498
364,437	-23,08	-3,499
366,591	-23,06	-3,499
368,733	-23,02	-3,5
370,887	-22,98	-3,417
373,034	-22,96	-3,268
375,188	-22,46	-3,129
377,336	-21,06	-3,02
379,484	-21,98	-2,908
381,626	-19,18	-2,826
383,774	-17,2	-2,735
385,922	-16,34	-2,579
388,07	-16,94	-2,632
390,229	-15,9	-2,502
392,377	-15,8	-2,512
394,525	-14,62	-2,404
396,673	-12,42	-2,201
398,827	-11,22	-2,049
400,975	-10	-1,926
403,117	-8,76	-1,833
405,277	-7,74	-1,624
407,425	-5,92	-1,437
409,566	-5,38	-1,338
411,714	-2,98	-1,129
413,868	-1,88	-0,934
416,028	-1,2	-0,81
418,17	-1,52	-0,818
420,318	0,78	-0,598
422,46	1,16	-0,474
424,608	1,62	-0,42
426,761	2,18	-0,343
428,909	3,04	-0,237
431,057	4,1	-0,156
433,205	4,38	-0,14
435,353	5,28	-0,106
437,507	5,14	-0,086
439,661	5,72	-0,058
441,809	6,04	-0,044
443,956	6,02	-0,049
446,104	5,98	-0,042
448,252	6,22	-0,043
450,394	6,34	-0,031
452,542	6,36	-0,031
454,69	6,52	-0,019
456,838	6,54	-0,018
458,992	6,56	-0,016
461,139	6,6	-0,013
463,293	6,64	-0,008
465,441	6,66	-0,006
467,601	6,68	-0,004
469,749	6,68	-0,003
471,897	6,66	-0,002
474,045	6,68	-0,001
476,205	6,64	-0,001
478,352	6,64	-0,001
480,494	6,64	0
482,642	6,62	-0,005
484,784	6,64	-0,038
486,938	6,62	-0,243
489,086	6,22	-0,323
491,234	5,96	-0,389
493,394	4,8	-0,604
495,541	3,98	-0,663
497,689	3,2	-0,749
499,837	2,82	-0,808
501,985	2,04	-0,98
504,127	0,1	-1,105
506,275	-0,64	-1,276
508,423	-1,88	-1,431
510,577	-3,18	-1,593
512,73	-4,56	-1,71
514,884	-5,06	-1,873
517,044	-6,26	-2,072
519,192	-8,3	-2,217
521,334	-8,86	-2,327
523,488	-10,24	-2,409
525,624	-9,82	-2,472
527,772	-10,06	-2,478
529,925	-10,14	-2,503
532,073	-11,04	-2,59
534,233	-11,56	-2,703
536,387	-13,82	-2,862
538,529	-14,96	-2,946
540,677	-15,16	-2,976
542,831	-15,58	-3,035
544,991	-17,06	-3,221
547,132	-16,88	-3,262
549,28	-18,08	-3,325
551,428	-18,88	-3,349
553,576	-19,84	-3,388
555,724	-20,94	-3,424
557,872	-20,76	-3,44
560,02	-21,32	-3,452
562,168	-21,74	-3,464
564,316	-21,12	-3,468
566,463	-22,08	-3,476
568,611	-22,02	-3,481
570,765	-22,28	-3,486
572,913	-22,34	-3,489
575,061	-22,38	-3,491
577,209	-22,38	-3,493
579,351	-22,36	-3,493
581,505	-22,38	-3,496
583,652	-22,4	-3,496
585,8	-22,38	-3,497
587,948	-22,34	-3,498
590,102	-22,34	-3,498
592,25	-22,3	-3,499
594,404	-22,28	-3,499
596,558	-22,28	-3,5
598,722	-22,22	-3,393
600,866	-22,2	-3,3
603,013	-22,12	-3,203
605,161	-21,1	-3,07
607,315	-19,46	-2,935
609,463	-19,66	-2,86
611,611	-17,58	-2,775
613,765	-16,58	-2,664
615,913	-15,22	-2,542
618,06	-15,02	-2,445
620,208	-13,36	-2,38
622,362	-12,04	-2,244
624,51	-11,5	-2,089
626,658	-8,94	-1,939
628,818	-8,04	-1,803
630,972	-8,2	-1,592
633,12	-4,84	-1,427
635,273	-5,28	-1,359
637,421	-3,32	-1,23
639,575	-3,54	-1,158
641,729	-2,32	-1,074
643,883	-1,88	-1,01
646,037	-0,56	-0,899
648,197	-0,44	-0,833
650,351	-0,26	-0,787
652,51	0,88	-0,588
654,652	1,44	-0,544
656,794	1,56	-0,488
658,942	2,48	-0,38
661,09	2,92	-0,326
663,238	3,76	-0,248
665,398	5,34	-0,136
667,546	5,4	-0,104
669,688	5,48	-0,114
671,841	5,64	-0,098
673,989	5,76	-0,093
676,143	5,98	-0,082
678,303	6,54	-0,046
680,451	6,8	-0,033
682,599	6,9	-0,028
684,747	6,94	-0,027
686,901	7	-0,022
689,066	7,14	-0,013
691,22	7,16	-0,011
693,368	7,18	-0,01
695,516	7,2	-0,006
697,658	7,2	-0,004
699,806	7,2	-0,004
701,96	7,18	-0,002
704,096	7,16	-0,001
706,243	7,16	-0,001
708,391	7,16	0
710,545	7,12	-0,054
712,699	7,1	-0,224
714,847	6,78	-0,324
716,995	5,82	-0,49
719,143	4,54	-0,656
721,291	3,76	-0,816
723,438	1,18	-1,025
725,592	-0,32	-1,22
727,74	-1,28	-1,354
729,894	-2,96	-1,581
732,048	-3,52	-1,697
734,196	-4,6	-1,826
736,35	-5,84	-2,016
738,504	-6,76	-2,158
740,645	-7,56	-2,215
742,805	-9,06	-2,428
744,953	-10,08	-2,526
747,101	-11	-2,632
749,255	-12,78	-2,843
751,403	-14,34	-3,01
753,551	-16,02	-3,153
755,705	-15,04	-3,174
757,858	-18,12	-3,332
760,012	-20,1	-3,404
762,166	-20,56	-3,443
764,32	-21,26	-3,469
766,474	-21,64	-3,478
768,616	-21,46	-3,481
770,764	-21,76	-3,49
772,912	-21,82	-3,489
775,059	-21,84	-3,49
777,201	-21,84	-3,492
779,355	-21,86	-3,493
781,509	-21,86	-3,494
783,651	-21,84	-3,493
785,805	-21,88	-3,497
787,959	-21,86	-3,497
790,131	-21,86	-3,498
792,273	-21,86	-3,498
794,42	-21,84	-3,498
796,574	-21,82	-3,499
798,722	-21,82	-3,499
800,87	-21,78	-3,499
803,024	-21,78	-3,499
805,172	-21,76	-3,499
807,32	-21,78	-3,499
809,474	-21,78	-3,499
811,633	-21,72	-3,5
813,787	-21,7	-3,47
815,941	-21,7	-3,442
818,101	-21,68	-3,342
820,255	-21,44	-3,214
822,403	-21,64	-3,207
824,557	-21,64	-3,252
826,698	-21,66	-3,358
828,852	-21,66	-3,382
831,006	-21,62	-3,43
833,16	-21,64	-3,38
835,302	-21,66	-3,331
837,456	-21,62	-3,387
839,592	-21,6	-3,482
841,74	-21,64	-3,493
843,894	-21,6	-3,5
846,053	-21,6	-3,461
848,201	-21,62	-3,499
850,355	-21,62	-3,5
852,497	-21,64	-3,499
854,651	-21,62	-3,499
856,799	-21,66	-3,499
858,947	-21,62	-3,499
861,089	-21,62	-3,499
863,236	-21,66	-3,499
865,384	-21,62	-3,499
867,526	-21,62	-3,499
869,668	-21,6	-3,499
871,828	-21,58	-3,5
873,976	-21,58	-3,5
876,124	-21,56	-3,412
878,272	-21,52	-3,262
880,419	-21,52	-3,195
882,567	-21	-3,183
884,721	-21,26	-3,082
886,864	-20,66	-3,166
889,005	-20,56	-3,048
891,165	-20,1	-3,004
893,325	-18,3	-2,918
895,473	-17,64	-2,858
897,614	-18,58	-2,898
899,768	-16,86	-2,814
901,928	-16,32	-2,726
904,07	-17,72	-2,824
906,23	-16,22	-2,722
908,378	-16,28	-2,658
910,532	-15,72	-2,684
912,686	-14,78	-2,585
914,845	-14,34	-2,588
916,987	-14,46	-2,503
919,141	-13,06	-2,416
921,295	-13,16	-2,396
923,449	-12,56	-2,307
925,609	-11,1	-2,214
927,763	-10,7	-2,167
929,917	-9,82	-2,052
932,077	-10,58	-2,102
934,224	-10,38	-2,08
936,378	-9,14	-2,039
938,538	-8,44	-2
940,698	-9,16	-2,045
942,852	-10,58	-1,989
945	-8,58	-1,982
947,148	-9,78	-2,039
949,289	-10,4	-2,038
951,449	-8,5	-1,902
953,609	-8	-1,783
955,763	-7,6	-1,838
957,917	-6,56	-1,722
960,065	-6,14	-1,668
962,213	-6,62	-1,656
964,367	-6,06	-1,567
966,521	-4,76	-1,483
968,686	-3,58	-1,349
970,834	-4,32	-1,344
972,988	-3,7	-1,334
975,13	-4,14	-1,348
977,278	-3,06	-1,31
979,438	-2,62	-1,206
981,586	-2,22	-1,152
983,74	-1,84	-1,105
985,893	-1,54	-1,043
988,053	-1,38	-0,992
990,213	-1,12	-0,926
992,355	-0,72	-0,878
994,503	-0,32	-0,869
996,657	0,72	-0,791
998,811	1,7	-0,522
1000,965	2,28	-0,518
1003,118	3,16	-0,39
1005,266	3,44	-0,354
1007,408	3,56	-0,298
1009,556	4,26	-0,296
1011,71	4,18	-0,224
1013,864	4,14	-0,167
1016,012	5,42	-0,13
1018,154	6,08	-0,112
1020,301	6,46	-0,09
1022,461	6,76	-0,061
1024,609	7,04	-0,049
1026,757	7,04	-0,049
1028,917	7,34	-0,037
1031,065	7,3	-0,031
1033,207	7,3	-0,034
1035,355	7,46	-0,028
1037,52	7,54	-0,022
1039,668	7,44	-0,024
1041,816	7,58	-0,023
1043,958	7,46	-0,028
1046,112	7,52	-0,024
1048,266	7,66	-0,012
1050,414	7,68	-0,01
1052,574	7,7	-0,007
1054,727	7,7	-0,006
1056,869	7,72	-0,006
1059,023	7,7	-0,004
1061,183	7,72	-0,003
1063,337	7,7	-0,002
1065,491	7,68	-0,002
1067,645	7,68	-0,001
1069,799	7,68	-0,001
1071,953	7,66	-0,001
1074,112	7,64	0
1076,26	7,64	-0,005
1078,402	7,62	-0,02
1080,55	7,62	-0,097
1082,704	7,62	-0,189
1084,852	7,4	-0,337
1087	7,18	-0,36
1089,153	7,26	-0,293
1091,295	7,62	-0,136
1093,461	7,62	-0,226
1095,609	7,64	-0,186
1097,763	7,64	-0,301
1099,911	6,8	-0,34
1102,053	6,62	-0,471
1104,207	6,78	-0,486
1106,361	5,92	-0,581
1108,52	4,62	-0,673
1110,668	3,82	-0,743
1112,81	4,3	-0,75
1114,97	3,08	-0,866
1117,118	4,18	-0,792
1119,26	4,72	-0,714
1121,408	3,82	-0,721
1123,562	3,98	-0,805
1125,709	2,7	-0,896
1127,863	3,56	-0,9
1130,023	2,34	-1,008
1132,177	2,96	-0,928
1134,325	3,88	-0,876
1136,479	2,66	-0,964
1138,633	2,36	-1
1140,787	2,32	-0,946
1142,934	3,4	-0,923
1145,082	3,86	-0,798
1147,236	4,72	-0,728
1149,384	3,52	-0,852
1151,532	3,92	-0,772
1153,68	4,32	-0,805
1155,834	3,52	-0,831
1157,988	3,6	-0,813
1160,141	3,92	-0,828
1162,295	5	-0,678
1164,437	6,42	-0,593
1166,585	5,66	-0,532
1168,739	6,94	-0,482
1170,887	6,36	-0,462
1173,047	7,26	-0,379
1175,195	7,36	-0,337
1177,354	7,68	-0,215
1179,502	7,7	-0,142
1181,662	7,72	-0,218
1183,822	7,6	-0,215
1185,964	7,72	-0,244
1188,112	7,12	-0,332
1190,26	7,7	-0,268
1192,408	7,44	-0,274
1194,555	7,74	-0,292
1196,709	7,28	-0,3
1198,869	7,34	-0,298
1201,011	7,46	-0,429
1203,165	5,98	-0,498
1205,325	5,58	-0,611
1207,467	5,56	-0,577
1209,621	4,76	-0,682
1211,774	4,7	-0,697
1213,922	4,36	-0,735
1216,064	4,08	-0,788
1218,218	4,78	-0,774
1220,378	3,38	-0,898
1222,532	2,44	-1,01
1224,68	1,3	-1,053
1226,828	1,56	-1,128
1228,982	0,18	-1,238
1231,123	1,3	-1,13
1233,277	0,58	-1,251
1235,419	-0,78	-1,386
1237,585	-2,32	-1,604
1239,733	-1,1	-1,499
1241,887	-1,14	-1,508
1244,035	-0,2	-1,381
1246,177	-0,84	-1,5
1248,324	-0,98	-1,416
1250,478	-1,2	-1,485
1252,632	-0,48	-1,415
1254,774	0,18	-1,369
1256,928	-0,64	-1,406
1259,076	0,98	-1,295
1261,23	-0,48	-1,41
1263,378	-1,62	-1,539
1265,525	-2,82	-1,699
1267,673	-2,54	-1,737
1269,821	-3,9	-1,827
1271,981	-3,68	-1,836
1274,123	-4,12	-1,86
1276,277	-3,52	-1,778
1278,425	-3,84	-1,837
1280,573	-3,84	-1,918
1282,726	-4,46	-2,002
1284,862	-5,06	-2,033
1287,016	-7,18	-2,33
1289,176	-7,68	-2,353
1291,324	-6,32	-2,258
1293,472	-6,72	-2,312
1295,62	-7,14	-2,34
1297,78	-9,06	-2,56
1299,927	-8,78	-2,619
1302,069	-9,68	-2,702
1304,217	-10,94	-2,841
1306,365	-12,44	-3,032
1308,513	-12,58	-3,14
1310,661	-12,06	-3,266
1312,803	-14,38	-3,297
1314,951	-15,78	-3,377
1317,098	-17,46	-3,425
1319,246	-17,78	-3,454
1321,4	-18,16	-3,472
1323,56	-18,42	-3,485
1325,72	-18,46	-3,491
1327,868	-18,46	-3,491
1330,016	-18,44	-3,494
1332,164	-18,42	-3,496
1334,312	-18,36	-3,498
1336,465	-18,34	-3,498
1338,613	-18,3	-3,498
1340,755	-18,24	-3,499
1342,903	-18,24	-3,499
1345,063	-18,16	-3,499
1347,223	-18,14	-3,5
1349,377	-18,08	-3,46
1351,531	-18,06	-3,311
1353,684	-17,08	-3,115
1355,838	-16,62	-3,053
1357,992	-14,26	-2,804
1360,152	-12,8	-2,71
1362,306	-12,46	-2,542
1364,454	-10,46	-2,45
1366,608	-9,5	-2,318
1368,756	-8,38	-2,217
1370,897	-8,04	-2,208
1373,045	-7,38	-2,043
1375,193	-5,74	-1,936
1377,353	-4,94	-1,79
1379,501	-3,82	-1,64
1381,655	-2,64	-1,466
1383,815	-1,1	-1,278
1385,969	-0,72	-1,119
1388,116	0,4	-1,034
1390,258	0,26	-0,973
1392,412	1,24	-0,899
1394,578	2,12	-0,681
1396,738	3,26	-0,524
1398,886	3,48	-0,407
1401,034	4,96	-0,258
1403,188	5,4	-0,18
1405,347	6,1	-0,112
1407,489	6,54	-0,102
1409,649	6,96	-0,086
1411,803	7,3	-0,044
1413,963	7,64	-0,027
1416,111	7,74	-0,022
1418,271	7,86	-0,013
1420,419	7,86	-0,01
1422,572	7,88	-0,006
1424,732	7,88	-0,005
1426,88	7,88	-0,003
1429,04	7,86	-0,002
1431,188	7,84	-0,001
1433,342	7,82	-0,001
1435,484	7,82	-0,001
1437,644	7,82	-0,001
1439,803	7,78	-0,013
1441,963	7,78	-0,068
1444,111	7,76	-0,149
1446,265	7,74	-0,314
1448,413	6,94	-0,439
1450,573	5,56	-0,558
1452,727	4,74	-0,664
1454,869	3,94	-0,767
1457,016	3,22	-0,949
1459,164	2,54	-1,049
1461,324	0,76	-1,271
1463,472	-0,16	-1,394
1465,632	-0,24	-1,375
1467,78	-0,52	-1,423
1469,94	-1,74	-1,655
1472,088	-2,38	-1,66
1474,229	-2,16	-1,679
1476,377	-2,66	-1,754
1478,531	-2,74	-1,776
1480,679	-3,48	-1,914
1482,827	-4,6	-2,08
1484,981	-5,32	-2,233
1487,129	-6,16	-2,345
1489,271	-6,26	-2,362
1491,419	-6,06	-2,386
1493,572	-6,66	-2,405
1495,732	-7,2	-2,54
1497,88	-8,16	-2,685
1500,028	-9,86	-2,909
1502,176	-10,62	-3,016
1504,324	-11,7	-3,134
1506,49	-13,02	-3,277
1508,632	-12,9	-3,335
1510,797	-14,82	-3,406
1512,957	-15,46	-3,446
1515,099	-16	-3,459
1517,253	-16,18	-3,472
1519,413	-16,5	-3,482
1521,567	-16,58	-3,486
1523,721	-16,56	-3,49
1525,863	-16,56	-3,493
1528,01	-16,56	-3,494
1530,158	-16,56	-3,495
1532,3	-16,54	-3,496
1534,448	-16,5	-3,498
1536,596	-16,46	-3,498
1538,75	-16,44	-3,499
1540,904	-16,4	-3,499
1543,064	-16,34	-3,499
1545,211	-16,32	-3,5
1547,365	-16,28	-3,5
1549,519	-16,26	-3,485
1551,673	-16,22	-3,283
1553,827	-14,82	-3,067
1555,975	-14,64	-2,949
1558,123	-13,2	-2,927
1560,277	-13,24	-2,89
1562,43	-11,98	-2,748
1564,578	-10,34	-2,678
1566,738	-9,1	-2,489
1568,898	-7,42	-2,328
1571,052	-7,34	-2,207
1573,2	-5,5	-2,068
1575,348	-4,52	-1,849
1577,502	-2,92	-1,69
1579,649	-2,52	-1,621
1581,791	-2,38	-1,523
1583,939	-1,38	-1,464
1586,093	-1,36	-1,422
1588,253	-1,16	-1,35
1590,395	-0,36	-1,225
1592,543	0,86	-1,018
1594,697	2,1	-0,853
1596,857	2,54	-0,72
1599,004	3,02	-0,628
1601,152	3,92	-0,44
1603,3	4,12	-0,413
1605,448	4,72	-0,292
1607,59	4,34	-0,294
1609,738	4,68	-0,329
1611,892	4,68	-0,29
1614,04	5,56	-0,184
1616,181	6,06	-0,15
1618,341	6,6	-0,092
1620,489	6,92	-0,051
1622,625	7,62	-0,03
1624,779	7,76	-0,018
1626,927	7,74	-0,014
1629,093	7,82	-0,008
1631,235	7,82	-0,006
1633,394	7,84	-0,004
1635,542	7,8	-0,002
1637,696	7,78	-0,001
1639,844	7,76	-0,001
1641,992	7,76	0
1644,14	7,74	-0,013
1646,282	7,72	-0,054
1648,442	7,42	-0,287
1650,601	6	-0,531
1652,743	5,14	-0,656
1654,891	4,86	-0,699
1657,045	4,38	-0,874
1659,193	2,52	-0,933
1661,341	2,6	-1,03
1663,489	2,02	-1,105
1665,643	0,18	-1,305
1667,784	-0,42	-1,452
1669,944	-1,94	-1,672
1672,098	-2,54	-1,798
1674,246	-3,2	-1,916
1676,388	-3,54	-1,984
1678,542	-4,46	-2,131
1680,69	-4,4	-2,195
1682,844	-5,84	-2,386
1684,985	-6,48	-2,478
1687,139	-8,06	-2,738
1689,287	-9,04	-2,892
1691,441	-9,92	-3,018
1693,583	-11,02	-3,149
1695,737	-12,66	-3,331
1697,885	-13,12	-3,399
1700,045	-14,58	-3,439
1702,181	-15,4	-3,468
1704,328	-15,46	-3,481
1706,488	-15,66	-3,487
1708,636	-15,72	-3,492
1710,79	-15,72	-3,496
1712,932	-15,7	-3,497
1715,08	-15,7	-3,497
1717,216	-15,64	-3,498
1719,363	-15,64	-3,498
1721,505	-15,62	-3,498
1723,647	-15,58	-3,499
1725,795	-15,52	-3,5
1727,949	-15,46	-3,5
1730,103	-15,44	-3,301
1732,251	-15,14	-3,236
1734,405	-14,84	-3,139
1736,559	-13,68	-2,994
1738,7	-13,34	-2,988
1740,848	-12,6	-2,838
1742,99	-10,8	-2,787
1745,138	-9,9	-2,664
1747,28	-9,6	-2,587
1749,428	-6,9	-2,357
1751,576	-6,22	-2,192
1753,718	-5,56	-2,13
1755,865	-5,54	-2,049
1758,013	-3,94	-1,906
1760,155	-3,38	-1,833
1762,303	-3,06	-1,7
1764,451	-1,36	-1,508
1766,605	-0,72	-1,286
1768,747	0,3	-1,214
1770,895	0,52	-1,086
1773,036	1,16	-0,983
1775,178	1,64	-0,82
1777,332	2,78	-0,658
1779,486	3,82	-0,508
1781,634	4,38	-0,369
1783,776	4,44	-0,289
1785,936	5,4	-0,183
1788,096	5,82	-0,128
1790,243	6,58	-0,074
1792,391	7,24	-0,056
1794,545	7,4	-0,042
1796,705	7,6	-0,028
1798,847	7,6	-0,023
1801,001	7,68	-0,016
1803,155	7,76	-0,01
1805,321	7,78	-0,006
1807,468	7,76	-0,003
1809,622	7,76	-0,002
1811,782	7,74	-0,001
1813,93	7,74	-0,001
1816,084	7,7	-0,001
1818,232	7,68	-0,033
1820,386	7,66	-0,242
1822,528	6,88	-0,38
1824,687	4,36	-0,675
1826,841	3,26	-0,855
1828,989	2,66	-0,935
1831,143	1,56	-1,11
1833,291	1,14	-1,195
1835,433	0,86	-1,208
1837,587	0,14	-1,357
1839,735	-0,94	-1,532
1841,882	-1,86	-1,693
1844,036	-2,3	-1,808
1846,184	-3,36	-1,942
1848,326	-3,38	-2,003
1850,48	-3,86	-2,125
1852,634	-4,38	-2,283
1854,776	-5,16	-2,416
1856,933	-6,64	-2,592
1859,072	-6,52	-2,648
1861,219	-7,74	-2,751
1863,373	-8,1	-2,839
1865,521	-9,36	-2,941
1867,663	-9,5	-3,024
1869,817	-9,24	-3,113
1871,971	-10,56	-3,217
1874,131	-10,52	-3,33
1876,273	-12,34	-3,344
1878,42	-13,08	-3,383
1880,58	-14,54	-3,451
1882,722	-14,44	-3,457
1884,876	-14,58	-3,468
1887,024	-14,7	-3,475
1889,178	-14,96	-3,484
1891,326	-14,96	-3,486
1893,48	-14,98	-3,491
1895,627	-14,98	-3,493
1897,775	-14,98	-3,495
1899,929	-14,94	-3,497
1902,089	-14,92	-3,498
1904,237	-14,84	-3,499
1906,391	-14,84	-3,499
1908,545	-14,8	-3,5
1910,693	-14,76	-3,5
1912,846	-14,72	-3,412
1914,994	-14,68	-3,274
1917,136	-14,3	-3,257
1919,29	-13,76	-3,057
1921,444	-11,6	-2,904
1923,592	-11,78	-2,818
1925,752	-10,44	-2,645
1927,9	-8,48	-2,512
1930,059	-6,56	-2,308
1932,201	-5,66	-2,213
1934,349	-4,32	-2,005
1936,497	-3,84	-1,948
1938,639	-3,42	-1,903
1940,787	-2,96	-1,821
1942,941	-2,46	-1,715
1945,083	-2,16	-1,687
1947,231	-1,8	-1,607
1949,384	-0,96	-1,421
1951,526	-0,56	-1,371
1953,68	-0,22	-1,282
1955,828	0,24	-1,18
1957,97	1,74	-0,934
1960,124	1,66	-0,858
1962,272	1,76	-0,827
1964,425	2,5	-0,722
1966,573	3,2	-0,625
1968,727	3,18	-0,494
1970,881	3,92	-0,393
1973,017	4,28	-0,368
1975,165	4,4	-0,269
1977,313	5,24	-0,212
1979,461	5,38	-0,145
1981,621	5,84	-0,122
1983,774	6,8	-0,074
1985,922	6,98	-0,039
1988,076	7,26	-0,035
1990,23	7,34	-0,02
1992,378	7,5	-0,014
1994,526	7,54	-0,009
1996,68	7,56	-0,006
1998,834	7,54	-0,005
2000,981	7,54	-0,005
2003,129	7,52	-0,003
2005,283	7,5	-0,002
2007,431	7,5	-0,001
2009,591	7,46	-0,001
2011,745	7,46	0
2013,887	7,46	0
2016,029	7,42	-0,067
2018,176	7,42	-0,152
2020,324	7,4	-0,253
2022,478	6,62	-0,381
2024,626	7	-0,436
2026,768	6,68	-0,433
2028,91	4,56	-0,606
2031,064	3,74	-0,85
2033,218	2,28	-0,971
2035,359	2,12	-0,995
2037,513	1,3	-1,148
2039,661	0,74	-1,229
2041,809	-0,62	-1,421
2043,957	-0,82	-1,533
2046,099	-1,7	-1,7
2048,247	-1,6	-1,782
2050,401	-2,28	-1,86
2052,548	-3,18	-1,967
2054,69	-3,32	-2,049
2056,844	-4,18	-2,277
2058,992	-5	-2,357
2061,14	-4,98	-2,444
2063,288	-5,98	-2,551
2065,436	-5,9	-2,621
2067,59	-6,84	-2,726
2069,737	-7,8	-2,902
2071,891	-8,58	-3,044
2074,039	-9,14	-3,146
2076,187	-9,98	-3,254
2078,341	-11,28	-3,377
2080,483	-11,64	-3,392
2082,637	-12,38	-3,429
2084,791	-13,04	-3,449
2086,938	-13,5	-3,472
2089,092	-13,56	-3,48
2091,246	-13,74	-3,489
2093,406	-13,76	-3,492
2095,554	-13,74	-3,494
2097,696	-13,74	-3,496
2099,85	-13,72	-3,498
2101,992	-13,7	-3,498
2104,14	-13,68	-3,499
2106,287	-13,64	-3,499
2108,429	-13,62	-3,499
2110,571	-13,6	-3,499
2112,719	-13,58	-3,5
2114,873	-13,54	-3,369
2117,027	-13,16	-3,19
2119,181	-11,92	-3,004
2121,329	-9,96	-2,903
2123,47	-10,02	-2,852
2125,618	-9,66	-2,803
2127,778	-8,42	-2,619
2129,926	-6,5	-2,459
2132,074	-5,66	-2,335
2134,228	-5,14	-2,242
2136,37	-4,36	-2,143
2138,524	-3,3	-2,006
2140,677	-3,32	-1,896
2142,819	-2,94	-1,844
2144,967	-1,84	-1,718
2147,115	-1,96	-1,658
2149,263	-1,22	-1,593
2151,417	-1,2	-1,467
2153,571	-0,16	-1,298
2155,707	-0,04	-1,314
2157,86	0	-1,188
2160,014	0,76	-1,067
2162,156	1,02	-1,022
2164,316	1,68	-0,806
2166,464	2,46	-0,704
2168,606	2,78	-0,623
2170,772	3,36	-0,42
2172,926	4,54	-0,229
2175,067	5,06	-0,177
2177,221	5,86	-0,101
2179,369	6,36	-0,066
2181,523	6,76	-0,039
2183,671	7	-0,024
2185,819	7,12	-0,019
2187,967	7,2	-0,01
2190,121	7,22	-0,007
2192,268	7,22	-0,006
2194,422	7,22	-0,004
2196,576	7,22	-0,003
2198,73	7,2	-0,002
2200,878	7,18	-0,001
2203,032	7,16	-0,001
2205,18	7,14	0
2207,316	7,14	-0,002
2209,464	7,12	-0,06
2211,617	6,64	-0,269
2213,765	6,34	-0,394
2215,919	5,42	-0,494
2218,067	4,92	-0,585
2220,209	6,08	-0,572
2222,363	3,7	-0,746
2224,511	3,64	-0,762
2226,659	2,66	-0,907
2228,812	2,08	-1,018
2230,966	0,92	-1,166
2233,108	0,66	-1,28
2235,262	-0,34	-1,438
2237,416	-1,28	-1,596
2239,558	-1,16	-1,62
2241,706	-1,62	-1,759
2243,866	-2,6	-1,985
2246,007	-2,98	-2,077
2248,167	-3,2	-2,192
2250,327	-4	-2,353
2252,469	-4,02	-2,35
2254,617	-4,68	-2,436
2256,771	-4,98	-2,611
2258,913	-5,26	-2,721
2261,079	-6,6	-2,837
2263,232	-6,52	-2,953
2265,38	-7,12	-2,975
2267,534	-8,42	-3,138
2269,694	-8,98	-3,262
2271,836	-9,96	-3,342
2273,99	-10,74	-3,406
2276,15	-11,48	-3,449
2278,286	-11,74	-3,454
2280,433	-11,94	-3,474
2282,593	-12,36	-3,484
2284,741	-12,4	-3,489
2286,889	-12,38	-3,493
2289,049	-12,46	-3,494
2291,191	-12,46	-3,496
2293,351	-12,44	-3,497
2295,499	-12,44	-3,497
2297,646	-12,4	-3,498
2299,8	-12,38	-3,499
2301,96	-12,34	-3,499
2304,108	-12,32	-3,5
2306,268	-12,26	-3,431
2308,422	-12,24	-3,242
2310,576	-11,44	-3,129
2312,742	-9,68	-2,946
2314,895	-8,18	-2,835
2317,043	-8,6	-2,787
2319,197	-6,74	-2,603
2321,345	-7,04	-2,639
2323,487	-7,36	-2,63
2325,641	-6,38	-2,558
2327,795	-6	-2,447
2329,943	-5,68	-2,403
2332,09	-4,6	-2,317
2334,238	-4,36	-2,263
2336,386	-3,8	-2,061
2338,546	-3,04	-1,936
2340,7	-2,42	-1,863
2342,842	-2,3	-1,834
2345,008	-1,78	-1,637
2347,156	-0,78	-1,482
2349,304	-0,68	-1,384
2351,451	-0,02	-1,3
2353,605	0,42	-1,124
2355,747	0,3	-1,09
2357,901	1,2	-0,905
2360,043	1,72	-0,725
2362,191	2,36	-0,668
2364,339	2,46	-0,55
2366,487	2,62	-0,492
2368,628	2,98	-0,408
2370,782	3,48	-0,27
2372,93	4,12	-0,224
2375,09	5,28	-0,121
2377,244	5,3	-0,08
2379,386	5,88	-0,055
2381,534	6,34	-0,042
2383,682	6,36	-0,036
2385,823	6,36	-0,03
2387,977	6,56	-0,022
2390,137	6,72	-0,012
2392,279	6,68	-0,012
2394,439	6,76	-0,006
2396,587	6,78	-0,006
2398,723	6,76	-0,005
2400,871	6,76	-0,003
2403,024	6,78	-0,002
2405,166	6,76	-0,002
2407,314	6,76	-0,002
2409,468	6,74	-0,001
2411,61	6,72	-0,001
2413,758	6,72	0
2415,906	6,7	0
2418,054	6,68	-0,132
2420,213	6,3	-0,327
2422,367	5	-0,535
2424,527	3,84	-0,658
2426,681	3,86	-0,78
2428,829	2,78	-0,823
2430,983	3,14	-0,843
2433,131	3,62	-0,679
2435,273	3,78	-0,708
2437,432	2,78	-0,838
2439,586	1,3	-1,04
2441,734	0,84	-1,216
2443,888	0,82	-1,187
2446,048	0,16	-1,312
2448,19	0,2	-1,305
2450,344	-0,36	-1,399
2452,486	-0,32	-1,466
2454,633	-0,58	-1,663
2456,793	-1,92	-1,899
2458,941	-1,56	-1,884
2461,089	-2,12	-1,949
2463,237	-2,28	-2,023
2465,385	-2,72	-2,131
2467,539	-3,06	-2,278
2469,681	-3,4	-2,346
2471,829	-3,74	-2,432
2473,976	-4,24	-2,559
2476,124	-4,96	-2,641
2478,272	-5,34	-2,822
2480,426	-5,86	-2,878
2482,574	-6,24	-2,969
2484,716	-6,14	-3,042
2486,864	-7,4	-3,171
2489,024	-8,6	-3,311
2491,165	-9,56	-3,376
2493,325	-10,22	-3,425
2495,473	-10,6	-3,444
2497,615	-10,92	-3,457
2499,763	-11,02	-3,465
2501,923	-11,42	-3,48
2504,065	-11,44	-3,485
2506,225	-11,58	-3,492
2508,384	-11,62	-3,495
2510,532	-11,62	-3,496
2512,68	-11,62	-3,498
2514,828	-11,6	-3,498
2516,982	-11,58	-3,498
2519,13	-11,58	-3,499
2521,278	-11,56	-3,499
2523,432	-11,52	-3,5
2525,591	-11,5	-3,382
2527,739	-11,42	-3,242
2529,893	-10,78	-3,099
2532,041	-8,32	-2,932
2534,189	-7,68	-2,814
2536,337	-6,88	-2,712
2538,485	-5,7	-2,528
2540,633	-5,02	-2,398
2542,78	-4,18	-2,237
2544,928	-3,76	-2,145
2547,088	-2,7	-1,942
2549,248	-2,2	-1,774
2551,396	-1,34	-1,645
2553,544	-1,24	-1,603
2555,704	-1,18	-1,6
2557,846	-1,56	-1,625
2560,005	-1,04	-1,51
2562,153	-0,8	-1,44
2564,313	-0,42	-1,338
2566,467	-0,54	-1,349
2568,609	-0,98	-1,48
2570,769	-0,68	-1,415
2572,929	-0,34	-1,343
2575,077	-0,06	-1,263
2577,225	-0,14	-1,272
2579,372	-0,34	-1,314
2581,52	-0,2	-1,28
2583,674	-0,1	-1,309
2585,816	-0,26	-1,304
2587,97	-0,46	-1,365
2590,124	-0,16	-1,249
2592,266	-0,28	-1,305
2594,419	0	-1,275
2596,573	0	-1,249
2598,715	0,38	-1,151
2600,863	0,6	-1,075
2603,017	0,96	-1,008
2605,165	0,86	-0,949
2607,319	1,56	-0,789
2609,473	2,32	-0,615
2611,615	2,28	-0,565
2613,768	2,74	-0,385
2615,916	3,74	-0,245
2618,064	3,72	-0,187
2620,218	4,62	-0,126
2622,366	4,96	-0,097
2624,514	5,78	-0,065
2626,674	5,96	-0,044
2628,816	6,06	-0,04
2630,975	6,28	-0,027
2633,117	6,34	-0,018
2635,265	6,42	-0,012
2637,407	6,44	-0,008
2639,549	6,48	-0,004
2641,697	6,5	-0,003
2643,839	6,5	-0,002
2645,987	6,48	-0,001
2648,135	6,46	-0,001
2650,276	6,46	0
2652,43	6,44	-0,138
2654,572	6,12	-0,229
2656,726	5,84	-0,444
2658,874	4,4	-0,579
2661,028	3,84	-0,695
2663,176	2,04	-0,882
2665,335	1,04	-1,156
2667,477	0,7	-1,216
2669,631	0,06	-1,321
2671,785	-0,24	-1,47
2673,945	-0,74	-1,674
2676,093	-1,64	-1,86
2678,235	-2,16	-2,016
2680,383	-2,66	-2,193
2682,536	-3,16	-2,346
2684,684	-3,74	-2,517
2686,832	-4,56	-2,73
2688,986	-5,48	-2,896
2691,134	-6,26	-3,044
2693,294	-7,12	-3,174
2695,46	-7,92	-3,352
2697,602	-9,4	-3,421
2699,761	-10,6	-3,466
2701,915	-10,96	-3,478
2704,057	-11,06	-3,484
2706,217	-11,12	-3,49
2708,365	-11,18	-3,494
2710,513	-11,18	-3,495
2712,661	-11,22	-3,498
2714,803	-11,2	-3,498
2716,95	-11,18	-3,499
2719,104	-11,18	-3,499
2721,246	-11,14	-3,5
2723,4	-11,12	-3,405
2725,554	-11,12	-3,223
2727,696	-10,3	-3,086
2729,844	-9,56	-2,984
2731,986	-7,9	-2,929
2734,14	-7,8	-2,791
2736,293	-6,08	-2,601
2738,441	-5,28	-2,446
2740,601	-4,68	-2,258
2742,743	-4,12	-2,18
2744,897	-3,22	-2,048
2747,057	-2,44	-1,892
2749,199	-2,4	-1,814
2751,347	-1,08	-1,565
2753,494	-0,8	-1,462
2755,648	-0,14	-1,319
2757,802	0,02	-1,14
2759,944	0,68	-1,064
2762,098	1,04	-0,899
2764,246	1,56	-0,739
2766,4	1,98	-0,568
2768,548	2,66	-0,453
2770,707	3,42	-0,227
2772,849	4,12	-0,15
2775,003	5,1	-0,095
2777,157	5,6	-0,054
2779,299	5,94	-0,028
2781,447	6,24	-0,017
2783,589	6,32	-0,012
2785,737	6,38	-0,005
2787,896	6,38	-0,002
2790,038	6,38	-0,001
2792,186	6,36	-0,001
2794,346	6,34	-0,005
2796,488	6,3	-0,197
2798,642	5,58	-0,402
2800,79	4,56	-0,568
2802,944	2,86	-0,754
2805,091	2,28	-0,941
2807,233	1,22	-1,118
2809,381	0,44	-1,236
2811,523	0,06	-1,329
2813,683	-0,64	-1,619
2815,843	-1,42	-1,839
2817,985	-2,18	-2,049
2820,145	-2,68	-2,269
2822,298	-3,24	-2,46
2824,44	-3,9	-2,51
2826,594	-4,16	-2,716
2828,748	-4,94	-2,87
2830,896	-5,5	-2,983
2833,044	-6,58	-3,116
2835,192	-7,32	-3,252
2837,352	-8,06	-3,329
2839,493	-9,54	-3,428
2841,647	-9,78	-3,452
2843,801	-10,74	-3,476
2845,949	-10,86	-3,485
2848,097	-10,98	-3,491
2850,251	-11	-3,496
2852,399	-11	-3,497
2854,547	-11	-3,498
2856,694	-10,98	-3,499
2858,848	-10,96	-3,499
2860,996	-10,96	-3,491
2863,144	-10,96	-3,37
2865,286	-10,92	-3,329
2867,428	-10,3	-3,171
2869,582	-9,46	-3,039
2871,736	-6,88	-2,789
2873,884	-6,46	-2,704
2876,037	-5,16	-2,544
2878,179	-4,62	-2,383
2880,339	-3,98	-2,264
2882,487	-3,74	-2,209
2884,641	-3,26	-2,132
2886,801	-2,14	-1,879
2888,949	-2,14	-1,789
2891,103	-1,18	-1,582
2893,256	-0,5	-1,434
2895,398	-0,22	-1,352
2897,546	-0,2	-1,244
2899,688	0	-1,209
2901,848	0,48	-1,064
2903,996	1,08	-0,947
2906,138	0,78	-0,971
2908,292	1,06	-0,843
2910,445	1,48	-0,658
2912,587	2,04	-0,572
2914,741	2,58	-0,393
2916,889	2,9	-0,285
2919,049	3,84	-0,162
2921,203	4,7	-0,108
2923,345	4,72	-0,082
2925,493	5,52	-0,058
2927,64	5,68	-0,046
2929,794	6,06	-0,024
2931,948	6,1	-0,015
2934,09	6,14	-0,011
2936,25	6,24	-0,006
2938,398	6,26	-0,003
2940,54	6,26	-0,002
2942,7	6,24	-0,002
2944,853	6,22	-0,001
2947,007	6,22	0
2949,149	6,22	-0,028
2951,297	6,2	-0,122
2953,451	5,86	-0,276
2955,599	5,34	-0,438
2957,759	4,02	-0,58
2959,907	3,44	-0,766
2962,066	1,68	-1,04
2964,214	0,82	-1,162
2966,356	0,64	-1,266
2968,516	-0,06	-1,46
2970,658	-0,34	-1,532
2972,812	-0,96	-1,748
2974,966	-1,18	-1,855
2977,108	-1,44	-1,931
2979,256	-2,04	-2,054
2981,409	-2,74	-2,218
2983,551	-2,84	-2,3
2985,705	-3,26	-2,475
2987,847	-3,86	-2,615
2990,001	-4,64	-2,758
2992,143	-5,22	-2,947
2994,297	-6,26	-3,105
2996,451	-7,5	-3,262
2998,592	-7,72	-3,328
3000,746	-8,7	-3,41
3002,888	-9,86	-3,439
3005,042	-10,32	-3,47
3007,19	-10,48	-3,479
3009,344	-10,66	-3,489
3011,498	-10,74	-3,492
3013,64	-10,74	-3,494
3015,793	-10,76	-3,495
3017,953	-10,78	-3,497
3020,095	-10,76	-3,498
3022,243	-10,76	-3,499
3024,385	-10,74	-3,499
3026,533	-10,72	-3,499
3028,687	-10,7	-3,475
3030,835	-10,68	-3,381
3032,988	-10,38	-3,244
3035,13	-9,26	-3,117
3037,284	-9,78	-3,017
3039,432	-7,52	-2,826
3041,58	-6,74	-2,733
3043,74	-5,4	-2,539
3045,888	-4,32	-2,4
3048,042	-4,1	-2,242
3050,201	-3,12	-2,049
3052,343	-2,9	-2,008
3054,497	-2,06	-1,77
3056,645	-1,36	-1,618
3058,793	-0,76	-1,472
3060,941	-0,38	-1,328
3063,083	-0,08	-1,158
3065,237	0,66	-0,969
3067,378	1,08	-0,838
3069,526	1,74	-0,689
3071,68	1,82	-0,537
3073,822	2,12	-0,454
3075,97	3,24	-0,244
3078,118	3,62	-0,178
3080,272	4,24	-0,112
3082,426	5,2	-0,067
3084,567	5,48	-0,052
3086,727	5,88	-0,027
3088,869	5,9	-0,015
3091,017	6,08	-0,008
3093,177	6,12	-0,004
3095,319	6,12	-0,004
3097,467	6,14	-0,002
3099,615	6,12	-0,001
3101,762	6,1	-0,001
3103,916	6,1	-0,007
3106,058	6,08	-0,236
3108,212	5,28	-0,472
3110,354	4,44	-0,554
3112,502	2,7	-0,71
3114,65	3,02	-0,854
3116,798	1,58	-1,026
3118,952	0,68	-1,211
3121,094	0,34	-1,314
3123,241	-0,16	-1,463
3125,383	-0,6	-1,61
3127,531	-1,08	-1,786
3129,679	-1,5	-1,956
3131,821	-1,88	-2,044
3133,969	-2,42	-2,226
3136,117	-2,92	-2,397
3138,27	-3,28	-2,528
3140,418	-3,94	-2,614
3142,572	-4,34	-2,757
3144,726	-4,84	-2,92
3146,874	-5,54	-3,07
3149,028	-6,74	-3,239
3151,17	-6,24	-3,308
3153,318	-7,8	-3,356
3155,459	-9,2	-3,426
3157,607	-9,56	-3,448
3159,755	-9,9	-3,464
3161,897	-10,3	-3,476
3164,051	-10,3	-3,484
3166,193	-10,38	-3,487
3168,341	-10,5	-3,491
3170,489	-10,52	-3,495
3172,636	-10,54	-3,497
3174,796	-10,54	-3,498
3176,938	-10,52	-3,499
3179,092	-10,5	-3,406
3181,24	-10,42	-3,246
3183,394	-8,88	-3,008
3185,542	-7,54	-2,838
3187,69	-6,14	-2,645
3189,843	-4,82	-2,466
3191,985	-4,1	-2,325
3192,783	6,04	-0,001