File: Cycling_tests/_50perc/_2gap/entrada/_1.txt
Time (s)	Load (N)	Displacement (mm)
0	0	-0,035
0,412	-11	-2,134
0,814	-22	-3,484
1,204	-18	-2,789
1,594	-4,5	-0,809
1,994	0,5	-0,003
2,386	-5	-1,326
2,786	-17	-3,317
3,173	-20,5	-3,499
3,544	-10	-1,775
3,94	0,5	-0,065
4,318	0	-0,406
4,702	-9,5	-2,311
5,092	-20	-3,49
5,614	-11,5	-2,03
5,98	-0,5	-0,202
6,358	1	0
6,73	-6,5	-1,781
7,108	-19	-3,431
7,474	-20	-3,391
7,852	-7,5	-1,49
8,338	1	-0,007
8,71	-3	-1,032
9,118	-15	-3,101
9,552	-20	-3,499
9,928	-9,5	-1,75
10,306	0	-0,084
10,672	1	-0,159
11,032	-7,5	-1,967
11,404	-19,5	-3,458
11,818	-18	-2,995
12,19	-5	-1,129
12,565	1	-0,013
12,922	-1,5	-0,816
13,299	-12	-2,706
13,665	-19,5	-3,495
14,031	-15	-2,517
14,403	-2,5	-0,687
14,788	1	-0,002
15,155	-4,5	-1,348
15,549	-15,5	-3,306
15,925	-19,5	-3,499
16,281	-9,5	-1,882
16,647	0	-0,127
17,025	1	-0,032
17,409	-7	-1,946
17,775	-19	-3,45
18,189	-18,5	-3,008
18,555	-4,5	-1,152
18,927	1	-0,014
19,299	-0,5	-0,69
19,671	-10,5	-2,57
20,039	-19,5	-3,493
20,409	-15	-2,646
20,781	-2,5	-0,785
21,159	1,5	-0,004
21,537	-4	-1,2
21,903	-13,5	-3,03
22,305	-19,5	-3,499
22,665	-10,5	-2,063
23,043	0	-0,201
23,415	1,5	0
23,787	-5,5	-1,763
24,153	-17	-3,412
24,567	-19	-3,263
24,939	-5,5	-1,394
25,359	1,5	-0,013
25,719	-0,5	-0,737
26,091	-10,5	-2,597
26,461	-19,5	-3,494
26,829	-14,5	-2,59
27,201	-2,5	-0,725
27,621	1,5	-0,002
27,981	-4	-1,35
28,347	-14	-3,219
28,743	-19	-3,499
29,121	-8,5	-1,864
29,487	0	-0,13
29,847	1,5	0
30,219	-5,5	-1,822
30,609	-18	-3,448
30,969	-19	-3,37
31,341	-6	-1,49
31,725	1,5	-0,032
32,097	0	-0,5
32,463	-9	-2,335
32,822	-19	-3,484
33,2	-16	-2,904
33,584	-3	-0,983
33,956	1,5	-0,007
34,328	-2	-1,046
34,706	-12	-2,901
35,122	-19	-3,498
35,498	-9,5	-2,051
35,888	0	-0,153
36,272	1,5	-0,012
36,644	-6	-1,888
37,004	-17,5	-3,435
37,37	-19	-3,354
37,736	-6	-1,516
151,694	-2,5	-1,2
152,066	-11	-3,06
152,468	-16,5	-3,499
152,828	-7	-1,995
153,2	0,5	-0,178
153,577	2	0
153,944	-4,5	-1,769
154,321	-15	-3,428
154,693	-16,5	-3,392
155,059	-4,5	-1,543
155,434	2	-0,044
155,799	1,5	-0,368
156,168	-6,5	-2,228
156,655	-16,5	-3,496
157,015	-9,5	-2,358
157,393	0	-0,469
157,769	2	-0,002
158,125	-3	-1,418
158,497	-13	-3,266
158,857	-16,5	-3,499
159,223	-8	-1,973
159,607	0,5	-0,138
159,973	2	-0,001
160,411	-6	-2,219
160,789	-16,5	-3,48
161,167	-13,5	-2,88
161,533	-2	-1,02
161,968	2	-0,004
162,355	-3	-1,255
162,715	-11,5	-3,059
163,087	-16,5	-3,498
163,459	-8	-2,127
163,834	0	-0,27
164,203	1,5	-0,001
164,587	-4,5	-1,681
164,965	-14,5	-3,406
165,337	-16,5	-3,45
165,715	-4,5	-1,534
166,093	1,5	-0,038
166,477	1	-0,475
166,843	-6,5	-2,275
167,221	-16,5	-3,486
167,593	-13,5	-2,835
167,971	-1,5	-0,944
168,331	2	-0,008
168,697	-1	-0,875
169,075	-9,5	-2,765
169,447	-16,5	-3,496
169,813	-10	-2,369
170,203	0	-0,419
170,617	2	-0,001
170,982	-4	-1,64
171,342	-14	-3,359
171,709	-16,5	-3,5
172,105	-4,5	-1,524
172,5	1,5	-0,028
172,867	0	-0,542
173,256	-8	-2,472
173,622	-16,5	-3,49
174,014	-11,5	-2,618
174,378	-1,5	-0,788
174,744	2	-0,005
175,104	-1,5	-0,99
175,473	-10	-2,82
175,83	-16,5	-3,496
176,202	-9,5	-2,273
176,569	0	-0,443
176,936	2	-0,002
177,432	-5,5	-2,055
177,804	-15,5	-3,468
178,176	-15	-3,049
178,554	-2,5	-1,158
178,968	2	-0,007
179,34	-1,5	-1,011
179,718	-10	-2,901
180,078	-16,5	-3,497
180,444	-9	-2,287
180,822	0	-0,397
181,2	2	-0,001
181,584	-4	-1,65
181,968	-15	-3,414
182,34	-16,5	-3,304
182,718	-4	-1,438
183,084	1,5	-0,034
183,45	1	-0,448
183,816	-6,5	-2,278
184,188	-16,5	-3,486
184,566	-13	-2,832
184,95	-1,5	-0,912
185,31	2	-0,007
185,688	-1,5	-0,984
186,07	-10,5	-2,905
186,486	-16	-3,499
186,846	-7	-1,994
187,218	0,5	-0,178
187,584	2	0
187,944	-4,5	-1,796
188,31	-15	-3,42
188,676	-16	-3,43
189,053	-4,5	-1,514
339,669	-4	-1,507
340,041	2	-0,039
340,401	1,5	-0,368
340,761	-5,5	-2,169
341,133	-15	-3,477
341,499	-14,5	-3,044
341,865	-2,5	-1,214
342,231	2	-0,016
342,603	0	-0,72
342,975	-7,5	-2,58
343,353	-15	-3,494
343,719	-10,5	-2,64
344,092	-1	-0,78
344,451	2	-0,005
344,817	-2	-1,104
345,183	-9	-2,934
345,548	-15	-3,498
345,914	-8,5	-2,309
346,388	1	-0,097
346,748	2	-0,086
347,12	-4,5	-1,994
347,504	-15	-3,467
347,876	-14,5	-3,133
348,242	-3	-1,302
348,609	2	-0,02
348,986	0	-0,688
349,358	-7	-2,553
349,73	-15	-3,493
350,09	-11,5	-2,663
350,456	-1,5	-0,833
350,942	2	-0,001
351,308	-3,5	-1,659
351,668	-12,5	-3,367
352,04	-15	-3,5
352,412	-5	-1,684
352,778	1,5	-0,075
353,144	2	-0,268
353,516	-5	-2,131
353,89	-15	-3,475
354,254	-14	-3,003
354,62	-3	-1,173
355,112	2	-0,002
355,472	-2,5	-1,323
355,844	-10,5	-3,184
356,216	-15	-3,499
356,588	-6	-1,901
356,954	1	-0,138
357,332	2	-0,054
357,693	-4	-1,886
358,064	-14,5	-3,444
358,43	-15	-3,275
358,814	-3	-1,351
359,174	2	-0,027
359,654	-2	-1,123
360,032	-9,5	-3,013
360,404	-15	-3,498
360,77	-7	-2,11
361,154	0,5	-0,233
361,526	2	0
361,892	-3,5	-1,702
362,252	-13	-3,396
362,618	-15	-3,499
362,986	-4,5	-1,64
363,361	1,5	-0,06
363,721	1,5	-0,308
364,095	-5,5	-2,17
364,567	-15	-3,495
364,94	-9,5	-2,455
365,323	0	-0,534
365,689	2	-0,002
366,067	-3	-1,46
366,427	-11	-3,253
366,793	-15	-3,499
367,153	-5,5	-1,98
367,519	0,5	-0,187
367,885	2	0
368,251	-3,5	-1,8
368,731	-15	-3,487
369,103	-11,5	-2,73
369,475	-1	-0,875
369,853	2	-0,005
370,231	-2	-1,162
370,603	-9,5	-3,023
370,975	-15	-3,498
371,341	-7	-2,11
371,707	0	-0,282
372,073	2,5	-0,001
372,439	-3,5	-1,649
372,925	-15	-3,48
373,297	-13	-2,931
373,663	-2	-1,101
374,023	2,5	-0,013
374,395	-0,5	-0,791
374,767	-7,5	-2,651
375,139	-15	-3,495
375,505	-9,5	-2,48
375,865	-0,5	-0,656
376,237	2,5	-0,003
376,603	-2,5	-1,315
376,969	-10	-3,145
451,616	-14,5	-3,195
451,984	-3	-1,368
452,343	2	-0,031
452,72	0,5	-0,633
453,092	-6	-2,488
453,452	-15	-3,49
453,824	-10,5	-2,093
454,298	0	-0,294
454,664	2	-0,001
455,024	-3	-1,622
455,402	-12,5	-3,387
455,762	-15	-3,495
456,14	-4	-1,621
456,506	1,5	-0,061
456,878	2	-0,338
457,238	-4,5	-2,139
457,598	-14,5	-3,47
457,976	-13,5	-3,005
458,336	-2	-1,209
458,696	2	-0,016
459,062	0	-0,76
459,422	-6,5	-2,56
459,788	-15	-3,492
460,16	-10	-2,626
460,52	-1	-0,826
460,886	2,5	-0,005
461,262	-1,5	-1,12
461,636	-9	-2,98
462,002	-15	-3,498
462,362	-7,5	-2,212
462,74	0	-0,323
463,1	2	-0,001
463,46	-3	-1,546
463,826	-11,5	-3,325
464,186	-15	-3,499
464,552	-4,5	-1,848
464,918	1,5	-0,124
465,404	0,5	-0,666
465,782	-6	-2,556
466,142	-15	-3,492
466,532	-9,5	-2,591
466,904	-0,5	-0,731
467,274	2,5	-0,003
467,654	-2	-1,272
468,021	-9,5	-3,102
468,397	-15	-3,499
468,77	-5	-1,964
469,141	1	-0,162
469,507	2,5	-0,003
469,873	-3,5	-1,84
470,239	-13,5	-3,431
470,599	-14,5	-3,36
470,965	-3,5	-1,522
471,331	2	-0,045
471,708	1	-0,488
472,075	-5,5	-2,318
472,435	-14,5	-3,483
472,801	-13	-2,933
473,167	-1,5	-1,102
473,539	2	-0,011
473,899	0	-0,827
474,259	-7	-2,656
474,625	-15	-3,494
475,105	-5,5	-1,95
475,474	1	-0,17
475,831	2,5	0
476,191	-3,5	-1,712
476,569	-13,5	-3,415
476,941	-15	-3,394
477,307	-3	-1,55
477,679	2	-0,045
478,039	2,5	-0,264
478,405	-4,5	-2,096
478,765	-14	-3,466
479,125	-15	-3,18
479,491	-2,5	-1,348
479,851	2	-0,029
480,343	-1,5	-1,101
480,703	-8,5	-2,901
481,069	-15	-3,497
481,435	-7,5	-2,294
481,813	0	-0,404
482,173	2,5	-0,001
482,545	-2,5	-1,445
482,905	-10,5	-3,24
483,277	-14,5	-3,499
483,643	-5,5	-1,886
484,009	1	-0,14
484,369	2,5	0
484,746	-4	-1,832
485,107	-13,5	-3,422
485,479	-15	-3,394
485,839	-3,5	-1,582
486,198	1,5	-0,06
486,685	-0,5	-0,816
487,044	-6,5	-2,616
487,416	-15	-3,494
487,776	-9	-2,53
488,154	0	-0,64
488,532	2,5	-0,002
563,444	-12	-3,345
563,816	-14,5	-3,5
564,176	-4,5	-1,738
564,662	2,5	-0,014
565,022	0	-0,672
565,382	-6	-2,472
565,75	-14,5	-3,49
566,12	-9,5	-2,64
566,486	-0,5	-0,809
566,852	2	-0,005
567,212	-1	-0,972
567,572	-7,5	-2,772
567,938	-14,5	-3,496
568,298	-8,5	-2,434
568,658	0	-0,635
569,024	2,5	-0,003
569,396	-1,5	-1,153
569,756	-8,5	-2,953
570,128	-14,5	-3,498
570,488	-6	-2,156
570,86	0,5	-0,296
571,232	2	-0,001
571,592	-3	-1,57
571,964	-12	-3,354
572,33	-14,5	-3,5
572,695	-4	-1,754
573,08	2	-0,07
573,446	2,5	-0,18
573,805	-4	-1,984
574,171	-14	-3,456
574,657	-9	-2,528
575,017	0	-0,698
575,383	2,5	-0,004
575,743	-1	-0,915
576,122	-8	-2,805
576,487	-14,5	-3,496
576,847	-8	-2,414
577,231	0	-0,495
577,591	2,5	-0,002
577,957	-2	-1,378
578,323	-10,5	-3,208
578,683	-14,5	-3,499
579,043	-5	-1,977
579,403	1	-0,203
579,769	2,5	-0,001
580,129	-3	-1,669
580,495	-12	-3,381
580,975	-12	-2,913
581,341	-1	-1,078
581,707	2,5	-0,011
582,073	0	-0,741
582,439	-6,5	-2,566
582,817	-14,5	-3,494
583,183	-9	-2,5
583,555	0	-0,64
583,927	2,5	-0,002
584,293	-2	-1,324
584,659	-10	-3,154
585,019	-14,5	-3,498
585,379	-5,5	-2,068
585,745	0,5	-0,247
586,105	2,5	-0,001
586,465	-3	-1,616
586,837	-12	-3,376
587,317	-12,5	-2,937
587,683	-1	-1,106
588,049	2,5	-0,012
588,421	-0,5	-0,816
588,793	-6,5	-2,67
589,165	-14,5	-3,495
589,531	-8,5	-2,505
589,897	0	-0,675
590,263	2,5	-0,003
590,622	-1,5	-1,158
590,994	-8,5	-2,983
591,354	-14,5	-3,497
591,714	-7	-2,244
592,086	0	-0,384
592,446	2,5	-0,001
592,806	-2,5	-1,48
593,178	-11,5	-3,308
593,544	-14,5	-3,499
593,904	-4	-1,825
594,27	1,5	-0,116
594,63	2,5	-0,009
595,002	-3,5	-1,885
595,375	-13,5	-3,446
595,734	-14,5	-3,287
596,106	-2,5	-1,427
596,484	2,5	-0,028
596,844	1,5	-0,502
597,222	-5,5	-2,358
597,582	-14,5	-3,485
597,942	-11	-2,88
598,31	-1	-1,049
598,794	2	-0,001
599,154	-2,5	-1,46
599,526	-11	-3,295
599,892	-14,5	-3,499
600,258	-4,5	-1,849
711,342	-9	-3,042
711,702	-14	-3,498
712,182	-3	-1,58
712,548	2	-0,054
712,907	1,5	-0,335
713,273	-5	-2,167
713,639	-14	-3,475
714,017	-11,5	-2,917
714,377	-1,5	-1,116
714,755	2,5	-0,011
715,121	-1	-0,862
715,481	-7	-2,662
715,847	-14,5	-3,494
716,213	-8	-2,505
716,573	0	-0,705
716,945	2	-0,003
717,311	-2,5	-1,291
717,671	-10	-3,091
718,031	-14,5	-3,498
718,403	-5,5	-2,071
718,763	0,5	-0,274
719,123	2	-0,001
719,609	-4,5	-2,238
719,981	-14	-3,482
720,347	-12	-2,909
720,713	-1,5	-1,079
721,079	2,5	-0,011
721,457	-1	-0,893
721,835	-8	-2,784
722,195	-14	-3,496
722,555	-7,5	-2,38
722,927	0	-0,521
723,293	2	-0,002
723,665	-2,5	-1,444
724,025	-10	-3,24
724,385	-14,5	-3,499
724,745	-5	-2,005
725,117	1	-0,184
725,477	2,5	0
725,837	-3	-1,655
726,197	-11	-3,366
726,563	-14	-3,5
726,923	-4	-1,773
727,283	1,5	-0,108
727,649	2	-0,073
728,135	-6	-2,523
728,495	-14	-3,491
728,861	-9	-2,633
729,227	-0,5	-0,803
729,593	2,5	-0,005
729,965	-1,5	-1,131
730,331	-9	-2,961
730,696	-14	-3,498
731,062	-6	-2,186
731,435	0,5	-0,331
731,8	2,5	-0,001
732,18	-3	-1,6
732,538	-11,5	-3,34
732,898	-14,5	-3,5
733,264	-4	-1,76
733,636	1,5	-0,086
733,996	2	-0,143
734,356	-4	-1,952
734,722	-13,5	-3,451
735,088	-14	-3,191
735,454	-2	-1,359
735,826	2	-0,025
736,186	1	-0,554
736,672	-9	-2,984
737,038	-14	-3,498
737,398	-6	-2,203
737,758	0	-0,403
738,124	2,5	-0,001
738,502	-3	-1,528
738,862	-10,5	-3,297
739,234	-14	-3,499
739,594	-4	-1,834
739,96	1,5	-0,119
740,338	2,5	-0,032
740,698	-3,5	-1,865
741,07	-13,5	-3,442
741,442	-13,5	-3,226
741,802	-2,5	-1,428
742,168	2	-0,034
742,534	1,5	-0,399
742,894	-5	-2,199
743,26	-13,5	-3,477
743,626	-12	-2,929
743,986	-2	-1,134
744,346	2	-0,015
744,712	0	-0,706
745,078	-6	-2,536
745,438	-14	-3,491
745,93	-5	-2,026
746,29	0,5	-0,237
746,656	2	0
747,022	-3	-1,718
747,394	-12,5	-3,408
747,76	-14	-3,455
748,125	-3	-1,599
859,251	-6,5	-2,735
859,617	-14	-3,495
859,977	-8	-2,468
860,343	0	-0,639
860,721	2,5	-0,002
861,087	-2	-1,293
861,453	-9	-3,123
861,825	-14	-3,499
862,185	-5,5	-2,063
862,551	0,5	-0,242
862,917	2	0
863,283	-3	-1,72
863,662	-12,5	-3,417
864,021	-14	-3,412
864,381	-3	-1,572
864,759	2	-0,047
865,125	1,5	-0,435
865,485	-4,5	-2,231
865,851	-13,5	-3,48
866,217	-12,5	-2,986
866,577	-1,5	-1,186
866,937	2	-0,018
867,309	0,5	-0,616
867,669	-5	-2,416
868,029	-13,5	-3,488
868,395	-10,5	-2,76
868,755	-1	-0,96
869,115	2	-0,009
869,613	-2,5	-1,497
869,973	-10	-3,276
870,332	-14	-3,499
870,693	-4,5	-1,861
871,058	1	-0,129
871,424	2,5	0
871,784	-3	-1,752
872,15	-12	-3,416
872,528	-14	-3,286
872,888	-3	-1,482
873,266	2	-0,033
873,626	1,5	-0,45
873,986	-4,5	-2,25
874,358	-13,5	-3,482
874,718	-11,5	-2,88
875,078	-1,5	-1,079
875,444	2,5	-0,012
875,81	-0,5	-0,844
876,17	-6	-2,644
876,536	-13,5	-3,494
876,896	-8,5	-2,558
877,262	0	-0,728
877,622	2,5	-0,004
877,988	-1,5	-1,122
878,348	-8	-2,922
878,708	-13,5	-3,497
879,2	-3	-1,565
879,56	2	-0,056
879,92	2	-0,254
880,28	-4	-2,056
880,652	-13,5	-3,468
881,018	-13	-3,088
881,384	-1,5	-1,258
881,75	2	-0,02
882,122	0	-0,654
882,482	-5,5	-2,454
882,848	-14	-3,49
883,226	-9	-2,621
883,586	-0,5	-0,82
883,952	2,5	-0,005
884,324	-1,5	-1,181
884,69	-8,5	-3,011
885,05	-14	-3,498
885,434	-6	-2,071
885,794	0,5	-0,274
886,166	2	-0,001
886,538	-3	-1,735
886,898	-11,5	-3,395
887,258	-13,5	-3,5
887,629	-3,5	-1,659
887,989	1,5	-0,076
888,349	2,5	-0,217
888,721	-4	-2,08
889,087	-13	-3,467
889,453	-12,5	-3,025
889,819	-2	-1,204
890,179	2	-0,018
890,539	0,5	-0,691
890,905	-5,5	-2,521
891,385	-13,5	-3,498
891,745	-5	-2,027
892,105	0,5	-0,238
892,471	2,5	0
892,831	-3	-1,71
893,191	-11,5	-3,386
893,569	-13,5	-3,475
893,935	-3	-1,62
894,301	1,5	-0,061
894,685	1,5	-0,372
895,051	-4,5	-2,203
895,411	-13,5	-3,475
895,789	-11,5	-2,919
1006,495	0,5	-0,384
1006,855	2,5	-0,001
1007,221	-2	-1,4
1007,581	-9	-3,199
1007,947	-13,5	-3,499
1008,313	-4,5	-2,011
1008,679	1	-0,209
1009,045	2,5	-0,001
1009,411	-2,5	-1,668
1009,777	-11	-3,382
1010,263	-10,5	-2,889
1010,628	-1	-1,059
1010,988	2,5	-0,012
1011,354	0	-0,729
1011,72	-5,5	-2,559
1012,08	-13,5	-3,492
1012,452	-8	-2,62
1012,812	0	-0,789
1013,178	2,5	-0,005
1013,55	-1	-1,05
1013,91	-7	-2,85
1014,282	-13,5	-3,497
1014,642	-6,5	-2,302
1015,008	0	-0,472
1015,368	2,5	-0,002
1015,74	-2	-1,324
1016,112	-9	-3,184
1016,478	-13,5	-3,499
1016,844	-5	-1,994
1017,216	1	-0,178
1017,576	2,5	-0,001
1017,942	-2,5	-1,648
1018,314	-11,5	-3,386
1018,674	-13,5	-3,5
1019,034	-3	-1,67
1019,412	2	-0,071
1019,772	2	-0,116
1020,132	-3,5	-1,927
1020,504	-12,5	-3,452
1020,867	-13	-3,268
1021,23	-2,5	-1,434
1021,59	2	-0,033
1021,956	1,5	-0,393
1022,316	-4,5	-2,193
1022,676	-13	-3,474
1023,042	-12	-3,004
1023,402	-1,5	-1,204
1023,762	2,5	-0,018
1024,128	1,5	-0,583
1024,488	-4,5	-2,384
1024,854	-13,5	-3,487
1025,22	-10	-2,795
1025,592	-0,5	-0,934
1025,952	2,5	-0,008
1026,318	0	-0,833
1026,684	-6	-2,662
1027,05	-13,5	-3,494
1027,41	-8,5	-2,541
1027,776	0	-0,71
1028,136	2,5	-0,004
1028,495	-1,5	-1,083
1028,861	-7,5	-2,918
1029,227	-13,5	-3,497
1029,587	-6,5	-2,286
1029,947	0	-0,485
1030,319	2,5	-0,002
1030,679	-2	-1,418
1031,039	-9,5	-3,217
1031,405	-13,5	-3,499
1031,765	-4,5	-1,921
1032,125	0,5	-0,171
1032,497	2,5	0
1032,857	-3	-1,75
1033,226	-12	-3,408
1033,583	-13,5	-3,444
1034,081	-0,5	-0,93
1034,441	2,5	-0,008
1034,801	0	-0,832
1035,167	-6	-2,661
1035,527	-13,5	-3,494
1035,887	-8	-2,518
1036,247	0	-0,718
1036,613	2,5	-0,004
1036,973	-1,5	-1,075
1037,333	-7,5	-2,874
1037,693	-13,5	-3,496
1038,059	-6,5	-2,329
1038,419	0	-0,544
1038,779	2,5	-0,002
1039,151	-2	-1,327
1039,517	-9	-3,157
1039,877	-13,5	-3,498
1040,249	-4,5	-1,968
1040,609	1	-0,198
1040,969	2,5	-0,001
1041,335	-2,5	-1,652
1041,695	-10,5	-3,366
1042,055	-13,5	-3,5
1042,421	-3	-1,709
1042,781	1,5	-0,088
1043,141	2,5	-0,078
1043,501	-3	-1,896
1043,867	-12	-3,442
1044,227	-13,5	-3,284
1044,587	-2,5	-1,48
1044,947	2	-0,039
1045,318	2	-0,373
1045,678	-4	-2,174
1046,05	-13	-3,477
1046,41	-10,5	-2,94
1046,77	-1	-1,14
1047,13	2,5	-0,015
1047,496	0	-0,701
1047,856	-5,5	-2,501
1048,216	-13,5	-3,49
1048,588	-9,5	-2,684
1048,954	-0,5	-0,854
1049,32	2,5	-0,006
1049,68	-1	-1,002
1050,046	-6,5	-2,853
1050,406	-13,5	-3,496
1050,766	-6,5	-2,34
1051,132	0	-0,51
1051,492	2,5	-0,002
1051,858	-1,5	-1,329
1052,23	-9,5	-3,19
1052,59	-13,5	-3,499
1052,95	-4,5	-2,028
1053,31	1	-0,24
1053,682	2,5	-0,001
1054,042	-2,5	-1,648
1054,402	-10,5	-3,363
1054,774	-13	-3,5
1055,134	-3	-1,73
1055,494	1,5	-0,094
1055,854	2,5	-0,098
1056,22	-3	-1,942
1056,58	-12,5	-3,445
1056,94	-13,5	-3,273
1057,31	-2	-1,408
1057,672	2,5	-0,035
1058,032	1,5	-0,433
1058,404	-4,5	-2,293
1058,764	-13	-3,482
1059,124	-11,5	-2,956
1059,484	-1,5	-1,156
1059,85	2,5	-0,014
1060,21	0	-0,712
1060,57	-5,5	-2,512
1060,93	-13	-3,49
1061,302	-9	-2,65
1061,662	-0,5	-0,85
1062,022	2,5	-0,006
1062,388	-1	-1,043
1062,747	-6,5	-2,843
1063,107	-13	-3,496
1063,467	-7,5	-2,314
1063,85	0	-0,394
1064,211	2,5	-0,001
1064,571	-2	-1,492
1064,937	-10	-3,296
1065,297	-13	-3,499
1065,657	-4	-1,924
1066,017	1	-0,172
1066,383	2,5	0
1066,743	-3	-1,76
1067,103	-11,5	-3,403
1067,463	-13,5	-3,498
1067,829	-3	-1,662
1068,195	2	-0,07
1068,555	2,5	-0,221
1068,921	-3,5	-2,054
1069,287	-12,5	-3,464
1069,647	-13	-3,172
1070,007	-2,5	-1,37
1070,373	2	-0,028
1070,733	1	-0,507
1071,099	-4,5	-2,338
1071,465	-13	-3,486
1071,825	-10,5	-2,839
1072,191	-0,5	-1,008
1072,557	2,5	-0,008
1072,923	-0,5	-0,895
1073,289	-6,5	-2,725
1073,649	-13,5	-3,495
1074,015	-7,5	-2,491
1074,375	0	-0,69
1074,735	2,5	-0,004
1075,095	-1,5	-1,164
1075,461	-7,5	-2,988
1075,827	-13,5	-3,498
1076,187	-6	-2,22
1076,553	0,5	-0,389
1076,913	2,5	-0,001
1077,273	-2	-1,443
1077,633	-9,5	-3,239
1077,999	-13,5	-3,499
1078,359	-4,5	-1,977
1078,725	0,5	-0,185
1079,085	2	0
1079,571	-4,5	-2,306
1079,931	-13	-3,482
1080,29	-10	-2,865
1080,662	-0,5	-1
1081,028	2,5	-0,009
1081,388	0	-0,858
1081,76	-6	-2,653
1082,126	-13,5	-3,494
1082,486	-7,5	-2,486
1082,846	0	-0,686
1083,212	2,5	-0,003
1083,572	-1,5	-1,086
1083,938	-7,5	-2,91
1084,298	-13,5	-3,497
1084,658	-6,5	-2,334
1085,03	0	-0,479
1085,396	2,5	-0,002
1085,761	-1,5	-1,312
1086,122	-8,5	-3,107
1086,488	-13,5	-3,498
1086,848	-4,5	-2,096
1087,208	0,5	-0,291
1087,574	2,5	-0,001
1087,934	-2,5	-1,631
1088,294	-10,5	-3,355
1088,654	-13,5	-3,5
1089,026	-3	-1,669
1089,392	1,5	-0,071
1089,752	2	-0,108
1090,118	-3	-1,948
1090,484	-12,5	-3,45
1090,844	-13,5	-3,203
1091,204	-2	-1,406
1091,57	2	-0,031
1091,936	1	-0,528
1092,296	-4,5	-2,328
1092,662	-13	-3,485
1093,028	-10	-2,86
1093,388	-0,5	-1,065
1093,748	2,5	-0,012
1094,126	0	-0,867
1094,486	-6	-2,667
1094,846	-13	-3,494
1095,212	-7,5	-2,499
1095,578	0	-0,669
1095,944	2,5	-0,003
1096,304	-1,5	-1,225
1096,676	-8,5	-3,085
1097,042	-13,5	-3,498
1097,402	-5	-2,119
1097,761	0,5	-0,319
1098,134	3	-0,001
1098,493	-2,5	-1,569
1098,853	-10,5	-3,324
1099,225	-13,5	-3,499
1099,585	-3,5	-1,814
1099,945	1,5	-0,123
1100,317	2,5	-0,12
1100,677	-3	-1,93
1101,043	-12,5	-3,448
1101,403	-13	-3,233
1101,775	-1,5	-1,37
1102,135	2,5	-0,031
1102,501	1,5	-0,481
1102,867	-4,5	-2,312
1103,227	-13	-3,483
1103,587	-10,5	-2,939
1103,947	-1	-1,139
1104,313	2,5	-0,014
1104,673	0	-0,681
1105,045	-5	-2,536
1105,411	-13,5	-3,492
1105,771	-8,5	-2,635
1106,131	-0,5	-0,835
1106,491	2,5	-0,006
1106,857	0	-0,921
1107,217	-6	-2,721
1107,577	-13,5	-3,495
1107,949	-6,5	-2,431
1108,309	0	-0,63
1108,669	2,5	-0,003
1109,041	-1,5	-1,18
1109,401	-7,5	-2,981
1109,761	-13,5	-3,498
1110,253	-2,5	-1,55
1110,625	2	-0,049
1110,985	2	-0,194
1111,345	-3,5	-2,003
1111,711	-13	-3,458
1112,071	-12,5	-3,158
1112,431	-1,5	-1,356
1112,791	2	-0,03
1113,163	1,5	-0,456
1113,523	-4	-2,256
1113,883	-13	-3,479
1114,243	-11	-2,929
1114,609	-1	-1,099
1114,969	2,5	-0,013
1115,329	0	-0,669
1115,694	-5,5	-2,5
1553,435	-0,5	-0,893
1553,795	2,5	-0,007
1554,161	-1	-1,011
1554,521	-6	-2,811
1554,881	-12,5	-3,496
1555,241	-6	-2,428
1555,607	0	-0,598
1555,973	2,5	-0,002
1556,333	-1	-1,196
1556,693	-7	-2,996
1557,065	-12,5	-3,498
1557,425	-5	-2,208
1557,785	0,5	-0,403
1558,151	2,5	-0,001
1558,511	-2	-1,496
1558,871	-9	-3,279
1559,231	-12,5	-3,499
1559,597	-3	-1,849
1559,957	1,5	-0,137
1560,317	2,5	0
1560,683	-2,5	-1,802
1561,055	-11	-3,429
1561,415	-12,5	-3,32
1561,775	-2,5	-1,512
1562,135	2	-0,048
1562,495	2,5	-0,285
1562,867	-3	-2,147
1563,227	-12,5	-3,47
1563,587	-11,5	-3,064
1563,947	-1	-1,264
1564,307	2,5	-0,022
1564,673	1	-0,587
1565,039	-4,5	-2,417
1565,399	-12,5	-3,488
1565,759	-9	-2,799
1566,119	-0,5	-0,999
1566,479	2,5	-0,01
1566,845	-0,5	-0,857
1567,205	-5,5	-2,657
1567,565	-12,5	-3,494
1567,931	-7,5	-2,525
1568,291	0	-0,725
1568,651	3	-0,004
1569,017	-1,5	-1,154
1569,377	-7,5	-2,953
1569,743	-12,5	-3,498
1570,103	-5,5	-2,27
1570,462	0	-0,47
1570,822	2,5	-0,002
1571,188	-1,5	-1,439
1571,548	-9	-3,236
1572,046	-11,5	-3,045
1572,412	-1	-1,214
1572,772	2,5	-0,019
1573,138	0,5	-0,598
1573,498	-4,5	-2,398
1573,864	-12,5	-3,488
1574,224	-9	-2,783
1574,584	-0,5	-0,983
1574,944	2,5	-0,009
1575,31	0	-0,852
1575,67	-5,5	-2,652
1576,03	-12,5	-3,494
1576,39	-7,5	-2,533
1576,75	0	-0,703
1577,122	2,5	-0,004
1577,482	-1,5	-1,17
1577,842	-7,5	-2,97
1578,202	-12,5	-3,498
1578,568	-5,5	-2,266
1578,934	0	-0,43
1579,294	2,5	-0,002
1579,66	-2	-1,432
1580,02	-9	-3,23
1580,386	-13	-3,499
1580,746	-4	-1,939
1581,118	1,5	-0,15
1581,478	2,5	0
1581,844	-2,5	-1,788
1582,204	-11	-3,411
1582,57	-13	-3,474
1582,93	-2,5	-1,652
1583,29	2	-0,074
1583,653	2,5	-0,127
1584,01	-3	-1,937
1584,37	-12	-3,444
1584,73	-12,5	-3,3
1585,096	-2	-1,464
1585,462	2,5	-0,038
1585,828	1,5	-0,453
1586,188	-4	-2,253
1586,56	-12,5	-3,483
1586,92	-9,5	-2,845
1587,28	-0,5	-1,045
1587,64	2,5	-0,012
1588,006	0	-0,816
1588,366	-5	-2,616
1588,725	-12,5	-3,493
1589,086	-7,5	-2,6
1589,451	0	-0,77
1589,811	2,5	-0,005
1590,171	-0,5	-1,008
1590,531	-6	-2,803
1590,898	-13	-3,496
1591,257	-6	-2,348
1591,623	0	-0,553
1591,983	2,5	-0,002
1592,349	-1,5	-1,287
1592,709	-8	-3,087
1593,075	-12,5	-3,498
1593,447	-4,5	-2,046
1593,813	0,5	-0,23
1594,173	2,5	-0,001
1594,533	-2	-1,589
1594,893	-9,5	-3,332
1595,259	-12,5	-3,5
1595,619	-3	-1,808
1595,979	1,5	-0,12
1596,339	2,5	-0,003
1596,705	-2,5	-1,844
1597,065	-11,5	-3,425
1597,425	-12,5	-3,381
1597,785	-2,5	-1,569
1598,151	2	-0,052
1598,511	2,5	-0,303
1598,871	-3	-2,105
1599,231	-12	-3,467
1599,597	-10,5	-3,015
1599,957	-1	-1,214
1600,317	2,5	-0,019
1600,683	0,5	-0,606
1601,049	-4,5	-2,441
1601,409	-12,5	-3,488
1601,775	-8,5	-2,757
1602,135	-0,5	-0,922
1602,507	2,5	-0,007
1602,867	0	-0,797
1603,227	-5	-2,597
1603,593	-12,5	-3,493
1603,953	-8	-2,61
1604,319	0	-0,776
1604,679	2,5	-0,005
1605,051	-1	-1,153
1605,41	-7	-2,953
1605,77	-12,5	-3,497
1606,13	-5,5	-2,27
1606,496	0,5	-0,44
1606,856	2,5	-0,002
1607,216	-1,5	-1,393
1607,576	-9	-3,193
1607,942	-12,5	-3,499
1608,302	-4	-1,994
1608,662	1	-0,215
1609,028	2,5	-0,001
1609,394	-2	-1,56
1609,754	-10	-3,322
1610,114	-12,5	-3,499
1610,474	-3	-1,847
1610,84	1,5	-0,124
1611,2	2,5	0
1611,56	-2,5	-1,671
1611,92	-10,5	-3,374
1612,28	-12,5	-3,5
1612,646	-3	-1,714
1613,012	1,5	-0,082
1613,372	2,5	-0,08
1613,732	-3	-1,893
1614,224	-13	-3,492
1614,584	-8,5	-2,685
1614,944	-0,5	-0,884
1615,31	2,5	-0,006
1615,67	-0,5	-0,961
1616,03	-6	-2,761
1616,39	-12,5	-3,496
1616,75	-6,5	-2,414
1617,122	0	-0,554
1617,482	2,5	-0,002
1617,848	-1,5	-1,282
1618,214	-8,5	-3,112
1618,58	-12,5	-3,498
1618,94	-4,5	-2,086
1619,306	0,5	-0,261
1619,672	2,5	-0,001
1620,032	-1,5	-1,563
1620,392	-9,5	-3,321
1620,752	-12,5	-3,499
1621,118	-3	-1,839
1621,49	1,5	-0,108
1621,85	2,5	0
1622,21	-2,5	-1,721
1622,575	-11	-3,401
1622,935	-12,5	-3,46
1623,295	-2,5	-1,635
1623,655	1,5	-0,071
1624,021	2,5	-0,278
1624,381	-3	-2,079
1624,741	-12	-3,464
1625,101	-11,5	-3,075
1625,467	-1,5	-1,244
1625,827	2,5	-0,021
1808,055	1	-0,123
1808,415	2,5	-0,067
1808,781	-3	-1,916
1809,147	-11,5	-3,445
1809,507	-12,5	-3,287
1809,867	-2	-1,482
1810,233	2	-0,04
1810,593	2	-0,368
1810,953	-3	-2,169
1811,313	-12	-3,472
1811,673	-11	-2,958
1812,039	-1	-1,128
1812,399	2,5	-0,015
1812,759	0,5	-0,704
1813,119	-4,5	-2,505
1813,485	-12,5	-3,491
1813,845	-8,5	-2,725
1814,205	-0,5	-0,925
1814,565	2,5	-0,008
1814,931	-0,5	-0,963
1815,291	-5,5	-2,763
1815,65	-12,5	-3,495
1816,01	-7	-2,444
1816,37	0	-0,614
1816,736	2,5	-0,003
1817,1	-1	-1,214
1817,456	-7	-3,014
1817,816	-12,5	-3,498
1818,182	-4,5	-2,146
1818,542	0,5	-0,341
1818,908	2,5	-0,001
1819,268	-2	-1,589
1819,772	-12	-3,483
1820,135	-10,5	-2,918
1820,492	-1	-1,118
1820,852	2,5	-0,014
1821,224	0	-0,801
1821,59	-5	-2,631
1821,95	-12,5	-3,493
1822,31	-7,5	-2,544
1822,676	0	-0,714
1823,036	2,5	-0,004
1823,396	-1	-1,161
1823,756	-6,5	-2,961
1824,116	-12,5	-3,498
1824,482	-5	-2,232
1824,842	0	-0,432
1825,202	2,5	-0,002
1825,562	-1,5	-1,374
1825,934	-8,5	-3,231
1826,294	-12,5	-3,499
1826,654	-4	-1,972
1827,014	1	-0,182
1827,386	2,5	0
1827,746	-2	-1,72
1828,106	-10,5	-3,39
1828,466	-12,5	-3,479
1828,826	-2,5	-1,655
1829,186	1,5	-0,075
1829,546	2,5	-0,21
1829,918	-3	-2,074
1830,278	-11,5	-3,463
1830,638	-12,5	-3,209
1830,998	-2	-1,407
1831,364	2	-0,032
1831,73	1,5	-0,469
1832,09	-4	-2,275
1832,449	-12	-3,48
1832,81	-10,5	-2,932
1833,176	-1	-1,102
1833,541	2,5	-0,012
1833,901	0	-0,75
1834,261	-4,5	-2,55
1834,621	-12,5	-3,491
1834,987	-7,5	-2,606
1835,347	0	-0,805
1835,707	2,5	-0,005
1836,067	-0,5	-1,022
1836,439	-5,5	-2,882
1836,805	-12,5	-3,497
1837,171	-5,5	-2,287
1837,531	0	-0,486
1837,897	3	-0,002
1838,257	-1,5	-1,434
1838,617	-8	-3,235
1838,977	-12,5	-3,499
1839,343	-3	-1,9
1839,703	1	-0,16
1840,063	2,5	0
1840,423	-2	-1,673
1840,789	-10	-3,384
1841,155	-12,5	-3,5
1841,515	-3	-1,704
1841,875	1,5	-0,08
1842,241	2,5	-0,109
1842,601	-3	-1,92
1842,961	-11,5	-3,441
1843,465	-7,5	-2,599
1843,831	0	-0,769
1844,191	3	-0,005
1844,551	-0,5	-1,011
1844,911	-5,5	-2,871
1845,289	-12,5	-3,497
1845,649	-5,5	-2,295
1846,009	0	-0,495
1846,375	3	-0,002
1846,735	-1	-1,324
1847,095	-7	-3,124
1847,455	-12,5	-3,499
1847,815	-4,5	-2,072
1848,181	0,5	-0,25
1848,541	2,5	-0,001
1848,901	-1,5	-1,5
1849,273	-9	-3,319
1849,639	-12	-3,499
1849,999	-3,5	-1,805
1850,365	1,5	-0,109
1850,724	3	-0,005
1851,096	-2,5	-1,878
1851,456	-10,5	-3,432
1851,816	-12,5	-3,4
1852,176	-2,5	-1,586
1852,542	2	-0,055
1852,902	2,5	-0,252
1853,262	-3	-2,055
1853,622	-12	-3,461
1853,988	-11,5	-3,09
1854,348	-1,5	-1,29
1854,708	2,5	-0,022
1855,074	1,5	-0,587
1855,434	-4	-2,388
1855,8	-12,5	-3,488
1856,16	-9,5	-2,841
1856,52	-0,5	-1,041
1856,88	2,5	-0,011
1857,252	0	-0,872
1857,612	-5	-2,672
1857,972	-12,5	-3,494
1858,332	-7,5	-2,52
1858,692	0	-0,719
1859,052	2,5	-0,004
1859,412	-0,5	-1,113
1859,772	-5,5	-2,913
1860,138	-12,5	-3,497
1860,498	-6	-2,349
1860,858	0	-0,549
1861,224	2,5	-0,002
1861,584	-1,5	-1,287
1861,95	-7,5	-3,122
1862,31	-12,5	-3,498
1862,67	-4,5	-2,138
1863,03	0,5	-0,337
1863,396	2,5	-0,001
1863,756	-1,5	-1,487
1864,116	-8,5	-3,272
1864,476	-12,5	-3,499
1864,836	-3,5	-1,828
1865,196	1	-0,128
1865,562	2,5	-0,012
1865,922	-2,5	-1,833
1866,288	-10,5	-3,429
1866,648	-12	-3,4
1867,008	-2,5	-1,59
1867,511	2,5	-0,007
1867,871	-0,5	-0,935
1868,231	-5	-2,735
1868,591	-12,5	-3,495
1868,951	-7	-2,467
1869,317	0	-0,636
1869,677	2,5	-0,003
1870,037	-1	-1,266
1870,397	-7	-3,066
1870,763	-12,5	-3,498
1871,123	-4,5	-2,123
1871,483	0,5	-0,323
1871,843	3	-0,001
1872,203	-1,5	-1,473
1872,569	-8,5	-3,284
1872,929	-12,5	-3,499
1873,295	-4	-1,906
1873,661	1,5	-0,149
1874,021	2,5	-0,007
1874,381	-2,5	-1,821
1874,741	-11	-3,419
1875,107	-12,5	-3,366
1875,473	-2	-1,526
1875,833	2	-0,05
1876,193	3	-0,25
1876,553	-3	-2,052
1876,925	-12	-3,467
1877,285	-12	-3,121
1877,645	-1,5	-1,32
1878,011	2,5	-0,024
1878,377	1,5	-0,582
1878,743	-4	-2,413
1879,103	-12,5	-3,487
1879,463	-8,5	-2,758
1879,829	-0,5	-0,928
1880,189	3	-0,008
1880,549	0	-0,894
3150,55	-2,5	-2,546
3150,91	-7	-3,491
3151,27	-4	-2,67
3151,636	0	-0,84
3151,996	2,5	-0,006
3152,356	0	-0,997
3152,716	-3	-2,797
3153,082	-7	-3,496
3153,448	-2,5	-2,349
3153,808	0	-0,549
3154,168	2,5	-0,002
3154,528	-0,5	-1,304
3154,894	-4	-3,134
3155,254	-7	-3,498
3155,614	-2	-2,078
3155,974	0,5	-0,28
3156,334	2,5	-0,001
3156,7	-1	-1,547
3157,06	-5	-3,308
3157,42	-7	-3,499
3157,78	-1	-1,88
3158,152	1,5	-0,125
3158,512	2,5	-0,037
3158,872	-1	-1,859
3159,232	-6	-3,428
3159,592	-7	-3,393
3159,958	-0,5	-1,549
3160,318	2	-0,054
3160,678	2,5	-0,204
3161,038	-1,5	-2,008
3161,398	-6,5	-3,455
3161,764	-6,5	-3,181
3162,124	0	-1,379
3162,484	2	-0,032
3162,844	1,5	-0,436
3163,204	-2	-2,232
3163,569	-7	-3,48
3163,929	-5	-2,912
3164,289	0	-1,112
3164,649	2,5	-0,014
3165,015	0,5	-0,702
3165,381	-2,5	-2,532
3165,741	-7	-3,491
3166,101	-3,5	-2,669
3166,461	0	-0,869
3166,821	2,5	-0,007
3167,187	0	-0,907
3167,547	-3	-2,707
3167,907	-7,5	-3,494
3168,273	-3	-2,442
3168,633	0	-0,642
3168,999	2	-0,003
3169,359	-0,5	-1,178
3169,719	-4	-2,978
3170,079	-7	-3,498
3170,439	-2	-2,23
3170,805	0	-0,43
3171,171	2	-0,002
3171,531	-1	-1,314
3171,891	-4	-3,114
3172,257	-7,5	-3,499
3172,617	-1,5	-2,125
3172,983	0,5	-0,291
3173,343	2	-0,001
3173,703	-1	-1,52
3174,069	-5	-3,314
3174,429	-7	-3,5
3174,789	-1	-1,734
3175,149	1,5	-0,096
3175,509	2	-0,085
3175,875	-1,5	-1,932
3176,235	-6,5	-3,443
3176,595	-7	-3,228
3176,961	-0,5	-1,395
3177,321	2	-0,033
3177,687	1,5	-0,46
3178,047	-2	-2,261
3178,407	-7	-3,479
3178,767	-5	-2,94
3179,133	0	-1,109
3179,493	2	-0,014
3179,709	2,5	0