File: Cycling_tests/_50perc/_2gap/entrada/_2.txt
Time (s)	Load (N)	Displacement (mm)
0	0	-0,027
2,158	0,5	-0,207
4,293	0	-0,348
6,429	0,5	-0,265
8,565	0,5	-0,205
10,701	0,5	-0,215
12,837	0	-0,403
14,973	0,5	-0,34
17,109	0	-0,525
21,878	-14,5	-3,098
24,014	-13,5	-3,012
26,15	-12,5	-2,827
28,286	-11	-2,714
30,422	-10,5	-2,644
32,564	-10,5	-2,673
34,7	-10,5	-2,636
36,836	-10,5	-2,568
38,971	-9,5	-2,454
41,107	-9	-2,32
43,243	-8	-2,244
45,385	-8	-2,278
47,527	-7,5	-2,154
49,675	-7	-2,102
51,811	-6,5	-1,994
53,958	-7	-2,097
56,107	-8	-2,181
58,242	-7	-2,076
60,384	-6,5	-2,046
62,52	-7	-2,114
64,662	-7,5	-2,239
66,798	-8,5	-2,418
68,94	-10	-2,639
71,076	-11,5	-2,909
73,212	-12,5	-3,031
75,347	-13,5	-3,206
77,489	-15	-3,292
79,631	-16	-3,397
81,773	-16	-3,452
83,915	-17	-3,47
86,057	-17	-3,479
88,205	-17,5	-3,487
90,341	-17,5	-3,488
92,488	-17,5	-3,492
94,63	-17	-3,495
96,772	-17	-3,496
98,908	-17	-3,497
101,05	-17	-3,498
103,186	-17	-3,498
105,334	-17	-3,499
107,47	-17	-3,499
109,605	-17	-3,499
111,747	-17	-3,5
113,889	-17	-3,5
116,025	-16,5	-3,486
118,161	-16,5	-3,406
120,303	-16,5	-3,344
122,445	-16,5	-3,29
124,586	-16	-3,237
126,728	-15,5	-3,112
128,864	-16,5	-3,118
131	-16,5	-3,091
133,142	-14,5	-3,016
135,278	-16,5	-3,069
137,414	-15	-3,07
139,556	-15	-2,965
141,703	-13	-2,794
143,845	-12,5	-2,775
145,981	-12	-2,681
148,117	-12	-2,654
150,253	-11,5	-2,592
152,395	-10,5	-2,424
154,531	-10,5	-2,51
156,667	-10	-2,446
158,803	-9	-2,315
160,944	-8,5	-2,291
163,08	-8,5	-2,175
165,222	-8	-2,156
167,364	-7,5	-2,079
169,5	-7	-1,958
171,636	-7,5	-1,942
173,778	-6	-1,865
175,914	-6,5	-1,87
178,055	-6	-1,814
180,197	-6	-1,765
182,333	-6	-1,77
184,469	-6	-1,814
186,605	-5,5	-1,756
188,747	-4,5	-1,568
190,889	-4,5	-1,523
193,025	-4	-1,486
195,16	-4	-1,466
197,296	-3,5	-1,429
199,432	-4	-1,388
201,574	-3,5	-1,332
203,71	-3,5	-1,316
205,852	-3	-1,18
207,988	-3	-1,193
210,13	-2,5	-1,067
212,265	-2	-1,052
214,407	-2,5	-1,065
216,543	-2	-0,982
218,685	-1,5	-0,93
220,827	-1	-0,794
222,963	-1	-0,728
225,099	-0,5	-0,689
227,241	-0,5	-0,559
229,376	0	-0,471
231,512	0	-0,391
233,654	0	-0,34
235,79	0	-0,256
237,926	0	-0,201
240,062	1	-0,14
242,204	1	-0,116
244,346	1,5	-0,061
246,488	1,5	-0,04
248,629	1,5	-0,032
250,771	1,5	-0,019
252,907	2	-0,017
255,043	2	-0,008
257,185	2	-0,007
259,321	2	-0,006
261,457	2	-0,004
263,593	2	-0,003
265,74	2	-0,002
267,876	2	-0,001
270,024	2	0
272,16	2	-0,031
274,296	1,5	-0,323
276,432	0,5	-0,493
278,568	1	-0,572
280,716	-0,5	-0,755
282,851	-1	-0,907
284,987	-1,5	-1,06
287,135	-2,5	-1,275
289,277	-3	-1,437
291,413	-3	-1,511
293,561	-3,5	-1,607
295,703	-3,5	-1,679
297,851	-4,5	-1,887
299,986	-4,5	-2,019
302,122	-5	-2,14
304,264	-5,5	-2,234
306,4	-6	-2,319
308,536	-6	-2,365
310,672	-6,5	-2,438
312,814	-7	-2,484
314,962	-7,5	-2,634
317,098	-8,5	-2,825
319,233	-9,5	-2,972
321,375	-11	-3,188
323,511	-11,5	-3,227
325,659	-11,5	-3,281
327,801	-11,5	-3,296
329,937	-12	-3,319
332,073	-13	-3,401
334,221	-13,5	-3,417
336,356	-14	-3,437
338,498	-14,5	-3,456
340,64	-14,5	-3,477
342,782	-15	-3,48
344,924	-15	-3,486
347,06	-15	-3,486
349,202	-15	-3,489
351,344	-15	-3,49
353,491	-15	-3,494
355,627	-15	-3,495
357,763	-15	-3,497
359,899	-15	-3,497
362,041	-15	-3,497
364,183	-15	-3,498
366,325	-15	-3,498
368,473	-15	-3,499
370,614	-15	-3,5
372,75	-15	-3,413
374,886	-15	-3,354
377,022	-15	-3,2
379,164	-13,5	-2,994
381,306	-12	-2,894
383,442	-12,5	-2,894
385,584	-12	-2,781
387,725	-10,5	-2,72
389,885	-9	-2,525
392,021	-9	-2,404
394,169	-7,5	-2,287
396,305	-7,5	-2,203
398,441	-8,5	-2,235
400,595	-6	-2,05
402,737	-6	-1,989
404,878	-5,5	-1,948
407,014	-5	-1,87
409,162	-5	-1,79
411,304	-4,5	-1,77
413,446	-4,5	-1,774
415,582	-4,5	-1,722
417,73	-4	-1,635
419,866	-4	-1,631
422,014	-3	-1,486
424,155	-3	-1,437
426,297	-3	-1,408
428,433	-3	-1,403
430,569	-2,5	-1,334
432,711	-2	-1,204
434,853	-1,5	-1,116
436,995	-1,5	-0,97
439,136	-1	-0,829
441,278	-0,5	-0,726
443,42	-0,5	-0,659
445,562	0	-0,529
447,71	0	-0,422
449,852	0	-0,376
451,994	0	-0,363
454,142	1	-0,124
456,284	1,5	-0,104
458,425	1,5	-0,093
460,573	1,5	-0,063
462,709	1,5	-0,044
464,851	2	-0,029
466,993	2	-0,022
469,135	2	-0,012
471,283	2	-0,01
473,431	2,5	-0,008
475,578	2	-0,005
477,72	2	-0,004
479,856	2	-0,002
481,998	2	-0,002
484,14	2	-0,002
486,276	2	-0,001
488,424	2	-0,001
490,566	2	-0,001
492,713	2	0
494,855	2	-0,047
497,003	2	-0,157
499,151	2	-0,192
501,305	1,5	-0,349
503,441	1	-0,449
505,577	1,5	-0,544
507,719	0	-0,6
509,867	0	-0,708
512,014	0	-0,8
514,156	-1	-0,923
516,298	-1,5	-1,007
518,44	-2	-1,184
520,576	-2,5	-1,268
522,718	-2,5	-1,335
524,86	-2,5	-1,449
526,995	-3	-1,492
529,131	-3	-1,552
531,273	-3	-1,606
533,421	-3,5	-1,749
535,569	-3,5	-1,83
537,717	-4,5	-2,033
539,859	-4,5	-2,088
541,995	-4,5	-2,082
544,142	-4,5	-2,174
546,284	-5	-2,224
548,432	-5	-2,362
550,574	-6	-2,377
552,716	-6	-2,469
554,864	-6	-2,544
557,012	-7	-2,678
559,154	-7,5	-2,697
561,29	-7,5	-2,733
563,425	-7	-2,727
565,579	-8,5	-2,88
567,715	-9	-2,932
569,863	-9	-3,018
572,005	-10	-3,137
574,141	-10,5	-3,216
576,283	-11	-3,292
578,425	-12	-3,37
580,572	-13	-3,408
582,708	-13	-3,431
584,856	-13	-3,444
586,992	-13	-3,454
589,134	-13,5	-3,472
591,27	-13,5	-3,477
593,424	-14	-3,486
595,566	-14	-3,491
597,707	-14	-3,492
599,861	-14	-3,494
602,009	-14	-3,496
604,157	-14	-3,497
606,305	-14,5	-3,498
608,447	-14	-3,498
610,589	-14	-3,498
612,725	-14	-3,499
614,872	-14	-3,499
617,014	-13,5	-3,499
619,156	-14	-3,5
621,292	-14	-3,5
623,434	-14	-3,489
625,57	-14	-3,476
627,712	-14	-3,36
629,848	-14	-3,332
631,983	-14	-3,305
634,131	-13	-3,162
636,267	-13	-3,035
638,415	-11	-2,901
640,557	-10	-2,803
642,699	-9,5	-2,709
644,847	-9,5	-2,618
646,989	-7,5	-2,45
649,131	-6,5	-2,325
651,272	-7,5	-2,35
653,42	-7,5	-2,318
655,562	-7,5	-2,278
657,698	-6,5	-2,188
659,84	-6	-2,084
661,976	-6	-2,084
664,118	-5,5	-2,049
666,259	-5	-1,914
668,401	-4,5	-1,816
670,549	-3,5	-1,672
672,685	-3,5	-1,571
674,821	-3	-1,493
676,969	-2,5	-1,364
679,105	-2,5	-1,28
681,241	-2	-1,19
683,377	-2	-1,191
685,518	-1,5	-1,034
687,66	-1	-0,889
689,802	-1	-0,816
691,938	-0,5	-0,806
694,08	-0,5	-0,692
696,216	0	-0,66
698,358	0	-0,626
700,5	0	-0,513
702,635	0	-0,444
704,783	0	-0,306
706,925	0,5	-0,255
709,073	0,5	-0,179
711,221	0,5	-0,142
713,369	1,5	-0,11
715,517	1,5	-0,081
717,665	1,5	-0,052
719,812	1,5	-0,035
721,96	1,5	-0,027
724,108	2	-0,019
726,244	2	-0,016
728,386	2	-0,012
730,534	2	-0,008
732,676	2	-0,006
734,818	2	-0,005
736,959	2	-0,004
739,095	2	-0,002
741,231	2	-0,002
743,373	2	-0,001
745,521	2	-0,001
747,657	2	0
749,805	2	-0,192
751,953	2	-0,298
754,095	1,5	-0,434
756,236	1,5	-0,49
758,378	0	-0,674
760,532	-0,5	-0,886
762,674	-1	-0,937
764,822	-1	-0,986
766,97	-1,5	-1,155
769,112	-2	-1,297
771,253	-2	-1,405
773,395	-2	-1,446
775,531	-2,5	-1,531
777,679	-2,5	-1,594
779,821	-3	-1,703
781,969	-3,5	-1,874
784,105	-3,5	-1,932
786,247	-3,5	-1,966
788,395	-4	-2,047
790,53	-4	-2,046
792,672	-4	-2,112
794,82	-5	-2,263
796,962	-5	-2,372
799,104	-5,5	-2,454
801,24	-5,5	-2,421
803,388	-6	-2,56
805,53	-6	-2,616
807,677	-6	-2,676
809,819	-6	-2,625
811,961	-6	-2,618
814,109	-5,5	-2,586
816,269	-6,5	-2,71
818,411	-7	-2,83
820,559	-8	-2,931
822,695	-7,5	-2,898
824,842	-8	-2,99
826,978	-8	-2,942
829,12	-8	-2,954
831,262	-8,5	-3,074
833,416	-9,5	-3,257
835,558	-10	-3,273
837,706	-10,5	-3,321
839,842	-11	-3,341
841,984	-11,5	-3,394
844,119	-12,5	-3,435
846,261	-13	-3,456
848,409	-13	-3,464
850,545	-13	-3,473
852,687	-13,5	-3,482
854,835	-13,5	-3,487
856,995	-13,5	-3,492
859,136	-13,5	-3,493
861,29	-13,5	-3,495
863,432	-13,5	-3,497
865,58	-13,5	-3,497
867,722	-13,5	-3,497
869,87	-13,5	-3,497
872,012	-13,5	-3,498
874,154	-13,5	-3,498
876,308	-13,5	-3,498
878,449	-13,5	-3,498
880,591	-13,5	-3,499
882,739	-13,5	-3,499
884,881	-13,5	-3,5
887,029	-13,5	-3,484
889,171	-13,5	-3,408
891,319	-13	-3,183
893,467	-12,5	-3,074
895,614	-12	-3,04
897,768	-11	-2,904
899,91	-10,5	-2,838
902,058	-10	-2,774
904,206	-9,5	-2,708
906,354	-9,5	-2,782
908,502	-8,5	-2,628
910,644	-8	-2,554
912,785	-7,5	-2,468
914,921	-7,5	-2,437
917,063	-6	-2,317
919,211	-5,5	-2,199
921,353	-5,5	-2,208
923,501	-5,5	-2,148
925,643	-5,5	-2,135
927,791	-5	-2,096
929,932	-5	-2,084
932,08	-5	-2,004
934,216	-4,5	-1,984
936,358	-4,5	-1,933
938,5	-4	-1,802
940,654	-3	-1,67
942,796	-2,5	-1,572
944,938	-2,5	-1,484
947,079	-2,5	-1,492
949,227	-2,5	-1,39
951,369	-1,5	-1,313
953,517	-1,5	-1,301
955,659	-1,5	-1,235
957,795	-1,5	-1,199
959,937	-1,5	-1,206
962,079	-1,5	-1,134
964,214	-1	-1,05
966,362	-1	-0,954
968,51	-0,5	-0,916
970,652	-0,5	-0,882
972,788	-0,5	-0,814
974,93	0	-0,725
977,078	0	-0,65
979,22	-0,5	-0,621
981,356	0	-0,526
983,503	0	-0,44
985,645	0	-0,416
987,787	0	-0,345
989,935	0,5	-0,259
992,083	0,5	-0,181
994,225	1	-0,16
996,373	1	-0,136
998,509	1	-0,11
1000,668	1,5	-0,068
1002,81	1,5	-0,052
1004,958	1,5	-0,044
1007,1	2	-0,034
1009,242	2	-0,026
1011,384	2	-0,025
1013,529	2	-0,021
1015,662	2	-0,019
1017,809	2	-0,013
1019,951	2	-0,012
1022,087	2	-0,011
1024,241	2	-0,009
1026,377	2	-0,009
1028,525	2	-0,008
1030,667	2	-0,006
1032,809	2	-0,004
1034,944	2	-0,004
1037,092	2	-0,002
1039,234	2	-0,004
1041,376	2	-0,007
1043,518	2	-0,017
1045,672	2	-0,012
1047,808	2	-0,027
1049,956	1,5	-0,06
1052,103	1,5	-0,097
1054,245	0,5	-0,233
1056,393	0,5	-0,259
1058,529	0,5	-0,261
1060,683	1	-0,24
1062,825	0,5	-0,392
1064,979	0	-0,479
1067,121	0	-0,689
1069,262	0	-0,814
1071,404	-1	-1,099
1073,546	-1,5	-1,234
1075,688	-1,5	-1,251
1077,824	-2	-1,434
1079,966	-3	-1,719
1082,108	-4	-1,939
1084,256	-5,5	-2,209
1086,398	-6	-2,324
1088,539	-6	-2,268
1090,681	-6	-2,414
1092,823	-5,5	-2,25
1094,965	-5,5	-2,286
1097,101	-7,5	-2,6
1099,243	-8,5	-2,673
1101,379	-9	-2,731
1103,521	-10	-2,884
1105,662	-11	-3,04
1107,804	-12	-3,134
1109,952	-12,5	-3,182
1112,1	-12	-3,202
1114,242	-11,5	-3,125
1116,378	-12,5	-3,241
1118,526	-12,5	-3,491
1120,668	-12,5	-3,5
1122,809	-13	-3,499
1124,951	-13	-3,498
1127,099	-12,5	-3,498
1129,241	-13	-3,499
1131,383	-13	-3,499
1133,525	-13	-3,499
1135,667	-13	-3,5
1137,815	-13	-3,499
1139,95	-13	-3,497
1142,092	-13	-3,495
1144,24	-13	-3,491
1146,382	-13	-3,487
1148,518	-13	-3,486
1150,66	-13	-3,486
1152,808	-12,5	-3,478
1154,95	-13	-3,484
1157,097	-12,5	-3,476
1159,239	-13	-3,48
1161,381	-12,5	-3,475
1163,523	-12	-3,463
1165,665	-12,5	-3,475
1167,813	-12	-3,468
1169,967	-12	-3,458
1172,121	-12	-3,449
1174,256	-12	-3,44
1176,404	-11	-3,407
1178,54	-10	-3,324
1180,688	-9	-3,25
1182,83	-8,5	-3,236
1184,972	-7,5	-3,018
1187,114	-7	-2,968
1189,25	-6	-2,781
1191,392	-6,5	-2,858
1193,545	-7	-2,958
1195,687	-7,5	-3,083
1197,853	-9,5	-3,316
1199,995	-10,5	-3,364
1202,149	-11,5	-3,427
1204,297	-12	-3,445
1206,433	-11,5	-3,411
1208,587	-12	-3,446
1210,728	-12,5	-3,464
1212,864	-12	-3,471
1215,006	-12,5	-3,476
1217,148	-12,5	-3,484
1219,29	-12,5	-3,489
1221,432	-12,5	-3,493
1223,574	-13	-3,494
1225,716	-13	-3,495
1227,857	-13	-3,496
1229,999	-13	-3,497
1232,141	-13	-3,497
1234,277	-12,5	-3,497
1236,425	-12,5	-3,498
1238,561	-13	-3,498
1240,715	-13	-3,499
1242,857	-13	-3,499
1245,004	-13	-3,5
1247,146	-13	-3,5
1249,294	-12,5	-3,5
1251,436	-12,5	-3,5
1253,584	-12,5	-3,499
1255,72	-12,5	-3,499
1257,874	-12,5	-3,499
1260,016	-12,5	-3,499
1262,157	-12,5	-3,499
1264,299	-12,5	-3,5
1266,441	-12,5	-3,5
1268,595	-12,5	-3,494
1270,737	-12,5	-3,5
1272,885	-12,5	-3,499
1275,027	-12,5	-3,5
1277,181	-12,5	-3,476
1279,322	-12,5	-3,456
1281,464	-12,5	-3,439
1283,612	-12,5	-3,267
1285,754	-12,5	-3,215
1287,896	-12	-3,19
1290,044	-12,5	-3,212
1292,186	-12	-3,15
1294,328	-11,5	-3,081
1296,469	-11	-3,015
1298,611	-10,5	-2,938
1300,747	-11	-3,001
1302,889	-10,5	-2,941
1305,037	-9,5	-2,78
1307,179	-9	-2,73
1309,315	-10,5	-2,95
1311,451	-10	-2,924
1313,593	-9,5	-2,804
1315,734	-10	-2,817
1317,876	-9	-2,719
1320,024	-8,5	-2,628
1322,166	-7,5	-2,593
1324,32	-8	-2,574
1326,456	-9,5	-2,802
1328,592	-10,5	-2,835
1330,74	-11	-2,95
1332,881	-12	-3,131
1335,023	-12,5	-3,307
1337,165	-12,5	-3,5
1339,307	-12,5	-3,499
1341,455	-12,5	-3,5
1343,603	-12,5	-3,499
1345,751	-12,5	-3,499
1347,893	-12,5	-3,5
1350,04	-12,5	-3,5
1352,182	-12,5	-3,497
1354,324	-12,5	-3,499
1356,472	-12,5	-3,498
1358,614	-12,5	-3,462
1360,75	-12,5	-3,482
1362,898	-12,5	-3,372
1365,046	-12,5	-3,285
1367,187	-12,5	-3,316
1369,335	-12	-3,157
1371,477	-12	-3,132
1373,619	-11,5	-3,071
1375,755	-11,5	-3,083
1377,903	-10,5	-3,007
1380,045	-11	-3,069
1382,181	-11,5	-3,027
1384,322	-10,5	-3,008
1386,464	-10,5	-2,974
1388,612	-10	-2,866
1390,748	-10	-2,872
1392,896	-8,5	-2,712
1395,038	-9	-2,694
1397,186	-7,5	-2,554
1399,322	-6,5	-2,485
1401,463	-6	-2,409
1403,605	-6	-2,369
1405,747	-6	-2,355
1407,889	-6,5	-2,41
1410,037	-6,5	-2,41
1412,185	-6	-2,32
1414,327	-6	-2,38
1416,463	-6	-2,414
1418,599	-6,5	-2,393
1420,746	-6	-2,414
1422,888	-7	-2,475
1425,024	-7	-2,502
1427,166	-7	-2,479
1429,308	-6	-2,385
1431,45	-6	-2,345
1433,598	-6	-2,291
1435,734	-5,5	-2,265
1437,881	-4,5	-2,137
1440,023	-4,5	-2,114
1442,159	-4,5	-2,088
1444,307	-4,5	-2,034
1446,449	-4	-1,93
1448,585	-3,5	-1,898
1450,727	-4	-1,832
1452,869	-3	-1,798
1455,01	-3	-1,774
1457,158	-3	-1,763
1459,294	-3	-1,679
1461,436	-2,5	-1,644
1463,578	-2	-1,603
1465,72	-2	-1,51
1467,856	-2	-1,448
1469,998	-1,5	-1,328
1472,139	-1	-1,234
1474,281	-1,5	-1,279
1476,423	-1	-1,091
1478,565	-1	-1,05
1480,713	-1	-1,019
1482,855	-0,5	-0,914
1484,997	-0,5	-0,924
1487,145	0	-0,789
1489,286	-0,5	-0,835
1491,446	0	-0,689
1493,594	0	-0,614
1495,736	0	-0,584
1497,896	0	-0,39
1500,038	0	-0,436
1502,174	0	-0,374
1504,322	0,5	-0,247
1506,464	1	-0,159
1508,605	1	-0,114
1510,747	1,5	-0,066
1512,901	1,5	-0,052
1515,037	1,5	-0,06
1517,179	1,5	-0,06
1519,327	1,5	-0,04
1521,475	1,5	-0,026
1523,617	2	-0,016
1525,758	2	-0,012
1527,894	1,5	-0,013
1530,042	2	-0,009
1532,19	2	-0,007
1534,326	2	-0,011
1536,474	2	-0,011
1538,616	2	-0,008
1540,758	2	-0,006
1542,899	2	-0,006
1545,047	2	-0,005
1547,189	2	-0,007
1549,333	2	-0,007
1551,473	2	-0,007
1553,621	2	-0,005
1555,763	2	-0,004
1557,905	2	-0,003
1560,047	2	-0,002
1562,188	2	-0,002
1564,336	2	-0,002
1566,478	2	-0,002
1568,626	2	-0,001
1570,768	2,5	-0,001
1572,91	2	-0,001
1575,052	2	-0,002
1577,205	2	-0,002
1579,347	2	-0,002
1581,495	2,5	-0,002
1583,637	2	-0,002
1585,785	2	-0,003
1587,927	2	-0,003
1590,075	2	-0,002
1592,217	2	-0,002
1594,353	2	-0,002
1596,494	2	-0,002
1598,636	2,5	-0,002
1600,784	2,5	-0,001
1602,938	2,5	-0,001
1605,08	2,5	-0,001
1607,222	2	-0,001
1609,37	2,5	-0,001
1611,506	2	-0,001
1613,647	2	-0,001
1615,795	2	-0,001
1617,949	2	-0,001
1620,091	2	0
1622,233	2	0
1624,375	2	0
1626,511	2	-0,012
1628,665	2	-0,18
1630,806	2	-0,198
1632,948	1,5	-0,262
1635,09	1,5	-0,34
1637,238	1,5	-0,426
1639,38	1	-0,515
1641,528	0	-0,676
1643,67	-0,5	-0,752
1645,806	-0,5	-0,8
1647,947	-0,5	-0,918
1650,089	-0,5	-0,864
1652,231	-1	-1,052
1654,373	-1	-1,108
1656,515	-1	-1,148
1658,657	-1	-1,188
1660,793	-1,5	-1,166
1662,941	-1,5	-1,236
1665,088	-1,5	-1,306
1667,23	-1,5	-1,372
1669,378	-1,5	-1,427
1671,514	-1,5	-1,462
1673,656	-1,5	-1,534
1675,798	-2	-1,648
1677,946	-2	-1,74
1680,082	-2	-1,722
1682,223	-2,5	-1,752
1684,371	-2,5	-1,876
1686,513	-3	-1,973
1688,649	-2,5	-1,92
1690,791	-3	-1,928
1692,933	-3	-1,989
1695,081	-3	-2,08
1697,229	-3,5	-2,187
1699,37	-3,5	-2,258
1701,518	-4	-2,334
1703,654	-4	-2,343
1705,802	-4,5	-2,408
1707,938	-4	-2,44
1710,086	-4,5	-2,503
1712,234	-4,5	-2,542
1714,376	-4,5	-2,529
1716,518	-4,5	-2,527
1718,659	-4,5	-2,502
1720,807	-5	-2,598
1722,949	-5	-2,638
1725,085	-5,5	-2,653
1727,227	-5,5	-2,726
1729,369	-5	-2,68
1731,511	-5,5	-2,747
1733,659	-5	-2,764
1735,794	-5,5	-2,725
1737,936	-5,5	-2,765
1740,084	-6	-2,84
1742,226	-6,5	-2,885
1744,368	-6	-2,903
1746,51	-6,5	-2,906
1748,664	-7	-2,98
1750,806	-6,5	-2,908
1752,947	-6	-2,878
1755,095	-6	-2,88
1757,243	-7	-3,013
1759,385	-7,5	-3,086
1761,527	-7,5	-3,133
1763,669	-7,5	-3,127
1765,811	-7,5	-3,183
1767,947	-7,5	-3,13
1770,094	-7,5	-3,12
1772,242	-8	-3,194
1774,384	-7,5	-3,08
1776,532	-7,5	-3,098
1778,674	-7,5	-3,168
1780,816	-7,5	-3,139
1782,958	-8	-3,164
1785,1	-8,5	-3,203
1787,235	-8	-3,232
1789,371	-7,5	-3,122
1791,513	-7	-3,068
1793,661	-7,5	-3,083
1795,803	-7,5	-3,048
1797,945	-7,5	-3,036
1800,093	-7,5	-3,111
1802,229	-7,5	-3,141
1804,376	-8,5	-3,252
1806,518	-9	-3,294
1808,672	-9	-3,32
1810,808	-9	-3,291
1812,956	-9,5	-3,346
1815,098	-9,5	-3,338
1817,246	-9	-3,328
1819,388	-9	-3,309
1821,529	-8,5	-3,283
1823,671	-9,5	-3,36
1825,813	-9	-3,352
1827,949	-9,5	-3,346
1830,103	-10	-3,38
1832,251	-10	-3,397
1834,393	-9,5	-3,376
1836,535	-10,5	-3,389
1838,677	-10,5	-3,407
1840,824	-10,5	-3,417
1842,966	-10,5	-3,43
1845,114	-10,5	-3,43
1847,262	-11	-3,453
1849,404	-11	-3,453
1851,552	-11,5	-3,461
1853,694	-11,5	-3,465
1855,836	-11,5	-3,468
1857,977	-11,5	-3,468
1860,113	-12	-3,466
1862,255	-11,5	-3,464
1864,397	-11,5	-3,467
1866,545	-11,5	-3,468
1868,687	-11,5	-3,469
1870,829	-11,5	-3,467
1872,971	-12	-3,469
1875,112	-12	-3,472
1877,254	-12	-3,476
1879,396	-12	-3,474
1881,538	-12	-3,474
1883,68	-12	-3,476
1885,828	-12	-3,485
1887,97	-12	-3,49
1890,112	-12	-3,492
1892,259	-12	-3,495
1894,401	-12	-3,496
1896,537	-12	-3,497
1898,679	-12	-3,497
1900,827	-12	-3,497
1902,969	-12	-3,497
1905,117	-12	-3,498
1907,253	-12	-3,499
1909,401	-12	-3,499
1911,542	-12	-3,5
1913,696	-12	-3,295
1915,838	-12	-3,248
1917,98	-12	-3,155
1920,122	-11	-3,013
1922,264	-9,5	-2,866
1924,412	-9	-2,824
1926,554	-9	-2,842
1928,695	-9	-2,78
1930,837	-8	-2,693
1932,985	-8	-2,671
1935,121	-7,5	-2,607
1937,269	-6	-2,458
1939,411	-5,5	-2,413
1941,547	-5,5	-2,414
1943,683	-6	-2,383
1945,83	-5	-2,275
1947,966	-4,5	-2,25
1950,108	-4,5	-2,156
1952,25	-4	-2,1
1954,398	-4	-1,988
1956,54	-3,5	-1,906
1958,682	-3	-1,808
1960,824	-3	-1,745
1962,965	-2	-1,525
1965,113	-1,5	-1,42
1967,255	-1,5	-1,351
1969,397	-1,5	-1,329
1971,545	-1	-1,259
1973,693	-1	-1,16
1975,829	-1	-1,2
1977,977	-1	-1,126
1980,118	-1	-1,11
1982,26	-1	-1,03
1984,408	-0,5	-0,969
1986,556	-0,5	-0,901
1988,692	0	-0,779
1990,834	0	-0,632
1992,976	0	-0,609
1995,118	0	-0,504
1997,265	0	-0,546
1999,401	0	-0,536
2001,555	0	-0,368
2003,697	0	-0,29
2005,845	1	-0,204
2007,987	1	-0,155
2010,135	1	-0,097
2012,271	1,5	-0,078
2014,412	1,5	-0,058
2016,554	2	-0,042
2018,702	2	-0,033
2020,844	2	-0,022
2022,986	2	-0,017
2025,134	2	-0,01
2027,276	2	-0,008
2029,418	2	-0,008
2031,56	2,5	-0,005
2033,707	2,5	-0,004
2035,855	2,5	-0,003
2037,997	2,5	-0,002
2040,139	2,5	-0,002
2042,281	2	-0,001
2044,423	2,5	-0,002
2046,559	2	-0,004
2048,701	2	-0,006
2050,842	2	-0,01
2052,99	2	-0,007
2055,132	2	-0,006
2057,274	2,5	-0,008
2059,41	2,5	-0,009
2061,558	2,5	-0,013
2063,7	2	-0,021
2065,842	2	-0,016
2067,989	2,5	-0,018
2070,131	2	-0,018
2072,279	2	-0,012
2074,415	2	-0,011
2076,557	2	-0,009
2078,699	2	-0,014
2080,847	2	-0,015
2082,983	2	-0,021
2085,136	2	-0,022
2087,272	2	-0,038
2089,414	2	-0,035
2091,556	2	-0,032
2093,704	2	-0,028
2095,846	2	-0,018
2097,994	2	-0,012
2100,136	2,5	-0,014
2102,277	2	-0,014
2104,425	2	-0,01
2106,561	2	-0,01
2108,703	2	-0,009
2110,845	2	-0,007
2112,987	2	-0,007
2115,129	2,5	-0,007
2117,271	2,5	-0,005
2119,418	2	-0,004
2121,554	2	-0,003
2123,69	2	-0,004
2125,832	2	-0,004
2127,968	2,5	-0,002
2130,122	2	-0,001
2132,264	2	-0,001
2134,4	2,5	0
2136,548	2	0
2138,689	2	-0,053
2140,831	2	-0,114
2142,973	2,5	-0,28
2145,121	1,5	-0,437
2147,263	0,5	-0,567
2149,411	0	-0,702
2151,547	0	-0,823
2153,695	-1	-1,022
2155,836	-1	-1,055
2157,978	-1	-1,18
2160,12	-1	-1,209
2162,256	-1,5	-1,326
2164,41	-2	-1,554
2166,546	-2	-1,738
2168,694	-3	-1,952
2170,836	-3	-2,12
2172,977	-3,5	-2,252
2175,119	-3,5	-2,396
2177,261	-4,5	-2,621
2179,403	-5	-2,784
2181,557	-7	-3,076
2183,699	-6	-3,003
2185,841	-7	-3,107
2187,989	-8	-3,292
2190,136	-9,5	-3,391
2192,278	-9	-3,359
2194,42	-8,5	-3,331
2196,568	-9	-3,372
2198,716	-7	-3,11
2200,864	-7	-3,158
2203,006	-7,5	-3,198
2205,154	-6,5	-3,018
2207,295	-6	-2,899
2209,437	-6	-2,951
2211,579	-5,5	-2,814
2213,721	-4,5	-2,646
2215,863	-4	-2,446
2218,011	-4	-2,395
2220,153	-3,5	-2,248
2222,289	-3	-2,098
2224,43	-3	-1,995
2226,572	-3	-2,008
2228,72	-2,5	-1,913
2230,862	-3	-1,964
2233,004	-2	-1,866
2235,152	-2	-1,749
2237,288	-2	-1,653
2239,43	-1,5	-1,534
2241,578	-1,5	-1,523
2243,725	-2	-1,705
2245,867	-1,5	-1,585
2248,009	-2	-1,689
2250,151	-1,5	-1,569
2252,293	-1,5	-1,588
2254,435	-1,5	-1,632
2256,577	-1,5	-1,449
2258,713	-1,5	-1,448
2260,854	-1	-1,367
2262,99	-1	-1,281
2265,126	-1,5	-1,46
2267,268	-1,5	-1,474
2269,41	-1,5	-1,46
2271,558	-1,5	-1,643
2273,7	-1,5	-1,612
2275,836	-1,5	-1,596
2277,977	-1,5	-1,488
2280,119	-1	-1,474
2282,261	-1,5	-1,668
2284,403	-2	-1,767
2286,545	-2,5	-1,928
2288,687	-3	-2,143
2290,829	-3,5	-2,348
2292,971	-4	-2,49
2295,112	-4,5	-2,699
2297,254	-5,5	-2,899
2299,402	-6	-3,096
2301,55	-7,5	-3,289
2303,692	-9	-3,378
2305,834	-9	-3,425
2307,988	-10,5	-3,453
2310,124	-10,5	-3,474
2312,271	-10,5	-3,473
2314,413	-10,5	-3,475
2316,555	-10	-3,47
2318,697	-10,5	-3,482
2320,845	-10,5	-3,489
2322,987	-10,5	-3,49
2325,141	-10,5	-3,494
2327,277	-10,5	-3,494
2329,418	-10,5	-3,494
2331,56	-10,5	-3,493
2333,708	-10,5	-3,496
2335,85	-10,5	-3,498
2337,992	-10,5	-3,498
2340,134	-10,5	-3,499
2342,27	-10,5	-3,499
2344,424	-10,5	-3,499
2346,565	-10,5	-3,499
2348,707	-10,5	-3,499
2350,849	-10,5	-3,476
2352,991	-10,5	-3,369
2355,133	-10	-3,185
2357,281	-8,5	-2,996
2359,423	-7,5	-2,876
2361,571	-7	-2,695
2363,713	-7,5	-2,783
2365,854	-6	-2,631
2368,002	-5	-2,423
2370,144	-4,5	-2,309
2372,298	-4	-2,155
2374,44	-3	-2,084
2376,582	-2,5	-1,869
2378,724	-2,5	-1,989
2380,872	-2,5	-1,844
2383,007	-1,5	-1,643
2385,155	-1	-1,44
2387,297	-0,5	-1,16
2389,439	0	-0,983
2391,581	0	-0,889
2393,729	0	-0,9
2395,871	0	-0,779
2398,007	0	-0,82
2400,154	0	-0,694
2402,29	0	-0,765
2404,438	0	-0,653
2406,58	0	-0,549
2408,722	0	-0,525
2410,864	0	-0,624
2413,012	0	-0,51
2415,148	0	-0,374
2417,283	0	-0,5
2419,425	0	-0,638
2421,573	0	-0,573
2423,715	0	-0,539
2425,857	0	-0,579
2427,999	0	-0,71
2430,135	0	-0,843
2432,277	0	-0,936
2434,418	0	-0,879
2436,566	0	-0,942
2438,702	-0,5	-1,103
2440,844	-0,5	-1,105
2442,986	-1	-1,375
2445,128	-1	-1,31
2447,276	-1	-1,455
2449,418	-1,5	-1,58
2451,56	-2	-1,736
2453,708	-2,5	-1,833
2455,849	-2,5	-1,872
2457,991	-3	-1,912
2460,139	-3,5	-2,162
2462,281	-4	-2,28
2464,429	-5	-2,46
2466,571	-6	-2,634
2468,713	-9	-2,96
2470,854	-9	-3,055
2473,002	-9	-3,075
2475,15	-10	-3,166
2477,298	-10	-3,313
2479,44	-10,5	-3,462
2481,582	-10	-3,5
2483,718	-10,5	-3,499
2485,854	-10	-3,499
2488,001	-10,5	-3,497
2490,143	-10,5	-3,496
2492,285	-10	-3,494
2494,427	-10	-3,491
2496,575	-10	-3,484
2498,711	-10	-3,464
2500,847	-9	-3,425
2502,995	-8,5	-3,376
2505,136	-7,5	-3,292
2507,278	-6,5	-3,179
2509,42	-5,5	-3,055
2511,568	-6	-3,072
2513,71	-5	-2,808
2515,852	-4	-2,523
2517,988	-3,5	-2,438
2520,136	-3	-2,326
2522,283	-2,5	-2,008
2524,431	-2,5	-1,882
2526,573	-1,5	-1,598
2528,715	-1	-1,25
2530,863	-0,5	-0,984
2533,005	0	-0,811
2535,141	0,5	-0,544
2537,289	2,5	-0,201
2539,436	2	-0,041
2541,578	2	0
2543,714	2	-0,002
2545,856	2	-0,008
2548,01	2	-0,014
2550,152	2	-0,031
2552,294	2	-0,046
2554,436	1,5	-0,099
2556,583	1	-0,149
2558,731	0,5	-0,359
2560,873	0	-0,49
2563,015	0	-0,7
2565,157	0	-0,894
2567,299	0	-0,976
2569,441	-0,5	-1,084
2571,577	-0,5	-1,282
2573,719	-0,5	-1,205
2575,866	-1	-1,396
2578,014	-1	-1,476
2580,156	-1	-1,546
2582,298	-1,5	-1,667
2584,446	-1,5	-1,793
2586,594	-2	-1,765
2588,742	-1,5	-1,573
2590,878	-1,5	-1,659
2593,019	-1	-1,496
2595,161	-1,5	-1,554
2597,309	-1,5	-1,649
2599,445	-1,5	-1,755
2601,587	-2	-1,806
2603,729	-2	-1,904
2605,877	-2,5	-1,994
2608,019	-3	-2,161
2610,154	-2,5	-1,984
2612,296	-3	-2,069
2614,444	-3	-2,26
2616,592	-5	-2,504
2618,734	-5,5	-2,66
2620,876	-7	-2,817
2623,012	-8	-2,982
2625,166	-8,5	-3,06
2627,307	-9	-3,207
2629,455	-9,5	-3,322
2631,597	-10	-3,402
2633,739	-9,5	-3,5
2635,881	-9,5	-3,5
2638,023	-9,5	-3,5
2640,165	-9,5	-3,499
2642,307	-10	-3,499
2644,454	-10	-3,498
2646,596	-10	-3,497
2648,738	-10	-3,496
2650,88	-9,5	-3,495
2653,028	-9,5	-3,494
2655,17	-9,5	-3,49
2657,318	-9,5	-3,495
2659,466	-10	-3,493
2661,613	-10	-3,494
2663,755	-9,5	-3,494
2665,897	-10	-3,489
2668,045	-10	-3,482
2670,187	-9,5	-3,463
2672,329	-9	-3,436
2674,465	-8	-3,356
2676,607	-7	-3,212
2678,754	-5,5	-3,028
2680,896	-3,5	-2,68
2683,038	-4	-2,708
2685,186	-4	-2,603
2687,328	-3	-2,336
2689,47	-2,5	-2,108
2691,612	-2	-1,882
2693,754	-1,5	-1,62
2695,896	-1	-1,34
2698,043	-1	-1,315
2700,185	-1	-1,306
2702,327	-0,5	-1,112
2704,475	-0,5	-1,049
2706,617	0	-0,813
2708,759	-0,5	-1,049
2710,901	-1	-1,238
2713,037	-1	-1,317
2715,184	-1	-1,441
2717,326	-1	-1,406
2719,462	-1	-1,474
2721,604	-1	-1,412
2723,752	-1	-1,556
2725,894	-1,5	-1,688
2728,036	-1,5	-1,839
2730,178	-2	-1,868
2732,313	-1,5	-1,904
2734,461	-2	-1,958
2736,603	-2,5	-2,088
2738,739	-2,5	-2,188
2740,887	-2	-2,068
2743,029	-2,5	-2,303
2745,183	-3,5	-2,478
2747,325	-3,5	-2,587
2749,46	-4	-2,708
2751,602	-4,5	-2,834
2753,744	-4,5	-2,863
2755,886	-5	-2,961
2758,028	-5,5	-3,103
2760,17	-6,5	-3,272
2762,312	-7,5	-3,375
2764,448	-7,5	-3,402
2766,589	-8,5	-3,443
2768,731	-9	-3,468
2770,873	-9	-3,476
2773,021	-9,5	-3,484
2775,169	-9,5	-3,484
2777,311	-9,5	-3,491
2779,453	-9,5	-3,494
2781,595	-9,5	-3,492
2783,731	-9,5	-3,493
2785,878	-10	-3,491
2788,026	-9,5	-3,49
2790,168	-9,5	-3,486
2792,304	-9	-3,47
2794,446	-9	-3,459
2796,588	-9	-3,47
2798,724	-9	-3,476
2800,872	-9,5	-3,487
2803,013	-9,5	-3,492
2805,155	-9,5	-3,494
2807,297	-9,5	-3,495
2809,445	-9,5	-3,496
2811,587	-9,5	-3,498
2813,729	-9,5	-3,498
2815,871	-9,5	-3,499
2818,013	-9,5	-3,499
2820,154	-9	-3,5
2822,296	-9,5	-3,471
2824,438	-9,5	-3,4
2826,58	-9,5	-3,5
2828,728	-9	-3,5
2830,87	-9	-3,5
2833,006	-9	-3,5
2835,148	-9	-3,499
2837,295	-9	-3,499
2839,431	-9	-3,499
2841,573	-9	-3,5
2843,715	-9	-3,491
2845,863	-8,5	-3,409
2848,005	-8,5	-3,321
2850,147	-8,5	-3,2
2852,295	-8	-3,114
2854,437	-6,5	-2,93
2856,572	-5,5	-2,808
2858,72	-5	-2,664
2860,862	-4,5	-2,57
2863,004	-4,5	-2,472
2865,152	-3	-2,323
2867,294	-2,5	-2,176
2869,442	-2	-2,005
2871,578	-1,5	-1,858
2873,725	-1,5	-1,754
2875,861	-1	-1,639
2878,009	-0,5	-1,5
2880,145	-0,5	-1,485
2882,281	-0,5	-1,416
2884,417	-0,5	-1,328
2886,559	0	-1,213
2888,707	0	-1,053
2890,842	0	-0,994
2892,984	0	-0,864
2895,126	0	-0,793
2897,274	0	-0,739
2899,416	0	-0,56
2901,558	0,5	-0,495
2903,7	0,5	-0,391
2905,842	1	-0,278
2907,983	0,5	-0,276
2910,131	1	-0,2
2912,273	1	-0,18
2914,415	1,5	-0,12
2916,557	1,5	-0,099
2918,699	1,5	-0,112
2920,853	2	-0,046
2922,995	2	-0,038
2925,136	2	-0,045
2927,278	1,5	-0,047
2929,426	1,5	-0,083
2931,568	1,5	-0,082
2933,71	1,5	-0,098
2935,852	1,5	-0,095
2938	1,5	-0,105
2940,148	1,5	-0,098
2942,289	1,5	-0,086
2944,431	1,5	-0,082
2946,573	2	-0,052
2948,715	1,5	-0,083
2950,863	1,5	-0,066
2952,999	1,5	-0,069
2955,141	1,5	-0,067
2957,289	1,5	-0,055
2959,424	1,5	-0,069
2961,572	1,5	-0,092
2963,708	1,5	-0,083
2965,85	1,5	-0,067
2967,998	1,5	-0,066
2970,14	1,5	-0,105
2972,294	1,5	-0,067
2974,436	2	-0,043
2976,578	2	-0,03
2978,719	2	-0,024
2980,855	2	-0,022
2983,003	2	-0,024
2985,151	2	-0,019
2987,293	2,5	-0,013
2989,435	2,5	-0,014
2991,577	2,5	-0,014
2993,731	2,5	-0,01
2995,866	2,5	-0,012
2998,014	2,5	-0,008
3000,156	2	-0,005
3002,298	2,5	-0,003
3004,446	2,5	-0,002
3006,582	2,5	-0,002
3008,73	2,5	-0,001
3010,872	2,5	-0,001
3013,013	2,5	-0,001
3015,161	2,5	-0,001
3017,303	2,5	-0,001
3019,445	2,5	-0,001
3021,587	2,5	-0,001
3023,735	2,5	0
3025,877	2,5	0
3028,019	2,5	0
3030,16	2	-0,036
3032,308	2,5	-0,188
3034,444	2,5	-0,214
3036,592	1,5	-0,372
3038,734	1,5	-0,417
3040,882	1,5	-0,482
3043,024	0	-0,624
3045,172	0	-0,812
3047,313	0	-0,93
3049,449	-0,5	-0,977
3051,591	0	-0,98
3053,739	0	-0,858
3055,881	0	-0,893
3058,029	0	-0,788
3060,165	0	-0,648
3062,307	1,5	-0,38
3064,454	2	-0,267
3066,596	1,5	-0,328
3068,744	2	-0,004
3070,886	2	-0,001
3073,022	2	-0,001
3075,158	2	-0,001
3077,306	2	-0,001
3079,448	2	-0,001
3081,59	2	0
3083,731	2	-0,001
3085,873	2,5	-0,001
3088,015	2	0
3090,157	2	0
3092,299	2,5	-0,001
3094,435	2	-0,001
3096,571	2	-0,001
3098,718	2,5	-0,002
3100,866	2	-0,005
3103,008	2,5	-0,011
3105,144	2	-0,023
3107,286	1	-0,088
3109,422	1	-0,189
3111,57	0	-0,487
3113,706	0	-0,541
3115,842	0	-0,515
3117,989	0	-0,419
3120,137	0,5	-0,407
3122,279	0,5	-0,33
3124,415	0	-0,565
3126,551	0	-0,57
3128,693	0	-0,712
3130,835	0	-0,875
3132,983	0	-0,766
3135,118	0	-0,724
3137,266	0	-0,654
3139,408	0	-0,614
3141,55	0	-0,538
3143,692	0	-0,493
3145,828	0	-0,466
3147,976	0,5	-0,381
3150,118	0,5	-0,379
3152,265	0,5	-0,256
3154,407	1	-0,211
3156,555	1	-0,176
3158,691	1,5	-0,154
3160,833	1	-0,16
3162,975	1	-0,17
3165,123	1,5	-0,12
3167,259	1,5	-0,107
3169,4	1	-0,153
3171,542	1	-0,142
3173,69	1,5	-0,11
3175,832	1,5	-0,084
3177,98	1,5	-0,072
3180,122	1,5	-0,064
3182,264	2	-0,041
3184,418	2	-0,034
3186,554	2	-0,04
3188,701	2	-0,046
3190,843	1,5	-0,049
3192,979	1,5	-0,051
3195,121	1,5	-0,042
3197,269	2	-0,032
3199,411	1,5	-0,03
3201,553	1,5	-0,033
3203,689	2	-0,028
3203,929	2	0