File: Cycling_tests/com_TC/entrada/_1.txt
Time (s)	Load (N)	Displacement (mm)
0	0	-0,037
2,171	2,5	-0,183
4,283	3	-0,003
6,395	3	-0,001
8,513	2,5	-0,004
10,624	3	-0,006
12,742	3	-0,012
14,872	3	-0,022
16,984	2,5	-0,033
19,096	1,5	-0,071
21,208	0	-0,133
23,326	-1,5	-0,222
25,438	-3	-0,437
27,555	-4	-0,538
29,667	-5	-0,69
31,785	-6,5	-0,744
33,897	-10	-1,088
36,015	-12	-1,28
38,127	-15,5	-1,614
40,251	-17,5	-1,765
42,363	-17,5	-1,726
44,481	-18	-1,746
46,598	-18	-1,8
48,722	-18	-1,771
50,846	-16,5	-1,758
52,964	-19	-1,864
55,082	-18,5	-1,828
57,194	-17	-1,768
59,312	-16	-1,683
61,43	-15	-1,64
63,547	-14,5	-1,578
65,677	-13	-1,395
67,801	-12	-1,319
69,913	-11	-1,311
72,025	-11	-1,315
74,143	-11	-1,257
76,255	-11	-1,303
78,372	-10	-1,213
80,484	-7,5	-1,014
82,596	-6,5	-0,907
84,714	-5,5	-0,806
86,832	-4,5	-0,694
88,944	-3,5	-0,699
91,068	-5	-0,808
93,18	-6	-0,828
95,304	-4,5	-0,76
97,421	-4,5	-0,702
99,539	-5	-0,729
101,657	-5	-0,783
103,781	-5,5	-0,828
105,893	-5	-0,794
108,023	-3	-0,633
110,141	-4	-0,676
112,259	-4,5	-0,724
114,377	-4,5	-0,746
116,488	-4,5	-0,777
118,6	-5,5	-0,845
120,718	-5,5	-0,866
122,836	-5,5	-0,856
124,954	-6,5	-0,989
127,072	-9	-1,192
129,19	-9	-1,213
131,301	-10,5	-1,382
133,419	-12,5	-1,483
135,537	-11,5	-1,424
137,655	-11,5	-1,446
139,779	-11,5	-1,401
141,891	-12,5	-1,51
144,015	-14	-1,646
146,139	-14	-1,644
148,256	-18	-1,788
150,368	-16,5	-1,904
152,498	-18	-1,976
154,616	-18,5	-2,035
156,74	-21	-2,154
158,864	-20,5	-2,265
160,982	-22	-2,434
163,1	-23	-2,545
165,217	-25	-2,641
167,335	-28,5	-2,779
169,459	-27,5	-2,91
171,577	-32,5	-3,119
173,695	-34	-3,321
175,825	-32,5	-3,198
177,943	-33,5	-3,38
180,061	-33,5	-3,5
182,173	-33	-3,499
184,296	-33	-3,499
186,42	-32,5	-3,499
188,538	-32,5	-3,499
190,656	-32	-3,498
192,78	-32	-3,498
194,898	-32	-3,497
197,01	-32	-3,495
199,134	-31,5	-3,494
201,245	-31,5	-3,486
203,369	-31,5	-3,48
205,499	-31,5	-3,475
207,611	-30,5	-3,455
209,723	-29	-3,422
211,853	-26,5	-3,353
213,971	-25,5	-3,315
216,095	-24,5	-3,28
218,212	-24,5	-3,256
220,336	-25	-3,258
222,454	-23,5	-3,15
224,572	-21,5	-2,962
226,696	-21,5	-2,881
228,814	-19,5	-2,758
230,938	-17	-2,475
233,05	-14	-2,273
235,167	-11	-1,975
237,291	-9	-1,75
239,409	-7	-1,484
241,533	-6	-1,316
243,651	-2,5	-0,901
245,763	-0,5	-0,706
247,881	1,5	-0,551
249,993	3	-0,371
252,111	3,5	-0,164
254,234	3,5	0
256,352	3,5	-0,001
258,476	3,5	-0,001
260,6	3,5	-0,002
262,724	3,5	-0,004
264,842	3,5	-0,008
266,972	3,5	-0,01
269,09	3	-0,03
271,201	3	-0,045
273,325	1	-0,08
275,455	1,5	-0,112
277,567	0	-0,226
279,691	-0,5	-0,274
281,809	-3,5	-0,586
283,927	-3,5	-0,688
286,051	-4,5	-0,801
288,18	-4,5	-0,848
290,304	-5,5	-0,978
292,416	-7	-1,12
294,54	-7	-1,164
296,67	-10,5	-1,434
298,8	-13,5	-1,753
300,924	-16	-1,968
303,048	-18	-2,087
305,172	-18,5	-2,216
307,295	-18,5	-2,188
309,425	-19	-2,159
311,555	-18,5	-2,194
313,679	-19	-2,187
315,809	-20	-2,265
317,927	-21	-2,378
320,039	-21,5	-2,445
322,157	-22,5	-2,522
324,28	-23,5	-2,65
326,404	-24,5	-2,737
328,534	-24	-2,741
330,652	-24,5	-2,77
332,782	-25	-2,773
334,906	-27	-2,919
337,024	-30,5	-3,241
339,136	-30,5	-3,5
341,259	-30,5	-3,5
343,377	-30	-3,499
345,507	-30	-3,499
347,625	-30,5	-3,498
349,743	-30,5	-3,497
351,861	-30	-3,496
353,979	-30	-3,492
356,103	-30	-3,482
358,22	-29,5	-3,467
360,344	-29,5	-3,47
362,48	-29,5	-3,478
364,598	-29,5	-3,468
366,71	-29	-3,458
368,834	-28,5	-3,449
370,958	-28,5	-3,452
373,088	-29	-3,449
375,206	-28,5	-3,441
377,323	-26,5	-3,393
379,447	-26,5	-3,364
381,559	-24,5	-3,314
383,677	-24,5	-3,284
385,801	-22,5	-3,162
387,919	-22,5	-3,114
390,037	-21	-2,997
392,161	-20,5	-2,972
394,284	-20,5	-2,863
396,396	-20	-2,919
398,514	-20,5	-2,934
400,638	-21,5	-3,082
402,768	-22,5	-3,062
404,886	-22	-3,017
407,01	-20,5	-2,882
409,128	-17,5	-2,678
411,257	-17	-2,639
413,381	-15,5	-2,561
415,505	-17	-2,581
417,617	-15,5	-2,567
419,741	-14	-2,406
421,859	-13,5	-2,351
423,977	-13,5	-2,356
426,095	-14	-2,351
428,218	-13	-2,279
430,342	-14,5	-2,336
432,46	-14,5	-2,467
434,578	-14,5	-2,436
436,702	-15	-2,392
438,826	-12,5	-2,192
440,956	-11	-2,107
443,074	-9,5	-1,942
445,192	-8,5	-1,815
447,315	-7,5	-1,727
449,427	-6,5	-1,554
451,545	-6	-1,394
453,675	-5,5	-1,442
455,805	-5	-1,284
457,923	-5,5	-1,375
460,047	-5	-1,302
462,171	-4,5	-1,172
464,3	-5	-1,244
466,418	-4,5	-1,264
468,548	-4,5	-1,244
470,672	-4	-1,13
472,796	-3	-1,031
474,914	-2,5	-0,93
477,038	-1	-0,8
479,162	-1	-0,726
481,285	0	-0,594
483,403	2	-0,465
485,527	3,5	-0,276
487,663	2	-0,446
489,787	3	-0,353
491,911	4	-0,238
494,029	4	0
496,153	4	0
498,276	4	0
500,394	4	-0,027
502,518	4	0
504,642	4	0
506,76	4	0
508,884	3,5	-0,001
511,008	4	-0,001
513,126	4	-0,002
515,237	4	-0,003
517,355	3,5	-0,003
519,479	4	-0,002
521,603	4	-0,002
523,727	4	-0,003
525,857	4	-0,003
527,981	4	-0,004
530,099	4	-0,005
532,223	4	-0,005
534,346	4	-0,004
536,464	4	-0,005
538,594	4	-0,005
540,724	4	-0,004
542,836	4	-0,003
544,966	4	-0,002
547,096	4	-0,002
549,208	4	-0,002
551,337	4	-0,003
553,467	4	-0,003
555,591	4	-0,003
557,715	4	-0,002
559,839	4	-0,002
561,963	4	-0,002
564,093	4	-0,001
566,217	4	-0,001
568,334	4	-0,001
570,452	4	-0,001
572,57	4	-0,001
574,7	4	-0,001
576,824	4	-0,001
578,936	4	-0,001
581,054	4	-0,001
583,172	4	-0,002
585,295	4	-0,002
587,419	4	-0,001
589,549	4	-0,002
591,679	4	-0,001
593,809	4	-0,001
595,921	4	-0,002
598,051	4	-0,001
600,175	4	-0,002
602,293	4	-0,003
604,416	4	-0,004
606,534	4	-0,004
608,658	4	-0,003
610,776	4	-0,006
612,9	4	-0,007
615,018	4	-0,008
617,154	4	-0,004
619,278	4	-0,006
621,395	4	-0,006
623,525	4	-0,006
625,643	4	-0,004
627,761	4	-0,004
629,885	4	-0,002
632,009	4	-0,002
634,127	4	-0,002
636,257	4	-0,001
638,38	4	-0,001
640,504	4	-0,001
642,616	4	0
644,74	4	-0,012
646,87	4	-0,054
649	4	-0,027
651,118	4	-0,043
653,23	4	-0,032
655,347	4	-0,097
657,471	3,5	-0,236
659,601	4	-0,248
661,719	4	-0,203
663,849	2,5	-0,367
665,973	2,5	-0,403
668,097	1,5	-0,464
670,221	1,5	-0,531
672,345	1,5	-0,512
674,462	2,5	-0,443
676,58	2	-0,475
678,71	0	-0,61
680,834	-1	-0,83
682,958	-2	-0,944
685,082	-2,5	-0,99
687,206	-1,5	-0,931
689,324	-1,5	-0,891
691,441	-2	-0,879
693,565	-2,5	-0,9
695,689	-0,5	-0,755
697,813	-0,5	-0,757
699,937	0,5	-0,665
702,055	1,5	-0,563
704,179	4	-0,422
706,303	4	-0,332
708,42	4	-0,269
710,538	3,5	-0,382
712,662	3	-0,486
714,792	1	-0,61
716,922	2,5	-0,648
719,046	1,5	-0,528
721,17	0,5	-0,622
723,294	0	-0,683
725,417	0,5	-0,66
727,541	0,5	-0,7
729,659	1,5	-0,63
731,789	-0,5	-0,775
733,913	-0,5	-0,779
736,037	0	-0,739
738,155	1	-0,638
740,279	1	-0,641
742,397	2,5	-0,48
744,526	1,5	-0,545
746,638	2,5	-0,552
748,762	0	-0,694
750,892	-0,5	-0,801
753,016	-0,5	-0,782
755,14	0,5	-0,675
757,258	0	-0,765
759,388	-1,5	-0,872
761,511	-0,5	-0,768
763,629	-0,5	-0,752
765,753	-0,5	-0,803
767,877	-1,5	-0,896
770,001	-2	-0,904
772,119	-2,5	-1,042
774,243	-3,5	-1,162
776,373	-4	-1,307
778,484	-4,5	-1,368
780,614	-5	-1,522
782,732	-5	-1,475
784,85	-4,5	-1,373
786,968	-4	-1,239
789,092	-3,5	-1,204
791,21	-4	-1,232
793,334	-4,5	-1,421
795,457	-4,5	-1,36
797,581	-5	-1,421
799,699	-4	-1,262
801,823	-4	-1,254
803,941	-4	-1,242
806,059	-4	-1,264
808,183	-4,5	-1,337
810,307	-4,5	-1,382
812,431	-4,5	-1,358
814,554	-4,5	-1,362
816,672	-4,5	-1,435
818,79	-5	-1,446
820,92	-5,5	-1,479
823,044	-6	-1,587
825,168	-6	-1,601
827,292	-6	-1,674
829,416	-6,5	-1,751
831,539	-9	-1,994
833,657	-9,5	-2,052
835,775	-7,5	-1,919
837,899	-9	-2,002
840,023	-9,5	-2,084
842,141	-9,5	-2,083
844,259	-10,5	-2,179
846,377	-10,5	-2,146
848,506	-10	-2,152
850,624	-10	-2,116
852,742	-9	-2,019
854,86	-9,5	-2,062
856,99	-9	-2,052
859,114	-9,5	-2,113
861,232	-9	-2,049
863,356	-9,5	-2,015
865,474	-8,5	-1,982
867,585	-8	-1,947
869,703	-9	-2,058
871,827	-9	-2,067
873,945	-10,5	-2,194
876,069	-11,5	-2,356
878,187	-13,5	-2,531
880,311	-13,5	-2,566
882,429	-15	-2,72
884,552	-14	-2,611
886,676	-15	-2,656
888,8	-15,5	-2,697
890,918	-15,5	-2,692
893,036	-16	-2,702
895,154	-16,5	-2,75
897,278	-16,5	-2,786
899,396	-16	-2,741
901,513	-17,5	-2,831
903,637	-18,5	-2,915
905,755	-19,5	-3,021
907,885	-19,5	-3,07
910,003	-21	-3,181
912,127	-21	-3,188
914,251	-21,5	-3,254
916,375	-23,5	-3,323
918,504	-24	-3,383
920,622	-25	-3,418
922,752	-26,5	-3,456
924,87	-27	-3,472
927	-27	-3,477
929,124	-27,5	-3,489
931,242	-27,5	-3,492
933,366	-27	-3,493
935,484	-27,5	-3,496
937,601	-27,5	-3,495
939,725	-27,5	-3,496
941,849	-27,5	-3,498
943,967	-27,5	-3,498
946,091	-27,5	-3,498
948,215	-27,5	-3,498
950,339	-27,5	-3,498
952,457	-27,5	-3,499
954,574	-27,5	-3,499
956,692	-27,5	-3,499
958,816	-27,5	-3,499
960,94	-27,5	-3,465
963,058	-27,5	-3,344
965,182	-27	-3,284
967,3	-27	-3,159
969,424	-25,5	-3,038
971,547	-25,5	-3,003
973,671	-23,5	-2,952
975,789	-25	-3,07
977,907	-25,5	-3,022
980,031	-24	-2,992
982,155	-24,5	-2,99
984,273	-25	-3,049
986,397	-24	-2,94
988,514	-22,5	-2,816
990,632	-21,5	-2,726
992,756	-20,5	-2,634
994,88	-19,5	-2,534
997,004	-18	-2,43
999,128	-15	-2,279
1001,246	-16	-2,269
1003,37	-15	-2,244
1005,488	-15	-2,26
1007,611	-13,5	-2,14
1009,729	-14	-2,174
1011,847	-14	-2,178
1013,965	-15	-2,19
1016,089	-13,5	-2,159
1018,219	-14,5	-2,148
1020,343	-13	-2,054
1022,461	-13,5	-2,071
1024,578	-13	-2,023
1026,696	-13	-2,066
1028,814	-13	-2,061
1030,932	-12,5	-2,041
1033,056	-12,5	-2,016
1035,174	-12	-2,01
1037,298	-13,5	-2,088
1039,422	-12	-1,942
1041,539	-11	-1,863
1043,669	-9	-1,706
1045,787	-7,5	-1,622
1047,905	-9,5	-1,791
1050,029	-10	-1,806
1052,153	-12	-1,978
1054,271	-15,5	-2,304
1056,401	-17,5	-2,408
1058,524	-19	-2,57
1060,642	-18	-2,538
1062,766	-17,5	-2,466
1064,884	-18	-2,509
1067,014	-16	-2,338
1069,138	-19,5	-2,329
1071,256	-15	-2,255
1073,386	-13,5	-2,154
1075,503	-13	-2,143
1077,627	-11	-1,959
1079,751	-10,5	-1,882
1081,869	-10,5	-1,78
1084,005	-6,5	-1,51
1086,123	-6	-1,474
1088,253	-5,5	-1,324
1090,377	-6	-1,354
1092,494	-7	-1,416
1094,618	-7	-1,451
1096,736	-7,5	-1,514
1098,86	-5,5	-1,416
1100,978	-6	-1,395
1103,102	-5	-1,318
1105,232	-5,5	-1,333
1107,35	-5	-1,274
1109,474	-5,5	-1,352
1111,591	-6,5	-1,464
1113,721	-6,5	-1,542
1115,839	-6,5	-1,521
1117,963	-8	-1,656
1120,087	-8,5	-1,707
1122,205	-10	-1,888
1124,329	-13	-2,097
1126,447	-13,5	-2,172
1128,57	-13,5	-2,142
1130,694	-15	-2,144
1132,818	-13	-2,13
1134,948	-13,5	-2,162
1137,066	-15	-2,258
1139,19	-18	-2,478
1141,308	-20,5	-2,569
1143,432	-21,5	-2,571
1145,549	-20	-2,652
1147,667	-22	-2,811
1149,785	-22,5	-2,913
1151,909	-24,5	-2,942
1154,027	-24,5	-2,856
1156,151	-21	-2,764
1158,275	-20,5	-2,691
1160,399	-21	-2,608
1162,528	-18	-2,517
1164,652	-18,5	-2,535
1166,776	-18	-2,57
1168,894	-18,5	-2,533
1171,024	-18	-2,35
1173,142	-15	-2,304
1175,272	-15	-2,228
1177,402	-14	-2,163
1179,52	-13,5	-2,142
1181,643	-11,5	-1,952
1183,755	-11,5	-1,984
1185,873	-12,5	-1,889
1187,991	-11	-1,856
1190,115	-9	-1,736
1192,239	-7,5	-1,611
1194,369	-7	-1,434
1196,487	-5,5	-1,329
1198,61	-5	-1,156
1200,74	-4,5	-1,148
1202,858	-3,5	-1,096
1204,976	-3	-0,995
1207,1	-3	-0,955
1209,224	-2,5	-0,802
1211,342	-1,5	-0,686
1213,466	-1	-0,572
1215,583	0	-0,455
1217,707	0	-0,278
1219,825	0,5	-0,205
1221,949	2	-0,111
1224,067	3	-0,061
1226,185	3,5	-0,046
1228,303	3,5	-0,046
1230,427	3,5	-0,03
1232,55	4	-0,017
1234,674	4	-0,014
1236,792	4	-0,012
1238,904	4	-0,012
1241,028	4	-0,011
1243,152	4,5	-0,009
1245,276	4	-0,008
1247,4	4	-0,006
1249,518	4	-0,005
1251,635	4	-0,006
1253,759	4	-0,005
1255,877	4	-0,005
1257,995	4,5	-0,004
1260,125	4	-0,001
1262,243	4,5	-0,001
1264,367	4	0
1266,491	4	-0,012
1268,614	4,5	-0,077
1270,738	4	-0,155
1272,862	4	-0,258
1274,98	4	-0,329
1277,098	4	-0,186
1279,21	4	-0,2
1281,334	4	-0,228
1283,458	4,5	-0,277
1285,581	4	-0,274
1287,699	3,5	-0,365
1289,817	2	-0,52
1291,941	3	-0,645
1294,065	-0,5	-0,812
1296,183	-1	-0,892
1298,301	-1	-0,982
1300,419	-2,5	-1,131
1302,543	-3	-1,192
1304,66	-3	-1,251
1306,79	-4	-1,385
1308,914	-4,5	-1,506
1311,038	-5,5	-1,71
1313,156	-6	-1,832
1315,28	-7	-1,942
1317,398	-7,5	-2,01
1319,522	-7,5	-1,997
1321,639	-7,5	-2,05
1323,763	-9	-2,176
1325,881	-10	-2,35
1328,005	-12	-2,465
1330,123	-12	-2,538
1332,247	-13,5	-2,616
1334,365	-13	-2,739
1336,483	-14,5	-2,786
1338,6	-15,5	-2,886
1340,724	-15,5	-2,953
1342,848	-18,5	-3,094
1344,966	-19,5	-3,157
1347,084	-18,5	-3,157
1349,208	-21	-3,281
1351,326	-22,5	-3,341
1353,45	-22,5	-3,37
1355,574	-22	-3,351
1357,697	-22,5	-3,376
1359,815	-22,5	-3,372
1361,939	-23	-3,399
1364,069	-24	-3,411
1366,193	-24	-3,43
1368,317	-24,5	-3,445
1370,441	-24,5	-3,447
1372,558	-25	-3,458
1374,682	-25,5	-3,461
1376,8	-25,5	-3,472
1378,924	-25,5	-3,474
1381,042	-26	-3,48
1383,172	-25,5	-3,481
1385,284	-26	-3,483
1387,414	-26	-3,489
1389,532	-26	-3,491
1391,655	-26	-3,492
1393,773	-26	-3,494
1395,897	-26	-3,496
1398,015	-26	-3,495
1400,145	-26	-3,496
1402,263	-26,5	-3,496
1404,387	-26	-3,497
1406,511	-26	-3,497
1408,634	-26	-3,498
1410,758	-26	-3,498
1412,876	-26	-3,499
1415	-26	-3,499
1417,118	-26	-3,498
1419,242	-26,5	-3,498
1421,354	-26	-3,497
1423,484	-26	-3,497
1425,601	-26	-3,496
1427,731	-26	-3,496
1429,849	-26	-3,494
1431,973	-26	-3,492
1434,091	-26	-3,491
1436,215	-26	-3,491
1438,339	-26	-3,492
1440,469	-26	-3,495
1442,581	-26	-3,495
1444,704	-26	-3,497
1446,822	-26	-3,498
1448,946	-26	-3,498
1451,064	-26	-3,498
1453,188	-26	-3,499
1455,306	-26	-3,499
1457,43	-26	-3,499
1459,548	-26	-3,499
1461,665	-26	-3,5
1463,783	-26	-3,5
1465,901	-26	-3,455
1468,031	-26	-3,28
1470,149	-26	-3,193
1472,273	-25	-3,099
1474,391	-24	-3,045
1476,515	-23	-2,915
1478,626	-22	-2,86
1480,744	-20	-2,711
1482,868	-18	-2,554
1484,986	-16,5	-2,453
1487,116	-14,5	-2,329
1489,234	-15	-2,294
1491,358	-12,5	-2,189
1493,476	-11,5	-2,115
1495,599	-9,5	-1,92
1497,717	-8,5	-1,82
1499,841	-8,5	-1,764
1501,959	-7	-1,637
1504,083	-6	-1,48
1506,201	-5	-1,384
1508,325	-4,5	-1,312
1510,443	-4,5	-1,265
1512,573	-3	-1,034
1514,69	-2	-0,85
1516,814	-1	-0,729
1518,938	-1	-0,688
1521,05	-1,5	-0,693
1523,18	0	-0,543
1525,304	0	-0,39
1527,422	0,5	-0,311
1529,54	1	-0,245
1531,657	2	-0,167
1533,775	2,5	-0,129
1535,899	3	-0,093
1538,017	3,5	-0,059
1540,135	4	-0,038
1542,253	4	-0,028
1544,377	4	-0,017
1546,495	4	-0,015
1548,618	4,5	-0,009
1550,742	4,5	-0,008
1552,866	4,5	-0,006
1554,99	4,5	-0,005
1557,108	4,5	-0,004
1559,232	4,5	-0,003
1561,356	4,5	-0,002
1563,474	4,5	-0,002
1565,597	4,5	-0,001
1567,715	4,5	-0,001
1569,833	4,5	-0,001
1571,963	4,5	-0,001
1574,081	4,5	-0,114
1576,205	4	-0,262
1578,323	3,5	-0,344
1580,447	3	-0,416
1582,565	3	-0,485
1584,694	1	-0,566
1586,818	0	-0,718
1588,936	-0,5	-0,734
1591,06	-1	-0,8
1593,178	-1	-0,816
1595,308	-1,5	-0,96
1597,426	-1	-0,966
1599,544	-1,5	-0,975
1601,661	-2,5	-1,06
1603,791	-3	-1,19
1605,909	-3,5	-1,278
1608,033	-3,5	-1,351
1610,151	-4	-1,41
1612,263	-4	-1,454
1614,387	-4,5	-1,595
1616,499	-5,5	-1,713
1618,622	-6	-1,845
1620,746	-6,5	-1,952
1622,864	-7	-2,033
1624,988	-8,5	-2,157
1627,112	-9	-2,219
1629,23	-10	-2,304
1631,36	-10,5	-2,444
1633,478	-10,5	-2,448
1635,601	-11,5	-2,541
1637,719	-11	-2,472
1639,855	-13	-2,621
1641,973	-13,5	-2,695
1644,091	-15	-2,801
1646,209	-14,5	-2,746
1648,333	-15	-2,824
1650,451	-15,5	-2,882
1652,569	-17,5	-3,036
1654,686	-18,5	-3,105
1656,804	-17,5	-3,126
1658,922	-15,5	-3,142
1661,04	-18,5	-3,178
1663,158	-17,5	-3,172
1665,282	-19,5	-3,302
1667,394	-20,5	-3,336
1669,518	-21	-3,357
1671,635	-21	-3,362
1673,759	-22	-3,401
1675,889	-24	-3,438
1678,013	-24	-3,456
1680,131	-24,5	-3,464
1682,249	-24,5	-3,47
1684,367	-24	-3,467
1686,479	-24,5	-3,473
1688,602	-24,5	-3,477
1690,726	-24,5	-3,482
1692,85	-24,5	-3,484
1694,968	-24,5	-3,485
1697,086	-24,5	-3,488
1699,21	-24,5	-3,49
1701,328	-24,5	-3,49
1703,458	-25	-3,491
1705,575	-24,5	-3,492
1707,705	-24,5	-3,495
1709,823	-24,5	-3,496
1711,953	-25	-3,497
1714,071	-24,5	-3,498
1716,195	-24,5	-3,499
1718,319	-24,5	-3,498
1720,443	-25	-3,498
1722,566	-25	-3,498
1724,69	-24,5	-3,498
1726,808	-24,5	-3,498
1728,932	-24,5	-3,499
1731,05	-25	-3,499
1733,174	-24,5	-3,499
1735,292	-24,5	-3,499
1737,416	-24,5	-3,499
1739,534	-24,5	-3,5
1741,663	-24,5	-3,478
1743,781	-24,5	-3,389
1745,899	-24,5	-3,359
1748,023	-24,5	-3,249
1750,141	-24	-3,172
1752,265	-23	-3,068
1754,383	-24,5	-3,106
1756,507	-22,5	-3,023
1758,624	-22,5	-3,002
1760,742	-20,5	-2,906
1762,866	-18,5	-2,734
1764,984	-17,5	-2,68
1767,108	-16	-2,565
1769,226	-16	-2,555
1771,344	-16	-2,566
1773,468	-15	-2,494
1775,585	-15	-2,489
1777,709	-14	-2,369
1779,827	-13,5	-2,337
1781,951	-13,5	-2,345
1784,069	-13	-2,309
1786,187	-13	-2,324
1788,311	-12,5	-2,264
1790,429	-13	-2,29
1792,553	-12	-2,186
1794,67	-12	-2,23
1796,788	-12	-2,224
1798,912	-12	-2,21
1801,03	-12	-2,195
1803,142	-10,5	-2,114
1805,266	-10	-2,042
1807,384	-9	-1,974
1809,508	-8	-1,848
1811,625	-7,5	-1,805
1813,743	-6,5	-1,737
1815,867	-6	-1,611
1817,985	-4,5	-1,463
1820,103	-4,5	-1,464
1822,221	-4	-1,394
1824,345	-4	-1,36
1826,463	-3,5	-1,354
1828,58	-3,5	-1,328
1830,704	-3,5	-1,278
1832,822	-3	-1,23
1834,946	-2,5	-1,136
1837,064	-2,5	-1,105
1839,182	-2	-1,053
1841,306	-2,5	-0,959
1843,424	-1	-0,816
1845,547	-0,5	-0,734
1847,665	-0,5	-0,728
1849,783	-0,5	-0,653
1851,907	0	-0,529
1854,025	0	-0,454
1856,149	0	-0,34
1858,267	0,5	-0,278
1860,385	0,5	-0,248
1862,509	1,5	-0,156
1864,626	1,5	-0,135
1866,75	2	-0,106
1868,868	2,5	-0,102
1870,986	3	-0,085
1873,104	3,5	-0,063
1875,222	3,5	-0,064
1877,346	3,5	-0,05
1879,47	3,5	-0,032
1881,587	4,5	-0,02
1883,717	4,5	-0,013
1885,835	4,5	-0,012
1887,959	4,5	-0,008
1890,077	4,5	-0,009
1892,195	4,5	-0,006
1894,319	4,5	-0,004
1896,437	4,5	-0,004
1898,56	4,5	-0,004
1900,678	4,5	-0,004
1902,796	4,5	-0,003
1904,914	4,5	-0,002
1907,032	4,5	-0,002
1909,156	4,5	-0,001
1911,274	4,5	-0,001
1913,392	4,5	-0,001
1915,515	4,5	0
1917,633	4,5	0
1919,751	4,5	-0,002
1921,869	4,5	-0,023
1923,993	4,5	-0,142
1926,111	4	-0,197
1928,229	3,5	-0,327
1930,347	3,5	-0,422
1932,464	3,5	-0,433
1934,582	3	-0,427
1936,7	3	-0,437
1938,824	2,5	-0,521
1940,942	2,5	-0,489
1943,06	2,5	-0,488
1945,184	3	-0,485
1947,302	3	-0,437
1949,42	1,5	-0,57
1951,543	0	-0,727
1953,661	0	-0,786
1955,785	-0,5	-0,813
1957,909	0	-0,78
1960,027	-0,5	-0,829
1962,151	-1	-0,885
1964,269	-1,5	-0,937
1966,393	-1,5	-0,993
1968,51	-1,5	-1,015
1970,628	-2	-1,083
1972,746	-2	-1,072
1974,864	-1,5	-1,157
1976,982	-1,5	-1,082
1979,1	-1,5	-0,996
1981,218	-1,5	-1,103
1983,342	-2	-1,25
1985,459	-2	-1,265
1987,577	-2,5	-1,274
1989,701	-2,5	-1,353
1991,819	-3	-1,416
1993,943	-3	-1,504
1996,061	-3,5	-1,589
1998,179	-3,5	-1,641
2000,297	-4,5	-1,757
2002,415	-4,5	-1,8
2004,538	-4,5	-1,872
2006,656	-4,5	-1,894
2008,774	-4,5	-1,888
2010,892	-4,5	-1,86
2013,01	-5	-1,924
2015,128	-5	-2,023
2017,258	-5,5	-2,18
2019,376	-6	-2,249
2021,493	-6	-2,254
2023,611	-6,5	-2,386
2025,729	-7,5	-2,429
2027,847	-7,5	-2,512
2029,965	-7,5	-2,534
2032,083	-8	-2,576
2034,201	-9	-2,667
2036,325	-10	-2,856
2038,442	-9,5	-2,871
2040,566	-10	-2,884
2042,684	-10,5	-2,926
2044,802	-10,5	-2,915
2046,92	-11	-2,98
2049,038	-11	-3,075
2051,162	-13	-3,178
2053,286	-14	-3,308
2055,403	-15	-3,375
2057,521	-16,5	-3,423
2059,645	-16,5	-3,438
2061,775	-17	-3,463
2063,899	-16,5	-3,47
2066,017	-17	-3,475
2068,135	-17,5	-3,485
2070,259	-18	-3,49
2072,377	-17,5	-3,492
2074,506	-17,5	-3,495
2076,624	-18	-3,496
2078,748	-17,5	-3,498
2080,872	-17,5	-3,499
2082,99	-18	-3,499
2085,108	-17,5	-3,499
2087,232	-17,5	-3,388
2089,35	-17,5	-3,371
2091,467	-17,5	-3,268
2093,591	-15,5	-3,054
2095,709	-17	-2,99
2097,827	-12,5	-2,836
2099,951	-11,5	-2,764
2102,069	-10	-2,625
2104,193	-9	-2,505
2106,305	-9,5	-2,589
2108,422	-7,5	-2,399
2110,546	-6,5	-2,305
2112,664	-5,5	-2,168
2114,782	-5	-2,094
2116,9	-4,5	-2,014
2119,018	-4	-1,955
2121,142	-3	-1,825
2123,254	-3,5	-1,792
2125,371	-2,5	-1,633
2127,489	-1,5	-1,48
2129,607	-1,5	-1,41
2131,725	-0,5	-1,166
2133,843	-0,5	-1,118
2135,955	0	-1,037
2138,079	0	-0,859
2140,197	0,5	-0,774
2142,309	1	-0,656
2144,432	1	-0,579
2146,55	1,5	-0,455
2148,668	1,5	-0,334
2150,792	2	-0,244
2152,91	2,5	-0,161
2155,034	2,5	-0,113
2157,152	3,5	-0,07
2159,264	3,5	-0,063
2161,387	3,5	-0,052
2163,505	3,5	-0,052
2165,629	4	-0,032
2167,747	4,5	-0,028
2169,859	4,5	-0,022
2171,983	4,5	-0,016
2174,107	4,5	-0,013
2176,225	4,5	-0,01
2178,342	4,5	-0,007
2180,46	4,5	-0,006
2182,578	4,5	-0,008
2184,696	4,5	-0,006
2186,82	4,5	-0,006
2188,938	4,5	-0,004
2191,062	4,5	-0,003
2193,174	4,5	-0,002
2195,291	4,5	-0,002
2197,415	4,5	-0,001
2199,533	4,5	0
2201,657	4,5	-0,059
2203,775	4,5	-0,104
2205,893	4,5	-0,259
2208,017	4,5	-0,326
2210,135	4	-0,294
2212,259	3	-0,452
2214,376	1,5	-0,611
2216,494	1	-0,675
2218,618	0	-0,768
2220,736	0	-0,821
2222,854	-0,5	-0,97
2224,978	-0,5	-0,962
2227,096	-1	-1,09
2229,22	-1,5	-1,177
2231,337	-1,5	-1,22
2233,455	-1,5	-1,31
2235,579	-2,5	-1,456
2237,697	-2,5	-1,519
2239,821	-2,5	-1,523
2241,939	-2,5	-1,543
2244,057	-2,5	-1,644
2246,181	-3	-1,685
2248,298	-2,5	-1,716
2250,422	-3	-1,836
2252,546	-3	-1,881
2254,664	-3	-1,939
2256,788	-4	-2,038
2258,906	-3,5	-2,171
2261,03	-4,5	-2,27
2263,148	-4,5	-2,263
2265,265	-4,5	-2,381
2267,389	-5,5	-2,538
2269,507	-6,5	-2,675
2271,625	-6	-2,717
2273,749	-7,5	-2,806
2275,867	-8	-2,874
2277,991	-8	-2,989
2280,109	-9	-3,048
2282,227	-10,5	-3,239
2284,35	-12	-3,361
2286,468	-13,5	-3,41
2288,592	-14,5	-3,445
2290,71	-15	-3,46
2292,828	-15	-3,474
2294,952	-15	-3,484
2297,07	-15	-3,49
2299,188	-15	-3,491
2301,311	-15	-3,494
2303,429	-15	-3,494
2305,547	-15	-3,496
2307,671	-15	-3,497
2309,789	-15	-3,498
2311,907	-15	-3,498
2314,031	-15	-3,499
2316,149	-15	-3,499
2318,272	-15	-3,499
2320,39	-15	-3,5
2322,514	-14,5	-3,5
2324,632	-15	-3,45
2326,744	-14,5	-3,371
2328,868	-14,5	-3,283
2330,986	-14	-3,175
2333,104	-13,5	-3,147
2335,228	-14,5	-3,222
2337,345	-14,5	-3,226
2339,469	-14,5	-3,222
2341,587	-13	-3,105
2343,705	-11	-2,972
2345,829	-10,5	-2,905
2347,947	-9	-2,819
2350,071	-8,5	-2,721
2352,189	-8	-2,679
2354,306	-8,5	-2,754
2356,424	-7,5	-2,648
2358,542	-7,5	-2,712
2360,666	-8	-2,71
2362,784	-8	-2,715
2364,902	-7	-2,679
2367,026	-8	-2,718
2369,144	-7	-2,654
2371,267	-6	-2,519
2373,385	-6	-2,525
2375,503	-6	-2,52
2377,627	-5,5	-2,463
2379,745	-4,5	-2,299
2381,863	-3,5	-2,165
2383,987	-3	-2,02
2386,105	-2,5	-1,967
2388,228	-2	-1,835
2390,346	-2	-1,794
2392,464	-1,5	-1,773
2394,588	-1,5	-1,695
2396,706	-1	-1,589
2398,824	-0,5	-1,473
2400,942	0	-1,346
2403,06	0	-1,325
2405,183	0	-1,104
2407,301	0	-1,029
2409,413	0	-0,974
2411,537	0,5	-0,819
2413,655	0,5	-0,75
2415,779	1	-0,608
2417,897	1	-0,678
2420,015	1	-0,604
2422,133	1,5	-0,498
2424,25	1	-0,439
2426,368	1,5	-0,328
2428,492	2	-0,243
2430,61	2,5	-0,145
2432,734	3	-0,085
2434,858	3,5	-0,062
2436,976	4	-0,051
2439,1	4	-0,043
2441,217	4	-0,034
2443,329	4	-0,039
2445,453	4	-0,042
2447,571	3,5	-0,053
2449,695	4	-0,047
2451,813	3,5	-0,053
2453,931	4	-0,039
2456,049	4	-0,04
2458,166	4	-0,039
2460,284	4	-0,031
2462,408	4	-0,031
2464,526	4	-0,027
2466,65	4,5	-0,025
2468,768	4	-0,03
2470,886	4	-0,032
2473,004	4	-0,031
2475,121	4	-0,043
2477,239	4	-0,047
2479,363	4	-0,04
2481,481	4	-0,043
2483,599	4	-0,04
2485,723	4	-0,044
2487,841	4	-0,054
2489,971	3,5	-0,064
2492,089	3,5	-0,065
2494,206	3,5	-0,072
2496,33	3	-0,088
2498,448	3	-0,097
2500,566	3	-0,12
2502,69	3	-0,102
2504,814	3,5	-0,109
2506,938	3,5	-0,087
2509,056	3,5	-0,099
2511,173	3	-0,132
2513,297	3	-0,139
2515,415	3	-0,137
2517,533	3,5	-0,1
2519,657	3	-0,113
2521,775	3,5	-0,106
2523,893	3,5	-0,119
2526,017	3	-0,111
2528,134	3	-0,113
2530,252	3	-0,14
2532,376	3	-0,136
2534,488	3	-0,129
2536,612	3	-0,15
2538,73	3	-0,134
2540,848	3	-0,143
2542,972	3,5	-0,111
2545,089	3,5	-0,117
2547,213	3,5	-0,107
2549,331	3,5	-0,089
2551,455	3,5	-0,076
2553,573	4	-0,072
2555,691	4	-0,067
2557,809	4	-0,065
2559,933	4	-0,048
2562,051	4	-0,048
2564,162	3,5	-0,067
2566,286	3,5	-0,067
2568,404	3,5	-0,098
2570,522	3,5	-0,094
2572,64	3,5	-0,086
2574,758	3,5	-0,078
2576,876	4	-0,069
2579	4	-0,046
2581,117	4,5	-0,034
2583,241	4,5	-0,018
2585,353	4,5	-0,014
2587,465	4,5	-0,014
2589,589	4,5	-0,009
2591,713	4,5	-0,006
2593,831	4,5	-0,005
2595,955	4,5	-0,003
2598,072	4,5	-0,003
2600,202	4,5	-0,001
2602,32	4,5	-0,001
2604,444	4,5	-0,001
2606,568	4,5	0
2608,686	4,5	-0,047
2610,804	4,5	-0,18
2612,928	4	-0,319
2615,051	3,5	-0,409
2617,169	2	-0,525
2619,293	1	-0,682
2621,417	0	-0,823
2623,535	0	-0,908
2625,653	0	-0,945
2627,777	-0,5	-1,065
2629,901	-1	-1,217
2632,019	-1	-1,322
2634,136	-1,5	-1,455
2636,266	-1,5	-1,562
2638,384	-1,5	-1,6
2640,514	-2	-1,787
2642,638	-2	-1,992
2644,762	-2,5	-2,064
2646,88	-2,5	-2,165
2648,998	-2,5	-2,244
2651,115	-3	-2,404
2653,233	-3,5	-2,492
2655,351	-3,5	-2,52
2657,469	-4	-2,582
2659,587	-4,5	-2,694
2661,705	-5	-2,811
2663,829	-5	-2,825
2665,953	-5	-2,886
2668,071	-6	-2,997
2670,194	-7	-3,172
2672,318	-7,5	-3,252
2674,436	-7,5	-3,317
2676,566	-9	-3,366
2678,684	-9,5	-3,388
2680,802	-10,5	-3,412
2682,932	-11	-3,446
2685,05	-12	-3,461
2687,179	-12	-3,477
2689,297	-12	-3,486
2691,415	-12,5	-3,488
2693,533	-12,5	-3,492
2695,657	-12,5	-3,494
2697,775	-12,5	-3,495
2699,905	-12	-3,496
2702,017	-12	-3,496
2704,134	-12	-3,497
2706,258	-12	-3,498
2708,376	-12	-3,499
2710,5	-12	-3,499
2712,624	-12	-3,499
2714,742	-12	-3,499
2716,866	-12	-3,499
2718,99	-12	-3,5
2721,107	-12	-3,395
2723,237	-11	-3,141
2725,355	-10,5	-3,034
2727,473	-9	-2,935
2729,597	-7	-2,882
2731,727	-5,5	-2,674
2733,851	-5	-2,608
2735,969	-4,5	-2,544
2738,086	-4,5	-2,501
2740,204	-3,5	-2,412
2742,328	-3	-2,207
2744,446	-2,5	-2,127
2746,564	-2	-2,101
2748,688	-2	-2,05
2750,806	-2	-2,024
2752,93	-1	-1,894
2755,048	-0,5	-1,688
2757,165	0	-1,575
2759,295	0	-1,36
2761,413	0	-1,218
2763,531	0	-1,176
2765,655	0,5	-1,061
2767,773	0,5	-1,024
2769,891	1	-0,87
2772,015	1	-0,765
2774,132	1	-0,725
2776,25	1	-0,65
2778,374	1,5	-0,52
2780,498	1,5	-0,41
2782,622	1,5	-0,354
2784,746	2	-0,18
2786,87	2,5	-0,141
2788,994	3	-0,117
2791,111	3	-0,082
2793,229	3,5	-0,072
2795,353	4	-0,039
2797,471	3,5	-0,044
2799,589	4	-0,037
2801,707	3,5	-0,029
2803,831	4	-0,02
2805,955	4	-0,018
2808,072	4,5	-0,015
2810,19	4,5	-0,01
2812,314	4,5	-0,009
2814,432	4,5	-0,006
2816,55	4,5	-0,005
2818,674	4,5	-0,004
2820,792	4,5	-0,003
2822,91	4,5	-0,002
2825,034	4,5	-0,001
2827,157	4,5	-0,001
2829,275	4,5	-0,001
2831,399	4,5	0
2833,517	4,5	0
2835,635	4	-0,047
2837,759	4,5	-0,121
2839,883	4,5	-0,282
2842,001	4	-0,371
2844,124	3	-0,492
2846,242	3	-0,53
2848,36	1,5	-0,609
2850,478	1,5	-0,651
2852,602	1	-0,712
2854,726	0,5	-0,832
2856,85	0	-0,872
2858,968	0	-0,994
2861,091	0	-1,014
2863,209	0	-1,05
2865,321	-0,5	-1,142
2867,451	-0,5	-1,234
2869,569	-0,5	-1,414
2871,687	-1	-1,472
2873,805	-1	-1,599
2875,923	-1	-1,669
2878,04	-1,5	-1,78
2880,164	-1,5	-1,9
2882,288	-2	-2,057
2884,406	-1,5	-2,141
2886,524	-2	-2,214
2888,648	-2,5	-2,24
2890,766	-2,5	-2,272
2892,89	-3	-2,503
2895,008	-4	-2,715
2897,125	-4	-2,784
2899,249	-5	-2,915
2901,367	-5,5	-3,026
2903,485	-6	-3,217
2905,615	-7	-3,299
2907,733	-7,5	-3,334
2909,851	-9	-3,394
2911,975	-10	-3,446
2914,092	-10	-3,47
2916,21	-10,5	-3,481
2918,328	-10,5	-3,484
2920,452	-10,5	-3,49
2922,57	-10,5	-3,493
2924,694	-10,5	-3,495
2926,818	-11	-3,497
2928,942	-11	-3,497
2931,059	-11	-3,498
2933,177	-10,5	-3,498
2935,307	-10,5	-3,499
2937,425	-10,5	-3,498
2939,549	-10,5	-3,499
2941,673	-10,5	-3,499
2943,791	-11	-3,499
2945,909	-10,5	-3,499
2948,026	-10,5	-3,499
2950,144	-10,5	-3,499
2952,268	-10,5	-3,499
2954,392	-10,5	-3,479
2956,51	-10,5	-3,491
2958,634	-10,5	-3,332
2960,752	-10,5	-3,269
2962,876	-10	-3,151
2964,994	-10	-3,131
2967,123	-7	-2,98
2969,241	-6	-2,805
2971,359	-5	-2,694
2973,483	-3,5	-2,57
2975,607	-2,5	-2,369
2977,725	-2	-2,316
2979,849	-1,5	-2,143
2981,967	-1	-1,984
2984,09	-0,5	-1,794
2986,22	0	-1,614
2988,338	0	-1,469
2990,462	0	-1,408
2992,58	0	-1,324
2994,698	0,5	-1,175
2996,822	0,5	-1,04
2998,94	0,5	-0,945
3001,057	1	-0,869
3003,175	1	-0,694
3005,293	1	-0,625
3007,411	1,5	-0,514
3009,535	1,5	-0,453
3011,653	1,5	-0,369
3013,771	1,5	-0,428
3015,895	1,5	-0,429
3018,013	1,5	-0,393
3020,136	1,5	-0,28
3022,26	2,5	-0,195
3024,384	2,5	-0,169
3026,496	1,5	-0,198
3028,62	2,5	-0,202
3030,738	2,5	-0,214
3032,856	2	-0,187
3034,974	2	-0,175
3037,097	3	-0,147
3039,215	2,5	-0,155
3041,333	2	-0,235
3043,451	2	-0,189
3045,569	3	-0,14
3047,693	3	-0,133
3049,817	3	-0,134
3051,935	3	-0,11
3054,052	2	-0,183
3056,182	2,5	-0,174
3058,3	2,5	-0,158
3060,424	3	-0,118
3062,548	3,5	-0,08
3064,66	3,5	-0,086
3066,778	3,5	-0,084
3068,896	3,5	-0,079
3071,02	3,5	-0,06
3073,137	3,5	-0,058
3075,267	4	-0,048
3077,379	4	-0,038
3079,503	4	-0,024
3081,627	4	-0,018
3083,745	4	-0,017
3085,863	4,5	-0,012
3087,992	4	-0,007
3090,11	4,5	-0,006
3092,228	4	-0,005
3094,352	4,5	-0,004
3096,476	4,5	-0,003
3098,594	4,5	-0,002
3100,712	4,5	-0,002
3102,836	4,5	-0,001
3104,954	4,5	-0,001
3107,071	4,5	-0,001
3109,195	4,5	0
3111,313	4	-0,012
3113,431	4	-0,078
3115,555	3,5	-0,303
3117,673	3	-0,41
3119,791	2,5	-0,542
3121,915	0,5	-0,662
3124,032	0	-0,826
3126,15	0	-0,958
3128,28	-0,5	-1,119
3130,398	-0,5	-1,316
3132,522	-0,5	-1,516
3134,646	-1	-1,678
3136,764	-1	-1,794
3138,882	-1	-1,81
3141,005	-1,5	-1,946
3143,123	-1,5	-2,052
3145,241	-1,5	-2,196
3147,359	-2	-2,311
3149,477	-2,5	-2,349
3151,595	-3	-2,482
3153,713	-3	-2,524
3155,843	-3	-2,668
3157,961	-3,5	-2,827
3160,078	-4,5	-2,976
3162,202	-5	-3,159
3164,314	-5,5	-3,266
3166,432	-7,5	-3,371
3168,562	-9	-3,447
3169,888	4,5	-0,001