File: Cycling_tests/com_TC/entrada/_3.txt
Time (s)	Load (N)	Displacement (mm)
0	0	-0,036
2,189	0,5	-0,336
4,307	1	-0,238
6,418	1,5	-0,142
8,542	1,5	-0,197
10,654	1,5	-0,232
12,766	1,5	-0,172
14,878	1,5	-0,197
16,99	2	-0,058
19,102	1,5	-0,031
21,214	2	-0,009
23,331	2	-0,002
25,455	2	-0,046
27,567	2	-0,089
29,679	2	-0,083
31,791	2	-0,078
33,903	2	-0,052
36,015	2	-0,132
38,127	2	-0,147
40,238	2	-0,164
42,35	2	-0,201
44,468	2	-0,325
46,586	1,5	-0,368
48,698	1,5	-0,38
50,81	1	-0,483
52,928	0,5	-0,536
55,052	-2	-0,672
57,163	0	-0,7
59,293	-3	-0,772
61,405	-3	-0,821
63,517	-2,5	-0,758
65,629	-1	-0,697
67,759	-2	-0,724
69,871	-2,5	-0,73
72,001	-2,5	-0,796
74,178	-5,5	-1,042
76,302	-6,5	-1,146
78,42	-6,5	-1,168
80,538	-7	-1,214
82,65	-5,5	-1,029
84,768	-5	-1,035
86,88	-4,5	-0,946
88,992	-5	-0,99
91,11	-5	-0,956
93,228	-4,5	-0,978
95,345	-4	-0,942
97,457	-4	-0,91
99,575	-4,5	-0,936
101,693	-4,5	-0,926
103,823	-4,5	-0,992
105,941	-4,5	-0,984
108,059	-5	-1,022
110,171	-5,5	-1,002
112,282	-5,5	-1,062
114,407	-6	-1,161
116,524	-6	-1,172
118,648	-7,5	-1,312
120,772	-8	-1,368
122,884	-7,5	-1,413
124,996	-8	-1,419
127,114	-8,5	-1,456
129,237	-9,5	-1,565
131,355	-9,5	-1,597
133,473	-10,5	-1,698
135,591	-11,5	-1,761
137,715	-12	-1,86
139,851	-14,5	-2,062
141,975	-13,5	-2,027
144,104	-14,5	-2,156
146,228	-15	-2,158
148,352	-15,5	-2,204
150,47	-16	-2,252
152,594	-16	-2,292
154,718	-16,5	-2,322
156,83	-16	-2,265
158,954	-16	-2,261
161,077	-17	-2,361
163,201	-16	-2,402
165,331	-18	-2,428
167,461	-19,5	-2,632
169,579	-19,5	-2,622
171,697	-19,5	-2,611
173,821	-20	-2,704
175,939	-20,5	-2,708
178,051	-21	-2,71
180,18	-21	-2,807
182,304	-22,5	-2,842
184,422	-22,5	-2,922
186,54	-23	-3,016
188,677	-24	-3,091
190,8	-24	-3,098
192,918	-25	-3,189
195,048	-23,5	-3,283
197,177	-28	-3,37
199,307	-29	-3,388
201,437	-29	-3,427
203,549	-27	-3,423
205,673	-30	-3,424
207,791	-30,5	-3,439
209,915	-30,5	-3,442
212,039	-30,5	-3,452
214,156	-29,5	-3,457
216,286	-31,5	-3,464
218,404	-31,5	-3,467
220,534	-31,5	-3,479
222,646	-31	-3,483
224,764	-31,5	-3,486
226,882	-31,5	-3,486
229,006	-31,5	-3,488
231,123	-31,5	-3,49
233,247	-31,5	-3,491
235,377	-31,5	-3,492
237,495	-31,5	-3,491
239,625	-31,5	-3,493
241,743	-31,5	-3,494
243,867	-32	-3,494
245,997	-31,5	-3,495
248,114	-31,5	-3,496
250,232	-32	-3,496
252,356	-31,5	-3,497
254,474	-31,5	-3,497
256,604	-31,5	-3,498
258,734	-31,5	-3,498
260,864	-31,5	-3,499
262,994	-31,5	-3,499
265,112	-31,5	-3,499
267,235	-31,5	-3,499
269,365	-31,5	-3,499
271,483	-31,5	-3,499
273,601	-31,5	-3,5
275,737	-31,5	-3,328
277,861	-31	-3,264
279,991	-30	-3,139
282,115	-30,5	-3,109
284,233	-30,5	-3,024
286,351	-31,5	-3,025
288,486	-25,5	-2,844
290,604	-24,5	-2,78
292,734	-27	-2,806
294,858	-24,5	-2,808
296,976	-26,5	-2,877
299,112	-25,5	-2,803
301,235	-26,5	-2,752
303,365	-24,5	-2,693
305,489	-23,5	-2,556
307,625	-23	-2,536
309,743	-22,5	-2,515
311,867	-24	-2,593
313,985	-23,5	-2,604
316,097	-23,5	-2,634
318,22	-23	-2,55
320,35	-21,5	-2,364
322,474	-21	-2,254
324,598	-19,5	-2,219
326,716	-18	-2,103
328,846	-19,5	-2,192
330,982	-17,5	-2,034
333,106	-15,5	-1,892
335,242	-14	-1,77
337,365	-13	-1,666
339,489	-12	-1,574
341,613	-10,5	-1,474
343,743	-10,5	-1,464
345,867	-10	-1,391
347,997	-8,5	-1,271
350,121	-7,5	-1,158
352,233	-7	-1,16
354,362	-7,5	-1,155
356,486	-8	-1,184
358,604	-7,5	-1,136
360,728	-7,5	-1,124
362,852	-6	-1,062
364,982	-5,5	-0,986
367,106	-6,5	-0,945
369,236	-4	-0,8
371,365	-5	-0,854
373,489	-5	-0,871
375,619	-4,5	-0,782
377,743	-4,5	-0,83
379,861	-5,5	-0,931
381,985	-5,5	-0,945
384,121	-4,5	-0,824
386,233	-4,5	-0,895
388,356	-4,5	-0,812
390,474	-3,5	-0,754
392,61	-1,5	-0,478
394,74	-1	-0,345
396,864	0	-0,236
398,982	0	-0,159
401,1	1	-0,096
403,23	2,5	-0,061
405,354	3	-0,041
407,489	3,5	-0,018
409,601	3,5	-0,012
411,731	3,5	-0,006
413,849	3,5	-0,004
415,979	3,5	-0,002
418,109	3,5	-0,001
420,233	3,5	0
422,351	3,5	-0,041
424,48	3,5	-0,241
426,604	3,5	-0,247
428,728	3	-0,27
430,852	3	-0,403
432,976	1	-0,54
435,1	0	-0,665
437,218	-1	-0,762
439,348	-4	-1,001
441,465	-4	-1,092
443,607	-5,5	-1,296
445,731	-6	-1,406
447,855	-6,5	-1,493
449,973	-6,5	-1,514
452,097	-7	-1,57
454,221	-7,5	-1,674
456,357	-9	-1,818
458,486	-10	-1,914
460,61	-10	-1,917
462,734	-10	-1,941
464,858	-10	-1,95
466,976	-10,5	-1,987
469,1	-10	-1,979
471,221	-10	-1,956
473,342	-10	-1,998
475,465	-12	-2,123
477,589	-12,5	-2,2
479,719	-14	-2,367
481,831	-14,5	-2,399
483,949	-15	-2,463
486,079	-15,5	-2,555
488,203	-17	-2,696
490,327	-18,5	-2,742
492,457	-20	-2,95
494,58	-20,5	-3,027
496,698	-21,5	-3,101
498,822	-22,5	-3,19
500,946	-24,5	-3,316
503,076	-26,5	-3,402
505,2	-27,5	-3,438
507,318	-28	-3,453
509,442	-28,5	-3,464
511,571	-29	-3,478
513,695	-29,5	-3,482
515,825	-29,5	-3,488
517,949	-29,5	-3,493
520,073	-29,5	-3,495
522,197	-29,5	-3,496
524,327	-29,5	-3,497
526,457	-29,5	-3,498
528,581	-29,5	-3,499
530,704	-29,5	-3,499
532,84	-29,5	-3,294
534,964	-27	-3,068
537,088	-25,5	-2,937
539,212	-24,5	-2,829
541,33	-22,5	-2,69
543,46	-22	-2,529
545,584	-20,5	-2,457
547,707	-19,5	-2,348
549,831	-17	-2,164
551,955	-16,5	-2,108
554,073	-15	-1,965
556,203	-13	-1,842
558,327	-12	-1,753
560,451	-11	-1,617
562,569	-9,5	-1,495
564,698	-8,5	-1,346
566,822	-6	-1,215
568,946	-4,5	-0,978
571,064	-3,5	-0,808
573,188	-2,5	-0,64
575,318	-1,5	-0,459
577,436	-0,5	-0,326
579,554	0	-0,24
581,671	0,5	-0,146
583,801	2	-0,077
585,925	2,5	-0,051
588,049	3	-0,034
590,173	3	-0,019
592,297	3,5	-0,013
594,421	3,5	-0,007
596,545	3,5	-0,004
598,668	3,5	-0,002
600,792	3,5	-0,001
602,922	3,5	-0,001
605,04	3,5	0
607,17	3,5	-0,096
609,294	3,5	-0,234
611,418	1,5	-0,448
613,542	1	-0,521
615,665	0	-0,646
617,789	-1	-0,766
619,919	-3,5	-0,969
622,037	-4	-1,043
624,161	-4	-1,11
626,291	-4,5	-1,25
628,421	-6	-1,416
630,545	-6,5	-1,578
632,675	-7,5	-1,781
634,798	-10	-1,95
636,928	-11	-2,152
639,052	-12,5	-2,294
641,17	-13,5	-2,367
643,294	-13,5	-2,397
645,406	-14	-2,41
647,53	-15,5	-2,615
649,654	-16,5	-2,718
651,771	-18	-2,841
653,895	-21	-3,013
656,025	-22,5	-3,196
658,149	-24	-3,321
660,273	-25	-3,358
662,397	-26	-3,391
664,521	-26,5	-3,417
666,645	-27,5	-3,455
668,774	-28,5	-3,476
670,898	-28,5	-3,486
673,016	-28,5	-3,485
675,212	-29	-3,496
677,336	-29	-3,496
679,466	-29	-3,498
681,59	-29	-3,498
683,72	-29	-3,498
685,837	-29	-3,499
687,955	-29	-3,499
690,085	-29	-3,499
692,203	-28,5	-3,5
694,327	-29	-3,486
696,451	-28,5	-3,383
698,563	-28,5	-3,371
700,687	-28,5	-3,389
702,81	-28,5	-3,265
704,94	-28,5	-3,21
707,07	-25,5	-3,058
709,194	-25	-3,018
711,318	-26,5	-2,976
713,442	-28	-2,954
715,566	-23,5	-2,8
717,696	-22	-2,72
719,814	-22	-2,645
721,937	-22	-2,488
724,061	-19	-2,369
726,185	-17,5	-2,244
728,309	-18	-2,176
730,427	-16,5	-2,177
732,551	-14,5	-2,061
734,669	-13,5	-2,005
736,793	-13	-1,943
738,916	-12	-1,839
741,028	-10,5	-1,778
743,158	-10,5	-1,699
745,276	-10,5	-1,71
747,4	-10	-1,647
749,518	-9,5	-1,595
751,642	-8,5	-1,47
753,772	-6,5	-1,319
755,902	-5,5	-1,095
758,019	-5	-1,032
760,143	-4	-0,88
762,267	-3	-0,807
764,391	-2,5	-0,714
766,509	-1,5	-0,645
768,621	-2	-0,628
770,745	-1,5	-0,501
772,869	0	-0,313
774,998	0,5	-0,218
777,122	1	-0,166
779,252	1,5	-0,11
781,376	2,5	-0,076
783,5	2,5	-0,064
785,624	3	-0,049
787,754	3,5	-0,034
789,872	3,5	-0,032
792,007	3,5	-0,022
794,131	3,5	-0,016
796,255	3,5	-0,01
798,373	3,5	-0,01
800,497	3,5	-0,006
802,621	3,5	-0,005
804,745	3,5	-0,004
806,857	3,5	-0,004
808,98	3,5	-0,002
811,104	3,5	-0,002
813,228	3,5	-0,001
815,346	3,5	-0,001
817,47	3,5	0
819,594	3,5	-0,041
821,706	3,5	-0,122
823,836	3,5	-0,299
825,96	3	-0,41
828,095	0,5	-0,632
830,207	0	-0,687
832,331	-1	-0,797
834,449	-2	-0,897
836,579	-3	-1,064
838,697	-3,5	-1,175
840,821	-4,5	-1,348
842,944	-5,5	-1,49
845,062	-5,5	-1,547
847,18	-6	-1,628
849,304	-7,5	-1,801
851,428	-8,5	-1,91
853,546	-9	-1,968
855,67	-10	-2,126
857,788	-12	-2,3
859,906	-12	-2,337
862,029	-13,5	-2,451
864,159	-15	-2,654
866,277	-17	-2,841
868,401	-19	-2,908
870,519	-17,5	-2,97
872,643	-20	-3,033
874,767	-21,5	-3,178
876,897	-22	-3,256
879,02	-23,5	-3,322
881,138	-23,5	-3,37
883,268	-26	-3,429
885,392	-26,5	-3,455
887,51	-27	-3,461
889,634	-27	-3,471
891,758	-27,5	-3,484
893,87	-28	-3,489
895,994	-28	-3,494
898,117	-28,5	-3,495
900,247	-28	-3,497
902,365	-28	-3,497
904,495	-28,5	-3,498
906,613	-28,5	-3,499
908,731	-28,5	-3,499
910,855	-28,5	-3,499
912,979	-28,5	-3,498
915,096	-28,5	-3,394
917,214	-28	-3,332
919,344	-27,5	-3,156
921,462	-26	-3,065
923,586	-24	-2,913
925,716	-23,5	-2,774
927,84	-22	-2,61
929,964	-19,5	-2,448
932,087	-17,5	-2,296
934,205	-15,5	-2,148
936,323	-14,5	-2,068
938,441	-13,5	-1,973
940,571	-11	-1,749
942,689	-11	-1,739
944,813	-10	-1,624
946,931	-8,5	-1,485
949,06	-6	-1,294
951,178	-5,5	-1,181
953,302	-5	-1,079
955,432	-4	-0,917
957,55	-3	-0,79
959,68	-1,5	-0,608
961,804	-1	-0,456
963,922	-0,5	-0,398
966,039	-0,5	-0,404
968,169	0	-0,25
970,293	0	-0,19
972,417	1,5	-0,122
974,535	2,5	-0,076
976,653	2,5	-0,062
978,777	3	-0,06
980,901	3	-0,058
983,024	3	-0,042
985,148	3,5	-0,025
987,272	3,5	-0,024
989,39	3,5	-0,019
991,514	3,5	-0,015
993,632	3,5	-0,015
995,756	3,5	-0,014
997,88	3,5	-0,01
999,998	3,5	-0,007
1002,115	3,5	-0,007
1004,239	3,5	-0,007
1006,357	3,5	-0,005
1008,487	3,5	-0,004
1010,605	3,5	-0,004
1012,735	3,5	-0,004
1014,847	3,5	-0,003
1016,977	3,5	-0,002
1019,1	3,5	-0,002
1021,224	3,5	-0,001
1023,348	3,5	-0,001
1025,472	3,5	-0,001
1027,59	3,5	0
1029,714	3,5	-0,036
1031,832	3,5	-0,09
1033,95	3,5	-0,116
1036,073	3,5	-0,138
1038,191	3,5	-0,057
1040,315	3,5	-0,13
1042,439	3,5	-0,11
1044,557	3,5	-0,143
1046,681	3,5	-0,102
1048,799	3,5	-0,109
1050,917	3,5	-0,147
1053,034	3,5	-0,114
1055,158	3,5	-0,101
1057,288	3,5	-0,121
1059,406	3,5	-0,125
1061,524	3,5	-0,07
1063,648	4	-0,084
1065,766	4	-0,192
1067,89	3	-0,294
1070,014	3	-0,356
1072,131	3	-0,356
1074,255	2,5	-0,407
1076,373	2,5	-0,407
1078,497	2,5	-0,426
1080,621	3	-0,391
1082,745	3	-0,432
1084,869	1,5	-0,472
1086,993	0,5	-0,54
1089,11	0	-0,613
1091,24	0	-0,679
1093,358	0	-0,699
1095,482	-1,5	-0,851
1097,6	-2,5	-0,936
1099,73	-3,5	-1,081
1101,866	-4,5	-1,245
1103,99	-5	-1,418
1106,107	-5,5	-1,519
1108,231	-6	-1,639
1110,355	-7	-1,748
1112,479	-8	-1,921
1114,603	-9	-2,068
1116,727	-10	-2,124
1118,845	-12	-2,3
1120,963	-11,5	-2,357
1123,092	-13,5	-2,492
1125,216	-14	-2,563
1127,334	-15	-2,611
1129,458	-15,5	-2,742
1131,585	-16,5	-2,862
1133,7	-18	-2,941
1135,824	-20	-3,046
1137,942	-20	-3,13
1140,072	-22,5	-3,293
1142,189	-24	-3,37
1144,313	-25	-3,422
1146,431	-26	-3,447
1148,555	-26	-3,459
1150,679	-26,5	-3,468
1152,797	-27	-3,472
1154,921	-27	-3,48
1157,039	-27	-3,482
1159,174	-27,5	-3,49
1161,292	-27	-3,491
1163,422	-27	-3,492
1165,54	-27	-3,493
1167,664	-27	-3,494
1169,782	-27	-3,495
1171,912	-27,5	-3,496
1174,03	-27	-3,496
1176,153	-27	-3,497
1178,271	-27	-3,497
1180,395	-27	-3,498
1182,513	-27,5	-3,498
1184,643	-27,5	-3,499
1186,755	-27,5	-3,499
1188,879	-27	-3,499
1190,997	-27	-3,499
1193,12	-27	-3,499
1195,25	-27	-3,5
1197,368	-27	-3,462
1199,492	-27	-3,376
1201,61	-27	-3,34
1203,734	-27	-3,253
1205,852	-27	-3,216
1207,988	-24,5	-3,044
1210,111	-24,5	-2,919
1212,229	-26	-2,945
1214,353	-23	-2,921
1216,477	-22,5	-2,748
1218,601	-22,5	-2,67
1220,719	-21	-2,575
1222,843	-18	-2,465
1224,961	-16,5	-2,381
1227,085	-17	-2,405
1229,202	-19	-2,352
1231,326	-19,5	-2,37
1233,444	-16	-2,345
1235,568	-15	-2,261
1237,686	-16	-2,235
1239,81	-15	-2,19
1241,928	-13,5	-2,1
1244,046	-12	-1,989
1246,175	-11	-1,858
1248,299	-9	-1,751
1250,411	-9	-1,697
1252,529	-8,5	-1,627
1254,653	-7	-1,444
1256,771	-6	-1,374
1258,895	-5,5	-1,211
1261,013	-4,5	-1,105
1263,13	-4	-1,059
1265,248	-3	-0,941
1267,372	-2,5	-0,8
1269,49	-1,5	-0,715
1271,614	-1,5	-0,589
1273,732	-0,5	-0,484
1275,856	0	-0,418
1277,974	0	-0,305
1280,092	0	-0,255
1282,209	0,5	-0,198
1284,327	1	-0,165
1286,445	1,5	-0,149
1288,581	1,5	-0,121
1290,699	2	-0,101
1292,829	2	-0,084
1294,947	2	-0,074
1297,071	2,5	-0,049
1299,194	3,5	-0,038
1301,318	3,5	-0,031
1303,442	3,5	-0,024
1305,566	3,5	-0,018
1307,696	3,5	-0,011
1309,82	4	-0,009
1311,944	3,5	-0,008
1314,062	4	-0,007
1316,185	3,5	-0,005
1318,303	4	-0,005
1320,433	4	-0,003
1322,551	4	-0,003
1324,681	3,5	-0,002
1326,799	3,5	-0,002
1328,923	4	-0,002
1331,041	4	-0,002
1333,164	4	-0,001
1335,288	4	-0,001
1337,406	3,5	0
1339,53	4	0
1341,654	3,5	-0,064
1343,778	3,5	-0,125
1345,902	3,5	-0,238
1348,02	3,5	-0,319
1350,138	3,5	-0,313
1352,261	2,5	-0,467
1354,385	1,5	-0,554
1356,509	0	-0,605
1358,633	0	-0,672
1360,757	0	-0,696
1362,881	-0,5	-0,79
1364,999	0	-0,811
1367,123	-2	-0,931
1369,246	-2,5	-1,014
1371,364	-3	-1,068
1373,488	-3,5	-1,128
1375,618	-3,5	-1,251
1377,742	-4	-1,307
1379,86	-4,5	-1,386
1381,984	-4	-1,38
1384,102	-4,5	-1,39
1386,225	-4,5	-1,51
1388,349	-5	-1,538
1390,479	-5	-1,571
1392,597	-5	-1,54
1394,715	-5	-1,545
1396,839	-5,5	-1,666
1398,963	-5,5	-1,668
1401,087	-6	-1,698
1403,21	-6	-1,701
1405,34	-5,5	-1,707
1407,458	-6	-1,796
1409,576	-7	-1,881
1411,7	-7	-1,874
1413,824	-7,5	-1,983
1415,942	-8	-2,026
1418,06	-8	-2,02
1420,19	-10	-2,234
1422,307	-9,5	-2,153
1424,431	-8,5	-2,029
1426,549	-9	-2,086
1428,673	-8	-2,058
1430,797	-9	-2,151
1432,915	-9,5	-2,2
1435,039	-9,5	-2,228
1437,157	-9,5	-2,223
1439,287	-10,5	-2,277
1441,404	-10	-2,282
1443,528	-11	-2,35
1445,646	-11,5	-2,36
1447,77	-10,5	-2,361
1449,894	-10,5	-2,345
1452,006	-9	-2,154
1454,13	-10	-2,248
1456,247	-10	-2,257
1458,371	-10,5	-2,303
1460,495	-11	-2,407
1462,613	-12	-2,45
1464,731	-13	-2,53
1466,849	-13,5	-2,582
1468,973	-14,5	-2,712
1471,097	-15,5	-2,848
1473,22	-16,5	-2,963
1475,344	-19	-3,083
1477,468	-20	-3,202
1479,592	-21,5	-3,317
1481,716	-22	-3,353
1483,84	-22,5	-3,381
1485,958	-23,5	-3,407
1488,082	-25	-3,443
1490,2	-25	-3,458
1492,317	-25,5	-3,463
1494,435	-25,5	-3,47
1496,571	-26	-3,478
1498,689	-26	-3,484
1500,807	-26	-3,484
1502,925	-26,5	-3,49
1505,043	-26,5	-3,492
1507,167	-26,5	-3,496
1509,284	-26,5	-3,496
1511,414	-26,5	-3,498
1513,532	-26,5	-3,498
1515,65	-26,5	-3,498
1517,774	-26,5	-3,498
1519,892	-26,5	-3,498
1522,01	-26,5	-3,499
1524,134	-26,5	-3,5
1526,251	-26,5	-3,5
1528,369	-26,5	-3,5
1530,493	-26,5	-3,45
1532,611	-26,5	-3,394
1534,729	-26,5	-3,348
1536,853	-26	-3,312
1538,965	-26	-3,311
1541,089	-26	-3,274
1543,207	-26	-3,188
1545,318	-25,5	-3,213
1547,448	-23,5	-3,003
1549,566	-22	-2,819
1551,69	-21,5	-2,798
1553,808	-20,5	-2,714
1555,938	-18	-2,563
1558,062	-18	-2,539
1560,18	-17	-2,465
1562,297	-17	-2,476
1564,415	-18,5	-2,508
1566,539	-18	-2,537
1568,663	-19	-2,475
1570,781	-15,5	-2,385
1572,905	-15,5	-2,346
1575,023	-15,5	-2,348
1577,147	-15	-2,29
1579,27	-14	-2,17
1581,388	-13,5	-2,138
1583,512	-13	-2,061
1585,63	-12,5	-2,045
1587,754	-11	-1,914
1589,872	-10	-1,84
1591,996	-9	-1,79
1594,114	-9	-1,732
1596,237	-8	-1,696
1598,361	-7	-1,571
1600,479	-7	-1,544
1602,609	-6	-1,4
1604,727	-6	-1,448
1606,851	-6,5	-1,45
1608,969	-6	-1,44
1611,087	-5,5	-1,345
1613,21	-5,5	-1,315
1615,328	-5	-1,295
1617,452	-5	-1,275
1619,57	-5	-1,265
1621,688	-5	-1,249
1623,812	-4,5	-1,114
1625,93	-4	-1,12
1628,048	-4	-1,067
1630,166	-3,5	-1,04
1632,289	-3	-0,978
1634,407	-3,5	-1,016
1636,531	-3	-0,971
1638,655	-2,5	-0,93
1640,779	-2,5	-0,906
1642,903	-2,5	-0,871
1645,021	-2,5	-0,855
1647,139	-2,5	-0,899
1649,262	-2,5	-0,879
1651,38	-2,5	-0,89
1653,498	-2	-0,844
1655,622	-2,5	-0,845
1657,74	-2	-0,793
1659,864	-1,5	-0,715
1661,982	-1	-0,62
1664,1	-1	-0,62
1666,224	-0,5	-0,474
1668,347	0	-0,418
1670,471	0	-0,319
1672,589	1	-0,248
1674,713	1	-0,225
1676,831	0,5	-0,245
1678,949	0,5	-0,237
1681,079	1	-0,183
1683,196	0,5	-0,17
1685,314	1	-0,178
1687,444	1,5	-0,126
1689,562	1	-0,181
1691,686	0,5	-0,218
1693,81	1,5	-0,184
1695,928	1,5	-0,182
1698,052	1,5	-0,182
1700,175	1	-0,232
1702,293	0,5	-0,29
1704,417	0	-0,307
1706,535	0	-0,398
1708,665	0	-0,375
1710,783	0	-0,45
1712,907	0	-0,463
1715,031	0	-0,46
1717,149	0	-0,466
1719,272	0	-0,537
1721,396	-0,5	-0,556
1723,52	-0,5	-0,564
1725,644	-1	-0,623
1727,762	-1,5	-0,741
1729,88	-2	-0,843
1732,004	-2	-0,855
1734,122	-2	-0,845
1736,245	-1,5	-0,869
1738,369	-2	-0,898
1740,493	-2	-0,83
1742,611	-2	-0,847
1744,729	-1,5	-0,88
1746,847	-1,5	-0,885
1748,971	-2	-0,887
1751,089	-2	-0,91
1753,206	-2	-0,91
1755,33	-1,5	-0,854
1757,448	-2	-0,896
1759,572	-1,5	-0,835
1761,69	-1,5	-0,846
1763,808	-1,5	-0,825
1765,932	-1	-0,736
1768,05	-1	-0,748
1770,174	-1	-0,67
1772,297	-1	-0,699
1774,415	-1	-0,715
1776,545	-1	-0,773
1778,663	-1	-0,768
1780,787	-1,5	-0,776
1782,911	-2	-0,853
1785,029	-2,5	-0,939
1787,153	-2,5	-0,934
1789,27	-2,5	-0,961
1791,388	-3	-1,032
1793,512	-3	-0,98
1795,63	-3	-1,05
1797,753	-3,5	-1,111
1799,872	-4	-1,181
1801,99	-4,5	-1,271
1804,114	-4,5	-1,29
1806,231	-5,5	-1,417
1808,349	-5,5	-1,48
1810,473	-6	-1,479
1812,591	-6	-1,553
1814,715	-7	-1,619
1816,833	-7	-1,646
1818,957	-7	-1,627
1821,081	-7	-1,705
1823,204	-6,5	-1,659
1825,322	-6,5	-1,649
1827,446	-6,5	-1,645
1829,564	-6,5	-1,661
1831,688	-6,5	-1,637
1833,806	-6,5	-1,665
1835,93	-6,5	-1,624
1838,054	-6	-1,59
1840,178	-6	-1,506
1842,295	-6	-1,56
1844,413	-6	-1,534
1846,531	-6,5	-1,614
1848,649	-6	-1,588
1850,767	-6	-1,599
1852,885	-5,5	-1,567
1855,015	-5,5	-1,501
1857,133	-5	-1,434
1859,256	-5,5	-1,462
1861,374	-5,5	-1,468
1863,498	-5	-1,501
1865,616	-5	-1,375
1867,746	-4,5	-1,385
1869,864	-4	-1,321
1871,988	-3,5	-1,226
1874,112	-3	-1,139
1876,229	-4	-1,198
1878,353	-3	-1,147
1880,477	-2,5	-1,124
1882,589	-3	-1,074
1884,719	-2	-0,999
1886,833	-2,5	-1,002
1888,955	-1,5	-0,861
1891,079	-1	-0,81
1893,196	-0,5	-0,74
1895,32	0	-0,627
1897,438	0	-0,584
1899,562	0	-0,459
1901,686	0,5	-0,38
1903,81	0,5	-0,362
1905,928	0,5	-0,353
1908,052	0,5	-0,397
1910,17	0	-0,445
1912,287	0	-0,44
1914,411	0,5	-0,373
1916,541	1	-0,361
1918,659	1,5	-0,304
1920,783	1	-0,354
1922,901	0,5	-0,396
1925,025	0,5	-0,414
1927,143	0,5	-0,394
1929,26	0,5	-0,463
1931,378	0,5	-0,458
1933,496	0,5	-0,484
1935,614	0	-0,591
1937,738	0	-0,61
1939,862	0,5	-0,485
1941,98	0	-0,522
1944,104	0	-0,556
1946,221	0	-0,551
1948,339	0,5	-0,547
1950,463	0,5	-0,484
1952,581	0,5	-0,384
1954,705	0,5	-0,376
1956,823	1	-0,34
1958,941	1,5	-0,282
1961,065	1	-0,31
1963,188	1	-0,282
1965,306	0,5	-0,424
1967,43	0,5	-0,464
1969,548	0	-0,54
1971,672	0,5	-0,52
1973,796	1	-0,475
1975,914	1	-0,395
1978,032	1,5	-0,342
1980,156	1,5	-0,226
1982,273	2	-0,189
1984,397	2,5	-0,139
1986,515	3	-0,108
1988,633	3	-0,096
1990,757	3,5	-0,066
1992,875	3,5	-0,06
1994,999	3,5	-0,048
1997,117	3,5	-0,034
1999,234	3,5	-0,041
2001,364	3,5	-0,031
2003,482	4	-0,025
2005,6	4	-0,024
2007,73	4	-0,018
2009,848	4	-0,018
2011,966	4	-0,016
2014,09	4	-0,018
2016,207	4	-0,018
2018,325	4	-0,02
2020,455	4	-0,013
2022,573	4	-0,012
2024,685	4	-0,011
2026,809	4	-0,009
2028,927	4	-0,007
2031,051	4	-0,006
2033,168	4	-0,006
2035,286	4	-0,006
2037,41	4	-0,005
2039,522	4	-0,004
2041,64	4	-0,004
2043,764	4	-0,003
2045,882	4	-0,004
2047,994	4	-0,006
2050,118	4,5	-0,007
2052,241	4	-0,004
2054,365	4	-0,004
2056,483	4	-0,004
2058,601	4	-0,004
2060,731	4	-0,004
2062,849	4	-0,005
2064,973	4	-0,004
2067,091	4	-0,004
2069,208	4	-0,003
2071,338	4	-0,002
2073,456	4	-0,002
2075,574	4	-0,002
2077,698	4	-0,003
2079,822	4	-0,002
2081,94	4	-0,002
2084,07	4	-0,002
2086,187	4	-0,002
2088,305	4,5	-0,002
2090,429	4	-0,002
2092,553	4	-0,002
2094,677	4	-0,001
2096,795	4	-0,001
2098,913	4	-0,001
2101,037	4	-0,001
2103,154	4	0
2105,272	4	-0,001
2107,396	4	0
2109,514	4	-0,015
2111,638	4	-0,202
2113,756	4	-0,185
2115,874	4	-0,15
2117,998	4	-0,26
2120,115	3	-0,405
2122,233	2,5	-0,474
2124,357	1	-0,658
2126,475	0	-0,754
2128,593	0	-0,78
2130,717	-0,5	-0,878
2132,841	-0,5	-0,865
2134,959	-1	-1,019
2137,077	-1	-0,986
2139,194	-1	-1,044
2141,312	-1	-1,034
2143,436	-1,5	-1,106
2145,554	-1	-1,015
2147,678	-0,5	-1,056
2149,79	-1,5	-1,131
2151,914	-1,5	-1,13
2154,038	-1,5	-1,196
2156,161	-2	-1,194
2158,285	-2	-1,207
2160,409	-2	-1,423
2162,527	-2,5	-1,412
2164,645	-3	-1,534
2166,769	-3	-1,638
2168,893	-3	-1,79
2171,017	-3,5	-1,942
2173,14	-4,5	-2,009
2175,264	-4,5	-2,066
2177,388	-4,5	-2,073
2179,506	-4,5	-2,084
2181,624	-4,5	-2,104
2183,754	-4,5	-2,18
2185,872	-4,5	-2,238
2187,99	-4,5	-2,216
2190,114	-4,5	-2,22
2192,231	-5	-2,258
2194,349	-5	-2,256
2196,473	-4,5	-2,254
2198,591	-5	-2,332
2200,715	-5	-2,337
2202,845	-5,5	-2,348
2204,963	-5	-2,32
2207,099	-6	-2,458
2209,216	-5,5	-2,357
2211,334	-5	-2,41
2213,458	-6	-2,508
2215,582	-6	-2,538
2217,7	-6	-2,542
2219,818	-6,5	-2,574
2221,936	-7	-2,643
2224,06	-7,5	-2,741
2226,178	-8	-2,805
2228,301	-8,5	-2,877
2230,425	-8,5	-2,918
2232,543	-8,5	-2,897
2234,661	-8,5	-2,882
2236,785	-8,5	-2,92
2238,897	-9	-2,906
2241,021	-9	-2,934
2243,138	-9,5	-2,987
2245,256	-10	-3,046
2247,38	-10	-3,08
2249,498	-10	-3,028
2251,622	-10	-3,058
2253,746	-10	-3,082
2255,864	-10	-3,102
2257,982	-10	-3,081
2260,1	-10,5	-3,134
2262,217	-10,5	-3,116
2264,341	-10,5	-3,185
2266,465	-10,5	-3,208
2268,589	-10,5	-3,234
2270,707	-11,5	-3,271
2272,831	-10,5	-3,258
2274,961	-10,5	-3,334
2277,073	-10,5	-3,235
2279,19	-9,5	-3,211
2281,308	-9,5	-3,194
2283,438	-10,5	-3,234
2285,556	-11	-3,304
2287,674	-10,5	-3,239
2289,798	-11	-3,299
2291,91	-10	-3,255
2294,028	-10,5	-3,279
2296,151	-11,5	-3,334
2298,269	-12	-3,397
2300,393	-14	-3,426
2302,511	-14	-3,442
2304,629	-14	-3,428
2306,753	-13,5	-3,421
2308,871	-13,5	-3,41
2310,989	-13,5	-3,414
2313,113	-14	-3,434
2315,23	-14	-3,448
2317,348	-14,5	-3,449
2319,472	-14,5	-3,46
2321,59	-14	-3,434
2323,72	-14,5	-3,456
2325,832	-14,5	-3,462
2327,95	-14,5	-3,463
2330,08	-14,5	-3,47
2332,197	-15	-3,479
2334,315	-15	-3,483
2336,439	-15	-3,486
2338,557	-15	-3,486
2340,681	-15	-3,488
2342,805	-15	-3,489
2344,923	-15	-3,493
2347,035	-15	-3,493
2349,158	-15	-3,494
2351,282	-15	-3,496
2353,4	-15	-3,497
2355,524	-15	-3,498
2357,642	-15	-3,498
2359,766	-15	-3,498
2361,884	-15	-3,498
2364,008	-15	-3,499
2366,131	-15	-3,499
2368,255	-15	-3,499
2370,373	-15	-3,5
2372,497	-15	-3,5
2374,615	-15	-3,479
2376,727	-15	-3,498
2378,851	-15	-3,427
2380,969	-15	-3,401
2383,081	-14,5	-3,475
2385,204	-14,5	-3,338
2387,328	-14,5	-3,202
2389,446	-13	-3,068
2391,57	-12,5	-3,038
2393,688	-10,5	-2,91
2395,818	-10,5	-2,894
2397,936	-9,5	-2,797
2400,06	-8,5	-2,693
2402,177	-8	-2,646
2404,295	-7,5	-2,604
2406,413	-7	-2,578
2408,537	-6	-2,478
2410,655	-7,5	-2,511
2412,773	-6	-2,511
2414,897	-6	-2,471
2417,015	-6	-2,445
2419,144	-4,5	-2,339
2421,274	-4,5	-2,224
2423,392	-3,5	-2,075
2425,516	-3	-1,961
2427,634	-2,5	-1,829
2429,752	-1,5	-1,654
2431,882	-1	-1,546
2434	-0,5	-1,461
2436,117	-0,5	-1,367
2438,247	0	-1,211
2440,365	0	-1,121
2442,477	0	-1,066
2444,601	0	-0,974
2446,725	0	-0,864
2448,843	0	-0,811
2450,967	0,5	-0,744
2453,085	0,5	-0,675
2455,208	1	-0,63
2457,332	1	-0,504
2459,45	1,5	-0,424
2461,574	1,5	-0,322
2463,692	1,5	-0,31
2465,81	1,5	-0,249
2467,94	2	-0,19
2470,058	2	-0,164
2472,175	2	-0,134
2474,377	3,5	-0,027
2476,495	4	-0,022
2478,607	4	-0,023
2480,737	4	-0,013
2482,855	4	-0,011
2484,979	4	-0,009
2487,103	4	-0,008
2489,22	4	-0,005
2491,338	4	-0,004
2493,462	4	-0,002
2495,58	4,5	-0,002
2497,698	4	-0,002
2499,828	4	-0,001
2501,946	4,5	-0,001
2504,076	4,5	-0,001
2506,193	4	0
2508,317	4	-0,009
2510,441	4	-0,17
2512,559	4	-0,226
2514,677	3	-0,377
2516,801	1,5	-0,576
2518,919	1,5	-0,576
2521,037	0,5	-0,65
2523,166	0	-0,816
2525,284	0	-0,882
2527,408	0	-0,91
2529,532	-0,5	-1,046
2531,65	-1	-1,12
2533,768	-1	-1,189
2535,892	-1	-1,256
2538,01	-1,5	-1,389
2540,14	-2	-1,501
2542,257	-2	-1,596
2544,375	-2	-1,648
2546,493	-1,5	-1,673
2548,623	-2,5	-1,745
2550,741	-2,5	-1,857
2552,871	-2,5	-1,878
2554,989	-2,5	-1,958
2557,107	-2,5	-1,957
2559,236	-3	-2,123
2561,354	-3	-2,234
2563,478	-3,5	-2,238
2565,602	-3,5	-2,374
2567,72	-4	-2,417
2569,838	-4	-2,438
2571,962	-4,5	-2,52
2574,08	-4,5	-2,616
2576,21	-4,5	-2,701
2578,327	-5	-2,771
2580,445	-5,5	-2,887
2582,569	-5,5	-2,9
2584,687	-5	-2,821
2586,811	-5	-2,776
2588,935	-5	-2,795
2591,059	-5,5	-2,915
2593,176	-6	-3,005
2595,3	-6,5	-3,125
2597,418	-6,5	-3,077
2599,536	-6,5	-3,065
2601,66	-7	-3,116
2603,784	-7,5	-3,224
2605,902	-7,5	-3,209
2608,026	-7,5	-3,269
2610,15	-8	-3,313
2612,279	-10	-3,384
2614,397	-9,5	-3,38
2616,521	-9,5	-3,381
2618,645	-9	-3,359
2620,769	-10	-3,38
2622,893	-10	-3,381
2625,017	-10,5	-3,415
2627,141	-10,5	-3,426
2629,258	-10,5	-3,433
2631,382	-11	-3,449
2633,5	-11	-3,454
2635,618	-11,5	-3,46
2637,742	-11,5	-3,468
2639,86	-12	-3,47
2641,978	-12	-3,47
2644,108	-12	-3,481
2646,225	-12	-3,484
2648,355	-12	-3,49
2650,473	-12	-3,491
2652,591	-12	-3,489
2654,715	-12	-3,491
2656,833	-12	-3,491
2658,951	-12	-3,492
2661,075	-12	-3,494
2663,198	-12	-3,496
2665,316	-12	-3,497
2667,44	-12	-3,497
2669,558	-12	-3,498
2671,683	-12	-3,498
2673,806	-12	-3,499
2675,918	-12	-3,499
2678,036	-12	-3,5
2680,159	-12	-3,5
2682,277	-12	-3,471
2684,395	-12	-3,377
2686,513	-12	-3,259
2688,631	-11,5	-3,206
2690,743	-11,5	-3,145
2692,867	-8	-3,009
2694,991	-7	-2,904
2697,121	-6	-2,79
2699,244	-5	-2,709
2701,362	-5,5	-2,654
2703,486	-5,5	-2,738
2705,61	-5,5	-2,735
2707,734	-5,5	-2,721
2709,852	-6	-2,774
2711,976	-5,5	-2,739
2714,094	-6	-2,766
2716,212	-6	-2,794
2718,335	-6,5	-2,811
2720,453	-7	-2,87
2722,571	-7	-2,884
2724,695	-7,5	-2,911
2726,813	-7,5	-2,948
2728,931	-9,5	-3,082
2731,061	-11,5	-3,199
2733,178	-12	-3,275
2735,296	-12	-3,388
2737,42	-11,5	-3,44
2739,544	-12	-3,5
2741,662	-12	-3,5
2743,792	-12	-3,5
2745,91	-12	-3,5
2748,028	-12	-3,5
2750,152	-12	-3,5
2752,269	-12	-3,377
2754,387	-12	-3,42
2756,511	-12	-3,451
2758,629	-12	-3,357
2760,747	-12	-3,433
2762,871	-12	-3,297
2764,989	-12	-3,268
2767,107	-11,5	-3,279
2769,23	-12	-3,211
2771,348	-11,5	-3,167
2773,478	-10,5	-3,005
2775,602	-9	-3,008
2777,72	-9	-3,025
2779,838	-10	-2,982
2781,962	-9	-2,985
2784,08	-8	-2,954
2786,191	-9,5	-2,984
2788,315	-9	-2,949
2790,433	-8	-2,901
2792,557	-7	-2,813
2794,681	-6	-2,779
2796,805	-5	-2,658
2798,923	-5	-2,658
2801,047	-5	-2,607
2803,165	-4,5	-2,586
2805,282	-5	-2,694
2807,412	-5	-2,618
2809,53	-5	-2,634
2811,654	-4,5	-2,53
2813,778	-3	-2,426
2815,902	-3	-2,305
2818,02	-2,5	-2,259
2820,155	-2,5	-2,2
2822,273	-2,5	-2,201
2824,391	-2,5	-2,206
2826,515	-3	-2,245
2828,639	-2	-2,174
2830,757	-2	-2,18
2832,881	-1,5	-2,097
2834,999	-1	-2,034
2837,123	-1	-1,972
2839,252	-1,5	-1,997
2841,37	-1,5	-1,981
2843,494	-1,5	-1,926
2845,618	-0,5	-1,854
2847,736	-0,5	-1,8
2849,854	-0,5	-1,774
2851,984	-0,5	-1,699
2854,102	-0,5	-1,673
2856,219	-0,5	-1,625
2858,343	0	-1,521
2860,461	0	-1,538
2862,579	0	-1,49
2864,703	0	-1,419
2866,821	0	-1,396
2868,939	0	-1,397
2871,063	0	-1,325
2873,18	0	-1,299
2875,316	0	-1,139
2877,44	0	-1,052
2879,558	0	-1,1
2881,676	0	-1,116
2883,806	0	-1,078
2885,924	0	-1,02
2888,042	0	-0,973
2890,16	0,5	-0,99
2892,289	0,5	-0,887
2894,407	0,5	-0,798
2896,525	0,5	-0,803
2898,649	0,5	-0,837
2900,773	0,5	-0,769
2902,891	0,5	-0,734
2905,015	1	-0,672
2907,133	1	-0,719
2909,244	1	-0,687
2911,38	1	-0,704
2913,498	1	-0,689
2915,616	0,5	-0,821
2917,74	0,5	-0,743
2919,858	1	-0,665
2921,976	0,5	-0,654
2924,1	1	-0,683
2926,217	1	-0,662
2928,335	0,5	-0,854
2930,459	0,5	-0,729
2932,577	0,5	-0,84
2934,701	0,5	-0,821
2936,825	0,5	-0,76
2938,943	0,5	-0,804
2941,061	0,5	-0,856
2943,191	0,5	-0,834
2945,308	0,5	-0,899
2947,42	0	-0,998
2949,544	0	-0,953
2951,668	0	-1,014
2953,786	0	-1,072
2955,904	0	-1,078
2958,028	0	-1,032
2960,146	0	-1,123
2962,263	0	-1,24
2964,393	0	-1,149
2966,511	0	-1,128
2968,629	0	-1,134
2970,753	0	-1,173
2972,871	0	-1,184
2974,995	0	-1,1
2977,119	0	-1,114
2979,242	0	-1,11
2981,36	0	-0,941
2983,49	0,5	-0,897
2985,602	0	-0,837
2987,72	0,5	-0,859
2989,838	0,5	-0,828
2991,962	0,5	-0,809
2994,08	0,5	-0,798
2996,203	0	-0,864
2998,327	0,5	-0,878
3000,451	0,5	-0,837
3002,569	0,5	-0,885
3004,693	0,5	-0,871
3006,811	0,5	-0,931
3008,941	0,5	-0,876
3011,059	0,5	-0,786
3013,176	1	-0,67
3015,294	1	-0,612
3017,418	1	-0,535
3019,542	1	-0,509
3021,66	1	-0,463
3023,778	1	-0,474
3025,902	1,5	-0,4
3028,02	1,5	-0,338
3030,144	1,5	-0,356
3032,261	1,5	-0,367
3034,379	1,5	-0,34
3036,497	1,5	-0,333
3038,621	1,5	-0,339
3040,739	1,5	-0,272
3042,869	1,5	-0,29
3044,987	1,5	-0,322
3047,111	1,5	-0,293
3049,228	1,5	-0,299
3051,352	1,5	-0,316
3053,47	1	-0,45
3055,594	1	-0,451
3057,718	1	-0,486
3059,836	1	-0,55
3061,954	0,5	-0,588
3064,078	1	-0,611
3066,195	0,5	-0,585
3068,319	1	-0,545
3070,437	0,5	-0,556
3072,567	1	-0,491
3074,757	2	-0,199
3076,881	2	-0,199
3079,017	2	-0,186
3081,135	1,5	-0,2
3083,258	1,5	-0,204
3085,388	1,5	-0,194
3087,506	1,5	-0,233
3089,624	1,5	-0,268
3091,754	1,5	-0,245
3093,872	1,5	-0,258
3095,996	1,5	-0,223
3098,12	2	-0,184
3100,238	1,5	-0,159
3102,355	2	-0,135
3104,478	3	-0,089
3106,597	3	-0,065
3108,715	3	-0,06
3110,839	3,5	-0,044
3112,963	3,5	-0,043
3115,087	3,5	-0,029
3117,205	4	-0,022
3119,328	3,5	-0,021
3121,446	4	-0,018
3123,57	4	-0,016
3125,706	4	-0,01
3127,83	4	-0,008
3129,948	4	-0,007
3132,078	4	-0,006
3134,196	4	-0,004
3136,313	4	-0,004
3138,431	4	-0,003
3140,561	3,5	-0,003
3142,679	4	-0,003
3144,803	4	-0,002
3146,927	4	-0,002
3149,045	4	-0,002
3151,169	4	-0,002
3153,286	4	-0,002
3155,41	4	-0,001
3157,528	4	-0,001
3159,652	4	-0,001
3161,77	4	-0,001
3163,888	4	-0,002
3166,006	4	-0,002
3166,06	4	-0,001