File: Cycling_tests/com_TC/entrada/_5.txt
Time (s)	Load (N)	Displacement (mm)
0	0	-0,036
2,129	1,5	-0,304
4,301	-1,5	-0,601
6,413	0	-0,534
8,531	0	-0,533
10,655	-0,5	-0,542
12,767	0,5	-0,496
14,879	0	-0,486
16,99	1	-0,492
19,108	0,5	-0,514
21,22	0,5	-0,462
23,332	2	-0,384
25,444	2	-0,364
27,556	1,5	-0,376
29,668	2,5	-0,248
31,78	2,5	-0,223
33,891	2,5	-0,18
36,009	2,5	-0,185
38,121	2,5	-0,072
40,239	2,5	-0,007
42,351	2,5	0
44,469	3	0
46,587	3	-0,071
48,705	3	-0,003
50,817	3	0
52,928	3	0
55,052	3	0
57,164	3	-0,001
59,288	3	-0,001
61,412	3	-0,001
63,524	3	-0,001
65,636	3	-0,001
67,748	3	-0,002
69,865	3	-0,002
71,989	3	-0,002
74,113	3	-0,001
76,225	3	-0,002
78,343	3	-0,002
80,455	3	-0,002
82,573	3	-0,002
84,697	3	-0,003
86,82	3	-0,002
88,939	3	-0,002
91,05	3	-0,003
93,168	3	-0,003
95,28	3	-0,004
97,404	3	-0,004
99,522	3	-0,005
101,64	3	-0,005
103,751	3	-0,008
105,863	3	-0,011
107,999	3	-0,007
110,119	3	-0,007
112,229	3	-0,008
114,347	3	-0,01
116,465	3	-0,009
118,577	3	-0,012
120,7	3	-0,009
122,812	3	-0,012
124,924	3	-0,013
127,048	3	-0,016
129,172	3	-0,016
131,298	3	-0,013
133,408	3	-0,014
135,52	3	-0,016
137,632	3	-0,018
139,749	3	-0,019
141,867	3	-0,019
143,979	3	-0,02
146,097	3	-0,021
148,215	3	-0,024
150,327	3	-0,035
152,451	3	-0,031
154,569	3	-0,024
156,686	3	-0,041
158,798	2,5	-0,052
160,916	2,5	-0,054
163,04	2	-0,064
165,158	2	-0,075
167,282	1,5	-0,07
169,406	2	-0,067
171,524	2	-0,064
173,635	2	-0,065
175,759	2,5	-0,055
177,883	2,5	-0,047
180,007	3	-0,032
182,125	3	-0,033
184,255	3	-0,029
186,373	3	-0,034
188,49	3	-0,031
190,608	3	-0,034
192,726	3	-0,03
194,85	3	-0,024
196,968	3,5	-0,021
199,092	3,5	-0,018
201,21	3,5	-0,015
203,328	3,5	-0,016
205,44	3	-0,017
207,557	3	-0,019
209,675	3,5	-0,015
211,788	3	-0,015
213,905	3,5	-0,017
216,035	3	-0,017
218,147	3	-0,02
220,265	3	-0,02
222,377	3	-0,022
224,501	3	-0,021
226,63	3	-0,018
228,76	3,5	-0,017
230,872	3	-0,018
232,99	3,5	-0,014
235,114	3,5	-0,012
237,232	3,5	-0,014
239,35	3,5	-0,014
241,467	3,5	-0,014
243,591	3,5	-0,014
245,715	3,5	-0,01
247,827	3,5	-0,009
249,951	3,5	-0,007
252,075	3,5	-0,006
254,205	3,5	-0,004
256,329	3,5	-0,004
258,453	3,5	-0,004
260,57	3,5	-0,004
262,7	3,5	-0,003
264,818	3,5	-0,003
266,936	3,5	-0,003
269,06	3,5	-0,002
271,184	3,5	-0,003
273,302	3,5	-0,003
275,432	3,5	-0,002
277,549	3,5	-0,004
279,667	3,5	-0,004
281,791	3,5	-0,004
283,915	3,5	-0,004
286,045	3,5	-0,004
288,163	3,5	-0,005
290,281	3,5	-0,004
292,411	3,5	-0,003
294,534	3,5	-0,002
296,658	3,5	-0,002
298,782	3,5	-0,002
300,9	3,5	-0,003
303,024	3,5	-0,003
305,148	3,5	-0,003
307,272	3,5	-0,002
309,402	3,5	-0,001
311,525	3,5	-0,001
313,655	3,5	0
315,773	3,5	0
317,903	3,5	0
320,027	3,5	-0,012
322,145	3,5	-0,089
324,257	3,5	-0,181
326,375	3,5	-0,152
328,499	3,5	-0,195
330,628	3,5	-0,212
332,758	3	-0,306
334,882	3	-0,39
337,006	1,5	-0,516
339,13	0	-0,684
341,26	-1,5	-0,807
343,378	-2	-0,827
345,496	-2,5	-0,875
347,619	-3	-0,958
349,749	-4,5	-1,136
351,867	-4,5	-1,214
353,991	-5,5	-1,392
356,115	-7	-1,523
358,239	-7	-1,569
360,363	-8	-1,716
362,493	-10,5	-1,977
364,616	-11	-2,038
366,74	-12	-2,169
368,858	-13	-2,206
370,97	-12	-2,212
373,094	-13,5	-2,253
375,212	-14,5	-2,327
377,336	-14,5	-2,373
379,454	-15	-2,405
381,571	-16	-2,516
383,689	-15	-2,511
385,813	-15	-2,433
387,931	-15	-2,422
390,055	-15	-2,468
392,173	-15,5	-2,483
394,303	-15,5	-2,542
396,433	-19	-2,773
398,557	-20	-2,955
400,68	-21	-3,029
402,81	-22,5	-3,136
404,922	-22	-3,172
407,052	-24,5	-3,302
409,182	-25	-3,355
411,306	-24,5	-3,394
413,418	-27	-3,418
415,548	-27	-3,425
417,677	-28,5	-3,446
419,795	-28,5	-3,453
421,913	-28,5	-3,452
424,037	-28,5	-3,468
426,161	-29	-3,473
428,291	-29	-3,484
430,409	-29,5	-3,485
432,539	-29,5	-3,489
434,668	-29,5	-3,492
436,786	-29,5	-3,493
438,904	-29,5	-3,493
441,022	-29,5	-3,493
443,14	-29,5	-3,492
445,264	-29,5	-3,492
447,388	-29,5	-3,493
449,506	-29,5	-3,492
451,623	-29,5	-3,493
453,741	-29,5	-3,492
455,865	-29	-3,492
457,989	-29,5	-3,493
460,107	-29,5	-3,494
462,231	-29,5	-3,494
464,355	-29,5	-3,495
466,473	-29,5	-3,496
468,603	-29,5	-3,496
470,72	-29,5	-3,497
472,844	-29,5	-3,497
474,968	-29,5	-3,498
477,098	-29,5	-3,498
479,222	-29,5	-3,499
481,34	-29,5	-3,499
483,464	-29,5	-3,5
485,594	-29,5	-3,479
487,723	-29	-3,298
489,841	-29	-3,216
491,977	-28	-3,103
494,095	-25,5	-2,922
496,213	-24,5	-2,869
498,331	-23,5	-2,758
500,449	-21,5	-2,604
502,561	-21,5	-2,539
504,684	-19	-2,398
506,808	-18,5	-2,345
508,938	-17	-2,154
511,062	-15,5	-2,06
513,18	-15	-1,949
515,31	-11	-1,688
517,434	-10,5	-1,589
519,552	-10,5	-1,605
521,675	-9,5	-1,518
523,799	-8,5	-1,386
525,923	-6	-1,245
528,047	-5,5	-1,114
530,171	-5	-1,036
532,289	-4	-0,914
534,407	-3	-0,83
536,531	-3	-0,769
538,66	-2,5	-0,651
540,778	-2	-0,582
542,902	-0,5	-0,436
545,02	-0,5	-0,378
547,144	0	-0,276
549,268	0,5	-0,18
551,398	1	-0,128
553,528	2	-0,089
555,652	3	-0,066
557,775	3	-0,05
559,893	3	-0,04
562,017	3,5	-0,025
564,141	3,5	-0,018
566,259	3,5	-0,016
568,389	3,5	-0,012
570,513	3,5	-0,008
572,631	4	-0,006
574,748	3,5	-0,005
576,872	3,5	-0,004
579,008	3,5	-0,002
581,132	3,5	-0,001
583,256	3,5	-0,001
585,38	3,5	0
587,504	3,5	-0,003
589,628	3,5	-0,175
591,745	3,5	-0,242
593,863	3,5	-0,29
595,987	3	-0,348
598,105	2,5	-0,411
600,223	0,5	-0,56
602,347	0	-0,648
604,477	-1,5	-0,735
606,601	-2	-0,828
608,724	-2,5	-0,906
610,842	-2,5	-0,915
612,96	-3	-0,963
615,084	-3	-1,02
617,202	-4	-1,115
619,326	-4	-1,192
621,45	-4,5	-1,259
623,58	-5,5	-1,367
625,704	-5,5	-1,466
627,827	-6,5	-1,643
629,945	-7,5	-1,745
632,075	-9,5	-1,916
634,199	-10	-2,026
636,323	-11,5	-2,167
638,453	-12	-2,306
640,571	-12,5	-2,347
642,695	-15	-2,489
644,812	-14	-2,499
646,942	-16	-2,645
649,066	-16,5	-2,71
651,19	-18,5	-2,894
653,314	-20	-2,987
655,438	-21,5	-3,118
657,562	-22,5	-3,25
659,68	-23	-3,244
661,803	-22	-3,274
663,927	-24	-3,342
666,051	-23	-3,359
668,175	-25,5	-3,382
670,293	-26	-3,402
672,423	-26,5	-3,436
674,547	-27	-3,46
676,671	-28	-3,473
678,788	-28	-3,479
680,912	-28	-3,481
683,036	-28	-3,488
685,154	-28,5	-3,492
687,284	-28,5	-3,495
689,408	-28,5	-3,496
691,532	-28,5	-3,497
693,656	-28,5	-3,497
695,774	-28,5	-3,498
697,903	-28,5	-3,499
700,027	-28,5	-3,499
702,151	-28,5	-3,496
704,275	-28,5	-3,36
706,405	-28,5	-3,273
708,529	-28,5	-3,204
710,653	-28,5	-3,056
712,777	-24	-2,951
714,894	-22,5	-2,85
717,018	-21,5	-2,644
719,148	-24,5	-2,74
721,272	-19,5	-2,566
723,396	-18	-2,42
725,52	-17	-2,213
727,656	-12,5	-1,955
729,774	-11	-1,844
731,891	-9	-1,621
734,021	-7	-1,403
736,145	-6	-1,283
738,269	-4,5	-1,152
740,387	-4	-0,966
742,505	-3	-0,859
744,623	-2,5	-0,839
746,747	-2,5	-0,688
748,871	-0,5	-0,534
750,994	0	-0,378
753,112	1	-0,203
755,248	2	-0,132
757,372	2,5	-0,09
759,496	3,5	-0,044
761,614	3,5	-0,033
763,738	3,5	-0,022
765,862	3,5	-0,019
767,991	4	-0,01
770,121	4	-0,006
772,245	4	-0,004
774,363	4	-0,002
776,499	4	-0,001
778,617	3,5	-0,001
780,741	4	0
782,859	4	-0,002
784,982	3,5	-0,148
787,112	4	-0,287
789,236	3,5	-0,354
791,36	2	-0,561
793,484	1,5	-0,606
795,608	0,5	-0,615
797,732	0	-0,734
799,856	-1,5	-0,86
801,973	-1,5	-0,881
804,097	-3	-1,039
806,221	-3	-1,121
808,345	-4	-1,23
810,463	-3,5	-1,261
812,593	-4,5	-1,363
814,717	-4,5	-1,458
816,841	-5	-1,551
818,964	-5,5	-1,57
821,088	-6	-1,626
823,206	-6	-1,646
825,33	-6	-1,692
827,46	-6,5	-1,806
829,584	-7,5	-1,877
831,708	-8	-1,927
833,832	-8,5	-2,027
835,968	-11	-2,265
838,091	-11,5	-2,337
840,215	-13	-2,49
842,333	-13,5	-2,558
844,451	-14,5	-2,617
846,575	-15,5	-2,746
848,693	-17	-2,87
850,823	-19	-2,998
852,947	-19,5	-3,075
855,07	-20	-3,126
857,188	-20	-3,12
859,318	-20,5	-3,211
861,442	-21	-3,199
863,56	-22,5	-3,286
865,684	-22,5	-3,305
867,808	-23	-3,324
869,932	-23	-3,348
872,061	-24,5	-3,398
874,185	-25	-3,424
876,297	-24,5	-3,416
878,421	-25	-3,416
880,545	-25	-3,417
882,669	-25	-3,428
884,793	-25,5	-3,441
886,917	-26	-3,455
889,034	-26,5	-3,467
891,158	-26,5	-3,467
893,282	-27	-3,472
895,406	-27	-3,469
897,532	-26	-3,453
899,654	-25	-3,438
901,772	-25	-3,424
903,896	-24,5	-3,422
906,02	-25,5	-3,429
908,143	-26,5	-3,465
910,261	-27	-3,478
912,385	-27	-3,482
914,503	-26,5	-3,465
916,621	-27	-3,468
918,745	-27	-3,484
920,863	-27	-3,485
922,987	-27	-3,487
925,11	-27	-3,49
927,234	-27,5	-3,494
929,358	-27,5	-3,497
931,482	-27,5	-3,498
933,606	-27,5	-3,498
935,724	-27,5	-3,499
937,848	-27	-3,499
939,972	-27,5	-3,499
942,095	-27	-3,499
944,213	-27	-3,499
946,337	-27,5	-3,499
948,461	-27	-3,499
950,585	-27	-3,5
952,709	-27	-3,365
954,833	-27	-3,231
956,951	-26	-3,084
959,08	-22,5	-2,839
961,204	-21	-2,676
963,328	-19	-2,503
965,458	-18	-2,384
967,576	-15	-2,268
969,694	-14	-2,157
971,824	-13	-2,013
973,942	-12	-1,923
976,065	-10,5	-1,802
978,189	-10,5	-1,799
980,307	-10	-1,72
982,431	-9,5	-1,684
984,561	-7,5	-1,519
986,679	-7,5	-1,524
988,797	-7	-1,467
990,921	-7	-1,463
993,039	-6	-1,364
995,162	-6,5	-1,403
997,286	-5	-1,203
999,41	-5,5	-1,184
1001,522	-4,5	-1,092
1003,646	-5	-1,228
1005,77	-4,5	-1,107
1007,894	-3	-0,949
1010,018	-2,5	-0,846
1012,135	-4	-1
1014,253	-3	-0,953
1016,383	-3	-0,872
1018,501	-2	-0,744
1020,631	-1,5	-0,675
1022,755	-2	-0,774
1024,873	-2	-0,741
1026,997	-2	-0,723
1029,114	-2	-0,749
1031,238	-2	-0,768
1033,362	-2	-0,749
1035,486	-2,5	-0,762
1037,61	-2	-0,738
1039,728	-2,5	-0,721
1041,858	-1,5	-0,663
1043,988	-2	-0,655
1046,106	-1,5	-0,608
1048,229	-0,5	-0,53
1050,347	-1	-0,479
1052,471	0	-0,4
1054,595	0	-0,313
1056,713	0	-0,308
1058,837	0	-0,256
1060,961	0,5	-0,219
1063,085	0,5	-0,209
1065,202	0,5	-0,206
1067,326	0,5	-0,173
1069,45	1,5	-0,155
1071,568	1,5	-0,143
1073,686	1,5	-0,121
1075,804	2	-0,094
1077,922	2,5	-0,083
1080,046	2,5	-0,066
1082,169	3	-0,069
1084,287	3	-0,067
1086,411	3,5	-0,058
1088,529	3	-0,062
1090,659	3,5	-0,041
1092,783	3,5	-0,043
1094,901	3,5	-0,035
1097,025	3,5	-0,039
1099,136	3,5	-0,04
1101,26	3,5	-0,042
1103,39	3,5	-0,039
1105,508	3,5	-0,039
1107,632	3,5	-0,034
1109,75	3,5	-0,041
1111,874	3,5	-0,032
1113,992	3,5	-0,023
1116,11	4	-0,02
1118,233	4	-0,016
1120,351	4	-0,015
1122,469	4	-0,014
1124,593	4	-0,01
1126,711	4	-0,008
1128,829	4	-0,006
1130,959	4	-0,005
1133,077	4	-0,004
1135,2	3,5	-0,004
1137,324	4	-0,004
1139,448	4	-0,003
1141,572	3,5	-0,002
1143,69	4	-0,002
1145,814	4	-0,001
1147,932	4	-0,001
1150,05	4	-0,001
1152,173	4	-0,001
1154,291	4	0
1156,415	4	-0,023
1158,533	4	-0,006
1160,651	4	0
1162,781	4	-0,005
1164,899	4	-0,125
1167,023	3	-0,264
1169,14	3,5	-0,35
1171,264	2	-0,422
1173,382	2	-0,455
1175,512	0,5	-0,626
1177,63	-0,5	-0,758
1179,76	-1	-0,846
1181,878	-2	-0,924
1184,008	-2,5	-1,096
1186,126	-3	-1,111
1188,249	-4	-1,252
1190,367	-4	-1,273
1192,485	-4	-1,305
1194,609	-4,5	-1,408
1196,739	-5	-1,553
1198,869	-6	-1,661
1200,987	-6,5	-1,752
1203,111	-6,5	-1,802
1205,228	-7	-1,823
1207,358	-7,5	-1,978
1209,482	-8,5	-2,024
1211,612	-9	-2,136
1213,73	-11	-2,338
1215,854	-12,5	-2,486
1217,972	-13	-2,538
1220,102	-15	-2,677
1222,225	-14,5	-2,84
1224,349	-17,5	-2,971
1226,467	-18,5	-3,039
1228,597	-17,5	-3,109
1230,715	-17,5	-3,12
1232,839	-20	-3,123
1234,957	-19,5	-3,111
1237,069	-18	-3,038
1239,186	-18,5	-3,071
1241,304	-18	-3,081
1243,422	-16	-3,139
1245,552	-20	-3,218
1247,67	-20,5	-3,241
1249,794	-21	-3,3
1251,918	-19,5	-3,335
1254,042	-23,5	-3,381
1256,159	-24	-3,405
1258,283	-24,5	-3,42
1260,401	-24,5	-3,44
1262,525	-24,5	-3,458
1264,643	-25,5	-3,466
1266,767	-25,5	-3,472
1268,885	-26	-3,476
1271,009	-26	-3,483
1273,127	-26	-3,486
1275,25	-26	-3,492
1277,368	-26,5	-3,492
1279,492	-26,5	-3,494
1281,61	-26,5	-3,494
1283,74	-26,5	-3,496
1285,852	-26,5	-3,496
1287,976	-26	-3,496
1290,094	-26,5	-3,497
1292,217	-26,5	-3,498
1294,335	-26,5	-3,498
1296,453	-26,5	-3,499
1298,577	-26,5	-3,499
1300,695	-26,5	-3,499
1302,819	-26,5	-3,499
1304,931	-26,5	-3,499
1307,055	-26,5	-3,499
1309,172	-26,5	-3,499
1311,296	-26	-3,5
1313,408	-26,5	-3,5
1315,532	-26,5	-3,45
1317,662	-26	-3,356
1319,792	-26	-3,269
1321,91	-26	-3,269
1324,034	-26	-3,213
1326,152	-23,5	-3,041
1328,275	-23	-2,964
1330,393	-21,5	-2,874
1332,517	-21	-2,806
1334,641	-20	-2,703
1336,765	-19	-2,561
1338,883	-17,5	-2,465
1341,007	-16	-2,345
1343,131	-14	-2,236
1345,254	-13,5	-2,181
1347,372	-12,5	-2,101
1349,49	-12,5	-2,084
1351,608	-13	-2,049
1353,732	-11	-1,964
1355,856	-10,5	-1,919
1357,98	-10	-1,848
1360,098	-9	-1,752
1362,215	-8,5	-1,704
1364,333	-8,5	-1,69
1366,457	-7,5	-1,575
1368,575	-7	-1,521
1370,699	-6,5	-1,45
1372,817	-6	-1,445
1374,935	-5,5	-1,387
1377,053	-6	-1,404
1379,182	-5,5	-1,322
1381,3	-5,5	-1,322
1383,418	-5	-1,312
1385,536	-5	-1,297
1387,66	-4,5	-1,214
1389,778	-4,5	-1,183
1391,908	-3,5	-1,112
1394,026	-4,5	-1,1
1396,143	-3,5	-1,055
1398,279	-2,5	-0,901
1400,397	-3	-0,901
1402,515	-2,5	-0,828
1404,639	-2	-0,782
1406,763	-2	-0,731
1408,881	-1,5	-0,678
1411,005	-1,5	-0,659
1413,123	-1,5	-0,644
1415,246	-0,5	-0,588
1417,358	-1	-0,586
1419,482	-0,5	-0,514
1421,594	-0,5	-0,55
1423,718	-0,5	-0,462
1425,836	-0,5	-0,43
1427,954	-0,5	-0,474
1430,078	0	-0,379
1432,195	-0,5	-0,433
1434,319	0	-0,399
1436,437	0	-0,377
1438,561	0	-0,3
1440,679	0,5	-0,204
1442,809	2	-0,13
1444,927	2	-0,121
1447,051	1,5	-0,092
1449,168	2	-0,115
1451,292	2,5	-0,092
1453,41	2,5	-0,084
1455,528	3	-0,08
1457,646	3	-0,064
1459,764	3	-0,065
1461,888	3	-0,054
1464	3	-0,047
1466,124	3,5	-0,043
1468,247	3,5	-0,04
1470,365	3,5	-0,036
1472,489	3,5	-0,031
1474,607	3,5	-0,029
1476,731	3,5	-0,029
1478,849	3,5	-0,024
1480,973	3,5	-0,021
1483,091	4	-0,02
1485,214	3,5	-0,013
1487,338	4	-0,012
1489,462	4	-0,014
1491,58	4	-0,012
1493,704	4	-0,01
1495,816	4	-0,013
1497,934	4	-0,012
1500,064	4	-0,009
1502,175	4	-0,01
1504,293	4	-0,009
1506,411	4	-0,009
1508,529	4	-0,008
1510,653	4	-0,008
1512,771	4	-0,007
1514,895	4	-0,006
1517,013	4	-0,005
1519,136	4	-0,005
1521,254	4	-0,005
1523,378	4	-0,004
1525,502	4	-0,005
1527,62	4	-0,005
1529,744	4	-0,007
1531,868	4	-0,006
1533,992	4	-0,006
1536,11	4	-0,007
1538,221	4	-0,01
1540,345	4	-0,011
1542,463	4	-0,01
1544,587	4	-0,012
1546,705	4	-0,01
1548,823	4	-0,01
1550,947	4	-0,01
1553,065	4	-0,008
1555,188	4	-0,008
1557,306	4	-0,008
1559,43	4	-0,007
1561,548	4	-0,006
1563,666	4	-0,006
1565,784	4	-0,006
1567,902	4	-0,005
1570,026	4	-0,005
1572,137	4	-0,005
1574,261	4	-0,005
1576,379	4	-0,004
1578,491	4	-0,004
1580,615	4	-0,003
1582,733	4	-0,003
1584,857	4	-0,003
1586,975	4	-0,003
1589,092	4	-0,002
1591,216	4	-0,002
1593,334	4	-0,002
1595,464	4	-0,002
1597,582	4	-0,002
1599,712	4	-0,001
1601,83	4	-0,001
1603,942	4	-0,001
1606,071	4	-0,001
1608,189	4	-0,001
1610,313	4	-0,001
1612,431	4	-0,001
1614,549	4	0
1616,673	4	-0,036
1618,791	4	-0,022
1620,915	4	-0,115
1623,033	4	-0,096
1625,15	4	-0,102
1627,274	4	-0,212
1629,392	3,5	-0,2
1631,528	3,5	-0,314
1633,64	3,5	-0,294
1635,764	3	-0,366
1637,882	2,5	-0,441
1640	1,5	-0,489
1642,117	1,5	-0,515
1644,235	1,5	-0,51
1646,347	1,5	-0,553
1648,477	0	-0,645
1650,595	0	-0,651
1652,713	0	-0,666
1654,837	0	-0,696
1656,955	0	-0,694
1659,078	-0,5	-0,724
1661,202	-0,5	-0,797
1663,326	-1	-0,827
1665,444	-1	-0,852
1667,568	-0,5	-0,888
1669,686	-0,5	-0,787
1671,81	-1,5	-0,821
1673,928	0	-0,725
1676,045	0	-0,725
1678,169	-1	-0,77
1680,293	-0,5	-0,741
1682,411	-0,5	-0,756
1684,541	0	-0,7
1686,665	0	-0,708
1688,789	-1	-0,77
1690,907	0	-0,689
1693,025	0	-0,7
1695,148	-0,5	-0,692
1697,266	0,5	-0,627
1699,39	0	-0,657
1701,508	0	-0,603
1703,638	0	-0,663
1705,756	1,5	-0,599
1707,874	0,5	-0,592
1709,998	1,5	-0,543
1712,115	0,5	-0,58
1714,233	0	-0,627
1716,357	0	-0,657
1718,475	0	-0,62
1720,599	0,5	-0,617
1722,717	1,5	-0,516
1724,835	3	-0,414
1726,959	2	-0,47
1729,076	2,5	-0,438
1731,2	1,5	-0,553
1733,318	1,5	-0,51
1735,436	1	-0,552
1737,56	0,5	-0,614
1739,678	0,5	-0,608
1741,802	0,5	-0,611
1743,92	1	-0,589
1746,037	0	-0,621
1748,161	1	-0,576
1750,279	1,5	-0,544
1752,397	0,5	-0,623
1754,521	0	-0,691
1756,639	0	-0,702
1758,763	0	-0,72
1760,881	0	-0,666
1762,999	1,5	-0,644
1765,122	0	-0,663
1767,24	2	-0,605
1769,352	2	-0,537
1771,476	2,5	-0,535
1773,594	2,5	-0,502
1775,724	0,5	-0,62
1777,842	1,5	-0,63
1779,966	1,5	-0,542
1782,083	3,5	-0,302
1784,201	4	-0,191
1786,325	4	-0,012
1788,449	4	-0,001
1790,579	4	-0,001
1792,703	4	-0,001
1794,827	4	-0,002
1796,945	4	-0,006
1799,074	4	-0,006
1801,192	3,5	-0,008
1803,316	4	-0,008
1805,434	4	-0,01
1807,558	4	-0,009
1809,682	4	-0,012
1811,8	3,5	-0,025
1813,924	3,5	-0,023
1816,042	3,5	-0,032
1818,159	3	-0,042
1820,283	3,5	-0,048
1822,401	3	-0,068
1824,519	2	-0,091
1826,643	1	-0,16
1828,761	1	-0,206
1830,879	0	-0,31
1833,003	-0,5	-0,556
1835,12	-1,5	-0,785
1837,244	-2,5	-0,951
1839,362	-3,5	-1,176
1841,48	-5	-1,475
1843,604	-6	-1,561
1845,722	-7,5	-1,775
1847,84	-10	-2,019
1849,964	-11,5	-2,154
1852,081	-14	-2,378
1854,193	-17	-2,578
1856,317	-18	-2,725
1858,435	-21	-2,89
1860,553	-22	-2,97
1862,671	-23,5	-3,115
1864,783	-24	-3,358
1866,907	-24	-3,479
1869,024	-24	-3,5
1871,148	-24	-3,499
1873,272	-24	-3,499
1875,39	-24	-3,499
1877,508	-24	-3,499
1879,632	-24	-3,499
1881,75	-24	-3,498
1883,874	-24	-3,498
1885,985	-24	-3,498
1888,103	-24	-3,498
1890,227	-24	-3,497
1892,345	-24	-3,496
1894,469	-24	-3,496
1896,593	-24	-3,495
1898,711	-24	-3,494
1900,835	-24	-3,495
1902,953	-24	-3,493
1905,07	-24	-3,494
1907,2	-24	-3,493
1909,318	-24	-3,491
1911,436	-23,5	-3,487
1913,56	-23,5	-3,483
1915,678	-23,5	-3,482
1917,796	-23,5	-3,479
1919,92	-23,5	-3,476
1922,037	-23,5	-3,478
1924,161	-23,5	-3,481
1926,279	-23,5	-3,479
1928,397	-23,5	-3,479
1930,515	-23,5	-3,477
1932,633	-23	-3,476
1934,751	-22,5	-3,47
1936,875	-23	-3,467
1938,993	-23	-3,471
1941,116	-23	-3,469
1943,246	-22,5	-3,464
1945,364	-22,5	-3,467
1947,482	-22,5	-3,465
1949,6	-22,5	-3,463
1951,718	-22	-3,454
1953,836	-22,5	-3,454
1955,966	-22	-3,458
1958,083	-22	-3,456
1960,213	-22	-3,456
1962,331	-22	-3,449
1964,455	-22	-3,448
1966,585	-22	-3,447
1968,703	-21,5	-3,439
1970,821	-21,5	-3,437
1972,945	-21	-3,431
1975,062	-20	-3,404
1977,18	-20	-3,397
1979,31	-20,5	-3,393
1981,434	-20	-3,399
1983,552	-20,5	-3,405
1985,676	-20,5	-3,408
1987,788	-18,5	-3,374
1989,906	-18,5	-3,364
1992,029	-20	-3,399
1994,147	-18,5	-3,383
1996,271	-20	-3,405
1998,389	-20	-3,4
2000,507	-18,5	-3,398
2002,637	-19	-3,399
2004,755	-19	-3,397
2006,873	-18	-3,356
2008,996	-16	-3,335
2011,114	-17,5	-3,34
2013,232	-17,5	-3,329
2015,356	-15,5	-3,328
2017,48	-17	-3,335
2019,604	-16	-3,35
2021,722	-17,5	-3,359
2023,84	-18	-3,378
2025,964	-18,5	-3,402
2028,087	-19,5	-3,422
2030,205	-18,5	-3,422
2032,335	-19,5	-3,441
2034,453	-19,5	-3,455
2036,571	-19,5	-3,442
2038,701	-19,5	-3,446
2040,819	-18,5	-3,436
2042,937	-18	-3,421
2045,06	-18	-3,419
2047,178	-17,5	-3,399
2049,296	-18	-3,425
2051,42	-18	-3,434
2053,538	-18	-3,423
2055,656	-18	-3,43
2057,774	-18,5	-3,435
2059,892	-18	-3,446
2062,015	-18,5	-3,445
2064,127	-18	-3,442
2066,245	-18	-3,444
2068,369	-18,5	-3,454
2070,487	-18,5	-3,458
2072,599	-18	-3,458
2074,723	-17,5	-3,462
2076,841	-17,5	-3,467
2078,958	-18	-3,475
2081,076	-18	-3,483
2083,194	-18	-3,487
2085,312	-18	-3,489
2087,43	-18	-3,491
2089,548	-18	-3,492
2091,666	-17,5	-3,493
2093,79	-17,5	-3,494
2095,908	-18	-3,495
2098,025	-18	-3,495
2100,155	-18	-3,498
2102,273	-18	-3,498
2104,397	-18	-3,498
2106,515	-17	-3,499
2108,633	-17	-3,499
2110,763	-17	-3,499
2112,881	-17	-3,5
2114,998	-17	-3,47
2117,116	-17	-3,393
2119,24	-17	-3,376
2121,358	-17	-3,361
2123,482	-16,5	-3,27
2125,606	-16	-3,205
2127,724	-15	-3,093
2129,848	-14,5	-3,057
2131,965	-14	-3,02
2134,083	-14	-3,042
2136,219	-14	-2,964
2138,337	-13,5	-2,947
2140,455	-12	-2,862
2142,579	-10,5	-2,721
2144,697	-10,5	-2,7
2146,815	-9,5	-2,626
2148,939	-8	-2,58
2151,056	-8,5	-2,523
2153,174	-8	-2,495
2155,304	-6,5	-2,394
2157,422	-6,5	-2,39
2159,546	-6,5	-2,38
2161,67	-7	-2,315
2163,788	-6	-2,335
2165,906	-5,5	-2,213
2168,035	-5,5	-2,213
2170,153	-5,5	-2,203
2172,277	-4,5	-2,088
2174,395	-4,5	-2,109
2176,513	-4,5	-2,124
2178,637	-5	-2,128
2180,755	-4,5	-2,102
2182,873	-5	-2,182
2184,991	-4,5	-2,108
2187,108	-5	-2,054
2189,226	-4	-2,065
2191,356	-3,5	-2,055
2193,474	-4,5	-2,05
2195,598	-3,5	-1,999
2197,716	-3	-1,961
2199,84	-3	-1,943
2201,951	-3,5	-1,973
2204,075	-3	-1,9
2206,193	-3	-1,854
2208,305	-3	-1,868
2210,423	-3	-1,931
2212,541	-3	-1,864
2214,665	-2,5	-1,829
2216,783	-3	-1,808
2218,9	-2	-1,776
2221,018	-2	-1,77
2223,13	-2,5	-1,838
2225,254	-2,5	-1,899
2227,372	-3	-1,852
2229,49	-2,5	-1,858
2231,614	-2	-1,823
2233,738	-2	-1,771
2235,856	-2	-1,778
2237,973	-1,5	-1,756
2240,103	-1,5	-1,68
2242,227	-1,5	-1,599
2244,351	-1,5	-1,523
2246,475	-1	-1,584
2248,593	-1	-1,587
2250,717	-1,5	-1,611
2252,835	-1	-1,589
2254,952	-1	-1,569
2257,076	-1,5	-1,588
2259,194	-1,5	-1,63
2261,312	-1,5	-1,651
2263,43	-2,5	-1,669
2265,554	-2,5	-1,692
2267,672	-1,5	-1,619
2269,784	-2,5	-1,718
2271,907	-2,5	-1,724
2274,025	-2	-1,694
2276,143	-1,5	-1,674
2278,267	-2	-1,696
2280,385	-2,5	-1,713
2282,509	-2,5	-1,688
2284,633	-2	-1,728
2286,757	-2	-1,73
2288,88	-2,5	-1,744
2290,998	-2	-1,758
2293,116	-2,5	-1,814
2295,24	-3	-1,874
2297,358	-2,5	-1,83
2299,476	-2,5	-1,779
2301,6	-2,5	-1,78
2303,718	-2	-1,765
2305,836	-2	-1,813
2307,959	-2	-1,773
2310,077	-2	-1,769
2312,195	-2	-1,768
2314,319	-2,5	-1,834
2316,443	-2,5	-1,826
2318,567	-2,5	-1,814
2320,679	-2,5	-1,859
2322,797	-2,5	-1,885
2324,92	-3	-1,946
2327,044	-3,5	-1,949
2329,162	-3,5	-2,034
2331,286	-3,5	-2,079
2333,404	-4,5	-2,185
2335,522	-4,5	-2,213
2337,64	-4,5	-2,214
2339,764	-4,5	-2,269
2341,881	-5	-2,339
2344,005	-5	-2,293
2346,123	-5	-2,34
2348,241	-5	-2,346
2350,365	-5	-2,322
2352,489	-4	-2,282
2354,613	-4	-2,253
2356,731	-4	-2,263
2358,848	-4,5	-2,344
2360,972	-4,5	-2,388
2363,096	-4,5	-2,349
2365,214	-5	-2,454
2367,338	-6	-2,564
2369,456	-6,5	-2,634
2371,574	-6,5	-2,654
2373,698	-6,5	-2,635
2375,822	-7	-2,628
2377,945	-6,5	-2,688
2380,063	-7,5	-2,704
2382,193	-7	-2,709
2384,323	-7	-2,622
2386,441	-7	-2,649
2388,565	-6,5	-2,689
2390,695	-6,5	-2,694
2392,813	-7,5	-2,795
2394,93	-7,5	-2,805
2397,054	-8	-2,86
2399,172	-8,5	-2,871
2401,29	-8,5	-2,904
2403,414	-9	-2,934
2405,532	-10	-3,014
2407,662	-10	-2,938
2409,78	-10	-2,949
2411,903	-8	-2,913
2414,027	-8	-2,868
2416,151	-8	-2,854
2418,269	-8	-2,898
2420,399	-9	-2,89
2422,523	-7,5	-2,882
2424,641	-9	-2,894
2426,771	-7,5	-2,808
2428,888	-7,5	-2,808
2431,012	-7,5	-2,816
2433,136	-8	-2,823
2435,266	-7	-2,79
2437,384	-7	-2,818
2439,514	-7,5	-2,811
2441,632	-7,5	-2,833
2443,75	-8,5	-2,902
2445,874	-9,5	-2,964
2447,997	-11,5	-3,098
2450,115	-12	-3,147
2452,239	-12	-3,15
2454,351	-12	-3,251
2456,481	-11,5	-3,18
2458,599	-12	-3,174
2460,717	-12	-3,256
2462,835	-12	-3,322
2464,952	-12	-3,252
2467,07	-12	-3,236
2469,194	-12	-3,294
2471,312	-12	-3,414
2473,43	-12	-3,432
2475,554	-12	-3,456
2477,672	-12	-3,407
2479,796	-12	-3,37
2481,913	-12	-3,47
2484,037	-12	-3,333
2486,161	-12	-3,27
2488,279	-11,5	-3,254
2490,397	-12	-3,243
2492,527	-12	-3,28
2494,651	-12	-3,366
2496,769	-12	-3,414
2498,892	-12	-3,476
2501,016	-12	-3,446
2503,134	-12	-3,432
2505,258	-12	-3,372
2507,376	-12	-3,406
2509,5	-11,5	-3,432
2511,618	-12	-3,433
2513,736	-11,5	-3,42
2515,86	-11,5	-3,439
2517,983	-11,5	-3,312
2520,107	-11,5	-3,274
2522,231	-11	-3,168
2524,355	-8,5	-3,02
2526,473	-7,5	-2,888
2528,597	-6	-2,835
2530,715	-6	-2,768
2532,839	-5	-2,711
2534,962	-5,5	-2,693
2537,08	-5	-2,694
2539,198	-4,5	-2,619
2541,316	-4,5	-2,587
2543,434	-3,5	-2,486
2545,552	-4	-2,498
2547,676	-3	-2,398
2549,8	-2,5	-2,284
2551,917	-2	-2,216
2554,047	-1,5	-2,103
2556,171	-1,5	-2,041
2558,289	-1	-1,888
2560,407	-1	-1,894
2562,525	-1	-1,91
2564,643	-1	-1,904
2566,767	-1	-1,87
2568,884	-1	-1,954
2571,008	-1	-1,878
2573,12	-0,5	-1,788
2575,238	-0,5	-1,738
2577,362	0	-1,634
2579,486	0	-1,646
2581,604	0	-1,552
2583,728	0	-1,43
2585,846	0	-1,38
2587,963	0	-1,305
2590,087	0	-1,334
2592,211	0	-1,274
2594,329	0	-1,252
2596,453	0,5	-1,164
2598,571	0,5	-1,131
2600,689	0	-1,153
2602,813	0,5	-1,14
2604,93	0,5	-1,098
2607,048	0,5	-1,072
2609,166	0,5	-1,035
2611,284	0,5	-1,061
2613,402	0,5	-1,089
2615,526	0,5	-1,085
2617,644	0,5	-1,075
2619,768	0,5	-1,054
2621,885	0,5	-1,153
2624,003	0,5	-1,227
2626,121	0,5	-1,254
2628,251	0,5	-1,254
2630,369	0	-1,284
2632,487	0	-1,26
2634,611	0,5	-1,246
2636,729	0,5	-1,235
2638,852	0	-1,269
2640,97	0	-1,318
2643,094	0,5	-1,267
2645,218	0,5	-1,254
2647,336	0	-1,312
2649,454	0	-1,275
2651,584	0,5	-1,248
2653,702	0,5	-1,163
2655,82	0	-1,2
2657,937	0,5	-1,211
2660,055	0	-1,265
2662,179	0,5	-1,225
2664,303	0	-1,216
2666,421	0,5	-1,205
2668,539	0	-1,254
2670,657	0	-1,218
2672,775	0,5	-1,18
2674,898	0,5	-1,2
2677,016	0,5	-1,168
2679,14	0,5	-1,138
2681,264	0,5	-1,161
2683,382	0,5	-1,13
2685,5	0,5	-1,115
2687,624	0,5	-1,148
2689,742	0,5	-1,122
2691,865	0,5	-1,15
2693,983	0,5	-1,173
2696,107	0,5	-1,138
2698,231	0,5	-1,13
2700,343	0,5	-1,207
2702,461	0,5	-1,146
2704,585	1	-1,056
2706,715	1	-1,007
2708,832	1	-1,024
2710,956	1	-1,02
2713,08	1	-1,013
2715,198	0,5	-1,071
2717,322	0,5	-1,099
2719,44	0,5	-1,138
2721,564	0,5	-1,13
2723,688	0,5	-1,285
2725,806	0,5	-1,319
2727,923	0,5	-1,318
2730,047	0	-1,369
2732,165	0	-1,428
2734,283	0	-1,539
2736,413	0	-1,571
2738,531	0	-1,682
2740,649	0	-1,746
2742,779	-0,5	-1,798
2744,896	-0,5	-1,941
2747,014	-1	-2,064
2749,138	-1	-2,084
2751,256	-1	-2,131
2753,374	-1,5	-2,211
2755,504	-1	-2,157
2757,622	-2	-2,345
2759,734	-3	-2,454
2761,857	-4,5	-2,648
2763,975	-5,5	-2,76
2766,093	-6	-2,866
2768,217	-7	-2,885
2770,335	-10	-3,1
2772,459	-10,5	-3,132
2774,577	-10,5	-3,192
2776,695	-10,5	-3,248
2778,813	-10,5	-3,274
2780,936	-10,5	-3,376
2783,06	-10,5	-3,494
2785,178	-10,5	-3,5
2787,296	-10,5	-3,499
2789,414	-10,5	-3,499
2791,538	-10,5	-3,498
2793,656	-10,5	-3,498
2795,78	-10,5	-3,498
2797,91	-10,5	-3,498
2800,027	-10,5	-3,496
2802,145	-10,5	-3,494
2804,269	-10,5	-3,495
2806,387	-10,5	-3,494
2808,517	-10,5	-3,494
2810,635	-10,5	-3,492
2812,759	-10,5	-3,489
2814,876	-10	-3,486
2816,994	-10	-3,483
2819,13	-10,5	-3,486
2821,248	-10,5	-3,481
2823,378	-10,5	-3,479
2825,496	-10	-3,474
2827,614	-10	-3,467
2829,738	-9,5	-3,451
2831,855	-8,5	-3,426
2833,973	-7,5	-3,389
2836,097	-7,5	-3,366
2838,215	-6	-3,305
2840,339	-5,5	-3,204
2842,457	-4,5	-3,091
2844,581	-5	-3,09
2846,699	-5	-3,022
2848,822	-4	-2,96
2850,94	-4	-2,87
2853,052	-3,5	-2,765
2855,182	-4	-2,782
2857,3	-3,5	-2,786
2859,418	-4	-2,786
2861,542	-4	-2,9
2863,666	-4	-2,846
2865,784	-3,5	-2,75
2867,913	-4	-2,751
2870,031	-3,5	-2,761
2872,149	-3,5	-2,781
2874,273	-3	-2,79
2876,391	-3,5	-2,821
2878,515	-4	-2,83
2880,639	-4	-2,848
2882,757	-3,5	-2,715
2884,874	-3	-2,603
2887,004	-3	-2,547
2889,122	-3	-2,53
2891,24	-2,5	-2,433
2893,364	-3	-2,383
2895,482	-2,5	-2,415
2897,606	-2,5	-2,353
2899,73	-2,5	-2,4
2901,847	-2,5	-2,415
2903,977	-2,5	-2,411
2906,095	-2,5	-2,422
2908,219	-3	-2,45
2910,331	-3	-2,448
2912,449	-2,5	-2,45
2914,573	-2,5	-2,376
2916,691	-2,5	-2,342
2918,808	-2	-2,22
2920,932	-1,5	-2,005
2923,05	-1,5	-1,898
2925,168	-1	-1,67
2927,304	-1	-1,663
2929,422	-1	-1,531
2931,54	-1	-1,46
2933,664	-0,5	-1,309
2935,782	-0,5	-1,171
2937,899	-0,5	-1,101
2940,023	-0,5	-1,02
2942,141	0	-0,951
2944,259	0,5	-0,747
2946,383	1	-0,692
2948,501	1	-0,692
2950,625	1,5	-0,668
2952,749	1,5	-0,581
2954,866	3	-0,468
2956,984	3,5	-0,421
2959,108	3,5	-0,343
2961,226	4	-0,239
2963,35	4	-0,28
2965,474	4	-0,3
2967,592	4	-0,201
2969,716	4	-0,187
2971,845	4	-0,189
2973,963	4	-0,164
2976,087	4	-0,077
2978,211	4	-0,058
2980,329	4	-0,018
2982,447	4	0
2984,571	4	0
2986,689	4	-0,001
2988,806	4	-0,001
2990,924	4	-0,001
2993,042	4	-0,001
2995,16	4	-0,001
2997,278	4	-0,001
2999,408	4	-0,001
3001,526	4	-0,001
3003,638	4,5	-0,002
3005,762	4	-0,002
3007,879	4	-0,002
3009,997	4,5	-0,002
3012,121	4	-0,002
3014,239	4	-0,003
3016,363	4	-0,004
3018,481	4	-0,004
3020,599	4	-0,004
3022,723	4	-0,004
3024,846	4	-0,004
3026,964	4	-0,004
3029,088	4	-0,004
3031,212	4	-0,004
3033,336	4	-0,003
3035,454	4	-0,002
3037,572	4	-0,002
3039,696	4	-0,002
3041,819	4	-0,002
3043,937	4	-0,001
3046,061	4	-0,001
3048,179	4	-0,002
3050,297	4	-0,002
3052,427	4	-0,002
3054,545	4	-0,002
3056,663	4	-0,002
3058,786	4	-0,002
3060,904	4	-0,002
3063,022	4	-0,002
3065,152	4	-0,002
3067,27	4	-0,002
3069,388	4	-0,001
3071,512	4	-0,001
3073,642	4	-0,001
3075,76	4	-0,001
3077,883	4	-0,001
3080,001	4	0
3082,119	4	0
3084,243	4	-0,009
3086,361	4	-0,001
3088,479	4	-0,001
3090,603	4	-0,001
3092,721	4	-0,001
3094,85	4	-0,001
3096,968	4	-0,001
3099,086	4	-0,001
3101,204	4	-0,001
3103,322	4	-0,001
3105,446	4	-0,001
3107,558	4	-0,001
3109,676	4	-0,001
3111,799	4	0
3113,917	4	-0,001
3116,041	4	-0,001
3118,165	4	-0,001
3120,283	4	-0,001
3122,401	4	-0,002
3124,525	4	-0,001
3126,655	4	-0,001
3128,772	4	-0,001
3130,896	4	-0,001
3133,02	3,5	-0,001
3135,138	4	-0,001
3137,256	4	-0,001
3139,38	4	-0,001
3141,498	4	-0,001
3143,616	4	-0,001
3145,74	4	-0,001
3147,863	4	0
3149,981	4	-0,001
3152,111	4	-0,001
3154,229	4	-0,001
3156,347	4	-0,001
3158,465	4	-0,001
3160,583	4	0
3162,713	4	-0,031
3164,825	4	-0,088
3166,954	4	-0,096
3169,072	4	-0,046
3171,19	4	-0,064
3173,314	4	-0,082
3175,408	4	0