File: Cycling_tests/com_TC/entrada/_6.txt
Time (s)	Load (N)	Displacement (mm)
0	0	-0,029
2,171	1	0
4,403	1	-0,294
6,569	1,5	-0,263
8,729	1,5	-0,32
10,888	1,5	-0,305
13,048	1,5	-0,286
15,208	2	-0,223
17,368	2	-0,158
19,528	2	-0,137
21,688	2	-0,129
23,848	2	-0,136
26,008	2	-0,174
28,174	2	-0,236
30,333	2	-0,292
32,499	2	-0,254
34,659	1,5	-0,322
36,819	0	-0,474
38,979	0	-0,508
41,139	0	-0,543
43,299	-1,5	-0,657
45,459	-2,5	-0,738
47,624	-4	-0,888
49,784	-5	-0,97
51,95	-4,5	-0,954
54,116	-6,5	-1,082
56,276	-6	-1,074
58,436	-7,5	-1,178
60,602	-8	-1,364
62,768	-9	-1,508
64,933	-10,5	-1,588
67,099	-10,5	-1,657
69,259	-10,5	-1,622
71,419	-11	-1,662
73,585	-11	-1,715
75,751	-12	-1,827
77,918	-13	-1,907
80,083	-13,5	-1,988
82,248	-14,5	-2,1
84,414	-16	-2,18
86,58	-16,5	-2,26
88,747	-17,5	-2,388
90,918	-19,5	-2,514
93,09	-21	-2,752
95,256	-23	-2,88
97,416	-24	-3,005
99,575	-25,5	-3,14
101,741	-26	-3,219
103,901	-27	-3,268
106,067	-27	-3,32
108,227	-27,5	-3,327
110,393	-29	-3,362
112,553	-29,5	-3,374
114,713	-29	-3,366
116,884	-30	-3,434
119,044	-31	-3,45
121,21	-31,5	-3,46
123,37	-31,5	-3,465
125,548	-31,5	-3,482
127,708	-32	-3,481
129,88	-32	-3,489
132,04	-32	-3,493
134,211	-32,5	-3,495
136,377	-32,5	-3,497
138,549	-32,5	-3,497
140,721	-32	-3,498
142,893	-32,5	-3,499
145,053	-32,5	-3,499
147,225	-32	-3,499
149,397	-32	-3,499
151,556	-32	-3,5
153,728	-32	-3,452
155,888	-32	-3,44
158,066	-31,5	-3,382
160,244	-32	-3,216
162,41	-31,5	-3,123
164,576	-29	-3,026
166,741	-31,5	-2,984
168,901	-27	-2,875
171,067	-25,5	-2,826
173,233	-29,5	-2,768
175,411	-24	-2,616
177,571	-23,5	-2,64
179,743	-25	-2,53
181,903	-22,5	-2,497
184,069	-21	-2,395
186,234	-20,5	-2,315
188,394	-19,5	-2,207
190,56	-18,5	-2,104
192,738	-19	-1,991
194,91	-15	-1,898
197,082	-15,5	-1,856
199,248	-14	-1,776
201,413	-15	-1,733
203,579	-13,5	-1,67
205,745	-11,5	-1,563
207,911	-11	-1,52
210,071	-12	-1,576
212,237	-10,5	-1,459
214,403	-10,5	-1,4
216,575	-9,5	-1,333
218,741	-9,5	-1,332
220,912	-7,5	-1,189
223,084	-6	-1,112
225,257	-5,5	-0,97
227,428	-4,5	-0,81
229,6	-4	-0,755
231,778	-3,5	-0,657
233,944	-2,5	-0,603
236,115	-2	-0,499
238,287	-1	-0,426
240,453	-1,5	-0,404
242,613	-1,5	-0,371
244,785	-0,5	-0,287
246,963	0	-0,172
249,129	0,5	-0,139
251,295	0,5	-0,118
253,467	1,5	-0,094
255,639	1	-0,093
257,804	1,5	-0,075
259,97	1,5	-0,074
262,142	1,5	-0,064
264,32	2	-0,05
266,492	2,5	-0,042
268,664	2,5	-0,022
270,835	3	-0,016
273,007	3	-0,012
275,167	3	-0,011
277,345	3	-0,007
279,517	3	-0,004
281,689	3,5	-0,004
283,868	3	-0,003
286,039	3	-0,003
288,205	3,5	-0,002
290,377	3,5	-0,001
292,548	3	-0,001
294,726	3	0
296,898	3	-0,026
299,076	3	-0,168
301,242	3	-0,222
303,402	3	-0,281
305,574	2,5	-0,43
307,751	1,5	-0,522
309,923	1,5	-0,59
312,107	-1	-0,749
314,273	-3	-0,962
316,451	-4,5	-1,119
318,629	-6	-1,332
320,801	-6,5	-1,433
322,985	-7,5	-1,591
325,156	-9,5	-1,792
327,334	-10	-1,938
329,512	-11,5	-2,084
331,684	-13,5	-2,272
333,868	-14,5	-2,342
336,046	-16,5	-2,563
338,224	-18	-2,681
340,402	-21	-2,933
342,567	-22,5	-3,109
344,739	-24	-3,208
346,911	-24	-3,294
349,077	-26,5	-3,359
351,243	-27	-3,396
353,421	-28,5	-3,43
355,593	-29	-3,462
357,765	-30	-3,479
359,942	-30	-3,488
362,114	-30	-3,491
364,287	-30	-3,494
366,458	-30	-3,496
368,636	-30	-3,497
370,802	-30	-3,497
372,974	-30	-3,498
375,152	-30	-3,499
377,317	-30	-3,499
379,495	-30	-3,5
381,667	-30	-3,446
383,851	-30	-3,165
386,023	-27,5	-3,023
388,195	-25,5	-2,934
390,361	-25,5	-2,89
392,527	-24,5	-2,751
394,692	-22,5	-2,65
396,871	-21,5	-2,457
399,042	-19,5	-2,299
401,22	-17	-2,1
403,392	-14,5	-1,926
405,57	-13,5	-1,763
407,748	-14	-1,715
409,926	-11	-1,565
412,109	-9,5	-1,425
414,281	-8,5	-1,333
416,453	-7	-1,244
418,619	-5,5	-1,025
420,797	-4,5	-0,928
422,957	-4,5	-0,883
425,141	-3,5	-0,787
427,313	-3	-0,682
429,484	-3	-0,668
431,65	-2	-0,593
433,828	-2	-0,528
436	-1	-0,433
438,172	-0,5	-0,318
440,362	0	-0,174
442,534	1,5	-0,116
444,706	1,5	-0,077
446,877	2,5	-0,056
449,055	3	-0,036
451,239	3	-0,021
453,417	3,5	-0,014
455,589	3,5	-0,007
457,761	3,5	-0,005
459,945	3,5	-0,002
462,117	3,5	-0,002
464,282	3,5	-0,001
466,46	3,5	-0,001
468,632	3,5	0
470,816	3,5	-0,183
472,988	2,5	-0,285
475,16	1,5	-0,499
477,332	0	-0,625
479,504	-0,5	-0,735
481,675	-1	-0,818
483,853	-3,5	-0,969
486,031	-4	-1,082
488,197	-4,5	-1,146
490,369	-5	-1,21
492,553	-5,5	-1,336
494,725	-5,5	-1,474
496,897	-7	-1,611
499,069	-8	-1,7
501,24	-8	-1,783
503,418	-9,5	-1,906
505,59	-11	-2,139
507,762	-11,5	-2,198
509,934	-13,5	-2,339
512,106	-15,5	-2,507
514,272	-16,5	-2,625
516,444	-16	-2,638
518,615	-17	-2,706
520,787	-18,5	-2,785
522,965	-20	-2,892
525,137	-19,5	-2,966
527,309	-21	-3,039
529,475	-21,5	-3,141
531,647	-23	-3,231
533,819	-23,5	-3,283
535,99	-24,5	-3,325
538,162	-24	-3,327
540,334	-25,5	-3,395
542,506	-27,5	-3,431
544,684	-28	-3,456
546,856	-28	-3,466
549,028	-28,5	-3,482
551,194	-28,5	-3,487
553,365	-29	-3,493
555,531	-29	-3,495
557,703	-29	-3,496
559,875	-29	-3,497
562,047	-29	-3,498
564,219	-29	-3,498
566,391	-29	-3,498
568,563	-29	-3,498
570,728	-29	-3,499
572,894	-29	-3,5
575,06	-29	-3,5
577,238	-28,5	-3,344
579,41	-27	-3,086
581,582	-24	-2,895
583,748	-22,5	-2,725
585,919	-21	-2,56
588,091	-19	-2,382
590,263	-15,5	-2,165
592,441	-14	-2,004
594,613	-13	-1,846
596,785	-11	-1,752
598,957	-10,5	-1,625
601,129	-8,5	-1,453
603,301	-7	-1,331
605,472	-5,5	-1,132
607,644	-4,5	-1,026
609,816	-4	-0,895
611,994	-3	-0,695
614,166	-1	-0,421
616,344	0,5	-0,205
618,516	1	-0,119
620,682	2	-0,081
622,853	3	-0,052
625,025	3	-0,042
627,197	3	-0,028
629,369	3,5	-0,022
631,547	3,5	-0,012
633,713	3,5	-0,008
635,891	3,5	-0,004
638,069	3,5	-0,002
640,252	3,5	-0,001
642,424	3,5	0
644,596	3,5	-0,012
646,774	3,5	-0,237
648,946	2	-0,408
651,118	0	-0,53
653,29	-0,5	-0,72
655,462	-3	-0,892
657,633	-3	-1,004
659,805	-4	-1,129
661,977	-5	-1,303
664,149	-5,5	-1,472
666,315	-7	-1,664
668,481	-7	-1,744
670,659	-9	-1,905
672,837	-11,5	-2,141
675,002	-13	-2,301
677,168	-12,5	-2,296
679,34	-15	-2,486
681,512	-15	-2,57
683,684	-17	-2,765
685,856	-19,5	-2,922
688,028	-21	-3,118
690,194	-22,5	-3,177
692,365	-23	-3,268
694,537	-25	-3,36
696,709	-25	-3,423
698,881	-27	-3,442
701,047	-27,5	-3,458
703,219	-26,5	-3,468
705,391	-28	-3,478
707,563	-28	-3,483
709,728	-28	-3,491
711,906	-28	-3,496
714,084	-28	-3,498
716,25	-28,5	-3,498
718,416	-28,5	-3,498
720,594	-28	-3,499
722,766	-28	-3,499
724,938	-28	-3,5
727,103	-28	-3,377
729,275	-27	-3,201
731,447	-27	-3,072
733,619	-25	-2,95
735,791	-23	-2,83
737,957	-21,5	-2,696
740,129	-21,5	-2,613
742,301	-19,5	-2,498
744,478	-17,5	-2,314
746,65	-15	-2,157
748,822	-14,5	-2,015
750,994	-11,5	-1,808
753,166	-10	-1,588
755,338	-8,5	-1,477
757,51	-6,5	-1,346
759,688	-7	-1,211
761,859	-4,5	-1,059
764,031	-3	-0,825
766,209	-3	-0,792
768,375	-3	-0,77
770,553	-2	-0,657
772,731	-2	-0,665
774,903	-3	-0,747
777,075	-2,5	-0,711
779,24	-1,5	-0,55
781,406	-1,5	-0,455
783,572	-0,5	-0,39
785,75	0	-0,26
787,922	0,5	-0,159
790,1	1	-0,138
792,266	2	-0,076
794,432	2,5	-0,079
796,616	3	-0,054
798,787	3	-0,054
800,947	2,5	-0,064
803,119	2,5	-0,058
805,291	3	-0,049
807,469	3	-0,048
809,641	3	-0,033
811,807	3	-0,028
813,978	3,5	-0,024
816,156	3,5	-0,016
818,328	3,5	-0,015
820,512	3,5	-0,012
822,684	3,5	-0,01
824,85	3,5	-0,008
827,016	4	-0,006
829,188	3,5	-0,006
831,365	3,5	-0,004
833,537	3,5	-0,004
835,703	4	-0,003
837,869	3,5	-0,003
840,035	3,5	-0,003
842,207	3,5	-0,002
844,385	3,5	-0,001
846,557	4	-0,001
848,722	3,5	-0,001
850,9	3,5	-0,001
853,072	3,5	-0,001
855,244	3,5	0
857,41	3,5	0
859,576	3,5	0
861,748	3,5	0
863,92	3,5	-0,026
866,086	3,5	-0,146
868,263	3,5	-0,288
870,435	3,5	-0,339
872,607	2,5	-0,44
874,779	2,5	-0,476
876,945	2	-0,465
879,123	1	-0,541
881,289	1,5	-0,515
883,46	1,5	-0,604
885,626	0	-0,652
887,792	0	-0,722
889,964	-1	-0,778
892,136	-1,5	-0,874
894,308	-2,5	-0,972
896,48	-2,5	-1,024
898,652	-3	-1,135
900,824	-4	-1,234
902,995	-4,5	-1,408
905,167	-5	-1,508
907,339	-5,5	-1,591
909,511	-6,5	-1,776
911,683	-7,5	-1,875
913,855	-8,5	-2,022
916,027	-8,5	-1,995
918,187	-8,5	-2,065
920,358	-9,5	-2,176
922,53	-10,5	-2,265
924,708	-12	-2,372
926,88	-13,5	-2,471
929,052	-13	-2,507
931,224	-14,5	-2,602
933,39	-14,5	-2,655
935,562	-16	-2,755
937,739	-17	-2,853
939,905	-17	-2,87
942,077	-17,5	-2,953
944,243	-18	-2,969
946,415	-18	-2,983
948,587	-18,5	-3,008
950,759	-20	-3,108
952,925	-20	-3,141
955,096	-19,5	-3,244
957,274	-22,5	-3,346
959,44	-23,5	-3,359
961,612	-24	-3,406
963,784	-25,5	-3,447
965,962	-26,5	-3,469
968,128	-26,5	-3,47
970,294	-26	-3,47
972,465	-26,5	-3,476
974,637	-26,5	-3,483
976,809	-26,5	-3,484
978,993	-26,5	-3,49
981,165	-26,5	-3,492
983,337	-27	-3,494
985,515	-27	-3,494
987,681	-27	-3,495
989,846	-27	-3,496
992,012	-27	-3,497
994,178	-27	-3,497
996,35	-27	-3,498
998,522	-27	-3,498
1000,688	-27	-3,498
1002,86	-27	-3,497
1005,038	-27	-3,498
1007,203	-27	-3,498
1009,375	-27	-3,499
1011,553	-27	-3,499
1013,725	-27	-3,5
1015,897	-27	-3,475
1018,069	-27	-3,395
1020,241	-26,5	-3,196
1022,413	-23,5	-3,009
1024,584	-22,5	-2,884
1026,75	-23	-2,862
1028,922	-21,5	-2,768
1031,094	-21,5	-2,813
1033,26	-22,5	-2,824
1035,432	-21	-2,756
1037,604	-19,5	-2,592
1039,77	-19	-2,506
1041,942	-18	-2,449
1044,113	-16,5	-2,382
1046,279	-16	-2,338
1048,457	-14,5	-2,172
1050,629	-13	-2,003
1052,795	-10	-1,833
1054,967	-10,5	-1,786
1057,139	-9,5	-1,735
1059,304	-10	-1,761
1061,476	-9,5	-1,725
1063,642	-9,5	-1,698
1065,814	-8	-1,573
1067,98	-7,5	-1,54
1070,158	-6,5	-1,426
1072,33	-6	-1,396
1074,502	-6,5	-1,383
1076,667	-6	-1,334
1078,839	-5	-1,224
1081,005	-4,5	-1,127
1083,177	-3,5	-1,017
1085,343	-3,5	-0,964
1087,515	-2,5	-0,849
1089,687	-2,5	-0,738
1091,853	-1,5	-0,689
1094,024	-1,5	-0,59
1096,196	0	-0,426
1098,368	0	-0,328
1100,534	0	-0,311
1102,706	0,5	-0,255
1104,878	1	-0,184
1107,05	1,5	-0,156
1109,216	1,5	-0,126
1111,387	3	-0,071
1113,553	3	-0,06
1115,725	3	-0,042
1117,897	3,5	-0,029
1120,069	3,5	-0,019
1122,235	3,5	-0,014
1124,401	3,5	-0,009
1126,573	3,5	-0,006
1128,745	3,5	-0,005
1130,922	3,5	-0,002
1133,088	3,5	-0,002
1135,26	3,5	-0,001
1137,432	3,5	-0,001
1139,604	3,5	0
1141,764	3,5	0
1143,942	3,5	-0,12
1146,113	3,5	-0,13
1148,279	3,5	-0,125
1150,451	3,5	-0,205
1152,623	3,5	-0,28
1154,795	3	-0,306
1156,967	2,5	-0,331
1159,133	2	-0,438
1161,311	0,5	-0,547
1163,482	0	-0,651
1165,654	-1,5	-0,816
1167,826	-3	-0,962
1169,992	-3,5	-1,158
1172,164	-4	-1,227
1174,336	-4,5	-1,386
1176,502	-4,5	-1,488
1178,668	-6	-1,588
1180,833	-5,5	-1,599
1183,005	-6,5	-1,736
1185,183	-8	-1,909
1187,349	-8,5	-1,993
1189,515	-8,5	-2,032
1191,681	-9,5	-2,175
1193,859	-10,5	-2,278
1196,025	-12	-2,353
1198,197	-12,5	-2,496
1200,368	-13,5	-2,546
1202,534	-14	-2,6
1204,706	-15	-2,672
1206,872	-15	-2,742
1209,044	-16	-2,789
1211,216	-16,5	-2,888
1213,382	-16	-2,972
1215,554	-19,5	-3,132
1217,719	-20,5	-3,248
1219,891	-22	-3,356
1222,057	-23	-3,4
1224,229	-24	-3,418
1226,401	-24,5	-3,425
1228,567	-25	-3,445
1230,739	-25	-3,46
1232,911	-25,5	-3,472
1235,077	-26	-3,481
1237,248	-26,5	-3,486
1239,42	-26,5	-3,492
1241,592	-26,5	-3,495
1243,758	-26,5	-3,497
1245,93	-26,5	-3,498
1248,096	-26,5	-3,498
1250,262	-26,5	-3,498
1252,428	-26,5	-3,499
1254,599	-26,5	-3,5
1256,765	-26,5	-3,5
1258,943	-26,5	-3,343
1261,109	-26,5	-3,19
1263,281	-24,5	-3,05
1265,453	-23,5	-2,939
1267,619	-21,5	-2,827
1269,79	-21	-2,7
1271,956	-20	-2,588
1274,128	-19	-2,548
1276,3	-17	-2,448
1278,472	-15,5	-2,284
1280,638	-14,5	-2,253
1282,804	-14,5	-2,209
1284,97	-13,5	-2,119
1287,135	-12	-2,049
1289,301	-11,5	-1,948
1291,473	-10,5	-1,838
1293,639	-9	-1,758
1295,811	-8	-1,595
1297,977	-7,5	-1,604
1300,149	-8,5	-1,537
1302,321	-6	-1,432
1304,486	-6,5	-1,437
1306,652	-6	-1,389
1308,824	-5	-1,209
1310,996	-4	-1,101
1313,168	-3,5	-0,974
1315,34	-2,5	-0,853
1317,506	-2	-0,704
1319,684	-1,5	-0,606
1321,849	-1,5	-0,584
1324,021	-0,5	-0,505
1326,193	0	-0,402
1328,359	0	-0,395
1330,525	0	-0,337
1332,697	0	-0,271
1334,863	0,5	-0,221
1337,035	1	-0,186
1339,2	1,5	-0,14
1341,372	2	-0,098
1343,538	2,5	-0,08
1345,71	3	-0,056
1347,87	2,5	-0,062
1350,042	3	-0,052
1352,214	3,5	-0,045
1354,38	3	-0,042
1356,545	3,5	-0,035
1358,717	3,5	-0,028
1360,883	3,5	-0,021
1363,055	3,5	-0,02
1365,215	3,5	-0,019
1367,387	3,5	-0,016
1369,553	3,5	-0,015
1371,719	3,5	-0,012
1373,884	3,5	-0,013
1376,05	4	-0,009
1378,216	4	-0,008
1380,388	4	-0,005
1382,554	3,5	-0,005
1384,726	4	-0,004
1386,892	4	-0,003
1389,058	4	-0,003
1391,229	4	-0,003
1393,395	4	-0,002
1395,567	4	-0,002
1397,739	3,5	-0,002
1399,911	3,5	-0,001
1402,083	3,5	-0,001
1404,255	3,5	-0,001
1406,427	3,5	-0,001
1408,586	3,5	-0,001
1410,752	3,5	-0,001
1412,918	3,5	0
1415,09	3,5	0
1417,256	3,5	0
1419,428	3,5	0
1421,6	3,5	-0,064
1423,772	3,5	-0,186
1425,938	3,5	-0,216
1428,109	3,5	-0,29
1430,275	3,5	-0,35
1432,447	1,5	-0,471
1434,613	1,5	-0,552
1436,785	0,5	-0,657
1438,951	-1	-0,77
1441,117	-1	-0,817
1443,283	-1,5	-0,902
1445,454	-2,5	-1,008
1447,62	-2,5	-1,066
1449,786	-3	-1,142
1451,952	-3	-1,147
1454,124	-3	-1,268
1456,296	-3,5	-1,272
1458,468	-4,5	-1,436
1460,634	-4,5	-1,483
1462,805	-5,5	-1,657
1464,971	-6	-1,796
1467,143	-6,5	-1,916
1469,309	-7,5	-1,938
1471,475	-7,5	-1,986
1473,653	-8,5	-2,148
1475,813	-8	-2,187
1477,985	-10,5	-2,286
1480,156	-11	-2,429
1482,328	-12,5	-2,518
1484,494	-12	-2,528
1486,666	-13,5	-2,617
1488,838	-14	-2,755
1491,016	-15,5	-2,885
1493,182	-15,5	-2,954
1495,354	-17	-3,026
1497,519	-17,5	-3,08
1499,697	-19	-3,188
1501,863	-20	-3,25
1504,041	-21	-3,339
1506,207	-22,5	-3,378
1508,373	-23	-3,402
1510,545	-24	-3,432
1512,717	-24,5	-3,451
1514,888	-24,5	-3,463
1517,054	-24,5	-3,468
1519,226	-25	-3,478
1521,392	-24,5	-3,479
1523,564	-25	-3,483
1525,73	-25,5	-3,484
1527,908	-25,5	-3,491
1530,074	-25	-3,492
1532,239	-25,5	-3,493
1534,411	-25,5	-3,494
1536,577	-25	-3,494
1538,749	-25,5	-3,496
1540,915	-25,5	-3,496
1543,087	-25,5	-3,497
1545,253	-25	-3,497
1547,425	-25,5	-3,498
1549,59	-25	-3,498
1551,762	-25	-3,499
1553,934	-25	-3,499
1556,1	-25	-3,499
1558,272	-25	-3,499
1560,438	-25,5	-3,5
1562,61	-25	-3,5
1564,776	-25	-3,489
1566,935	-25	-3,489
1569,101	-25	-3,414
1571,273	-25	-3,31
1573,439	-24	-3,182
1575,611	-24	-3,099
1577,777	-22,5	-2,933
1579,943	-20,5	-2,848
1582,109	-20	-2,768
1584,28	-19	-2,705
1586,452	-19	-2,679
1588,624	-17,5	-2,59
1590,796	-17,5	-2,534
1592,962	-15	-2,438
1595,134	-15	-2,38
1597,3	-14,5	-2,374
1599,478	-14	-2,336
1601,643	-13,5	-2,278
1603,809	-12,5	-2,175
1605,981	-10	-2,002
1608,147	-10,5	-1,986
1610,319	-9	-1,908
1612,485	-9	-1,864
1614,651	-8,5	-1,816
1616,811	-8,5	-1,777
1618,982	-7,5	-1,72
1621,148	-7,5	-1,688
1623,32	-7	-1,598
1625,498	-6	-1,538
1627,664	-5,5	-1,453
1629,836	-4	-1,232
1632,008	-3,5	-1,163
1634,18	-3	-1,071
1636,351	-3	-1,007
1638,523	-2	-0,897
1640,689	-2	-0,816
1642,855	-1,5	-0,763
1645,015	-1	-0,735
1647,181	-1,5	-0,72
1649,347	-1,5	-0,684
1651,513	-0,5	-0,648
1653,685	-1,5	-0,693
1655,85	-1	-0,628
1658,028	0	-0,498
1660,2	0	-0,488
1662,372	0	-0,369
1664,544	0	-0,323
1666,716	1	-0,269
1668,882	1	-0,251
1671,059	1,5	-0,162
1673,225	2	-0,134
1675,391	2	-0,126
1677,563	2,5	-0,107
1679,729	2	-0,11
1681,901	3	-0,08
1684,067	3	-0,049
1686,233	3,5	-0,04
1688,398	3,5	-0,037
1690,564	3,5	-0,033
1692,736	3,5	-0,029
1694,902	3,5	-0,029
1697,074	3,5	-0,021
1699,24	3,5	-0,024
1701,412	4	-0,019
1703,578	3,5	-0,017
1705,744	4	-0,017
1707,909	4	-0,021
1710,081	4	-0,018
1712,253	4	-0,012
1714,419	3,5	-0,011
1716,597	4	-0,008
1718,763	4	-0,007
1720,929	4	-0,006
1723,1	4	-0,006
1725,266	4	-0,005
1727,438	4	-0,004
1729,604	4	-0,003
1731,77	4	-0,003
1733,936	4	-0,002
1736,102	3,5	-0,002
1738,274	3,5	-0,002
1740,44	4	-0,002
1742,611	4	-0,002
1744,777	4	-0,002
1746,943	4	-0,002
1749,121	4	-0,001
1751,293	4	-0,001
1753,465	4	-0,001
1755,637	3,5	0
1757,815	4	0
1759,98	4	0
1762,146	4	-0,009
1764,312	3,5	-0,156
1766,478	4	-0,14
1768,65	4	-0,228
1770,81	4	-0,242
1772,976	3	-0,398
1775,142	3	-0,446
1777,307	2,5	-0,457
1779,473	2	-0,49
1781,639	2,5	-0,464
1783,811	2	-0,478
1785,977	2	-0,537
1788,149	1	-0,599
1790,315	0	-0,727
1792,481	0	-0,782
1794,652	-1,5	-0,871
1796,818	-1	-0,881
1798,984	-1,5	-0,935
1801,15	-1,5	-0,966
1803,316	-1,5	-0,962
1805,488	-1,5	-0,96
1807,648	-2	-1,021
1809,82	-2,5	-1,152
1811,986	-2,5	-1,152
1814,157	-2,5	-1,167
1816,323	-3	-1,167
1818,489	-3	-1,28
1820,661	-3	-1,304
1822,827	-3,5	-1,38
1824,999	-3,5	-1,521
1827,165	-4,5	-1,559
1829,336	-4,5	-1,654
1831,502	-5	-1,717
1833,668	-4,5	-1,675
1835,84	-4,5	-1,742
1838,006	-5	-1,754
1840,184	-5,5	-1,83
1842,35	-5,5	-1,83
1844,522	-6	-1,899
1846,687	-6	-1,931
1848,853	-6,5	-2,042
1851,031	-7	-2,087
1853,197	-6,5	-2,104
1855,363	-7	-2,112
1857,535	-7,5	-2,171
1859,701	-7,5	-2,176
1861,867	-8	-2,273
1864,038	-8,5	-2,377
1866,21	-8,5	-2,312
1868,382	-9	-2,343
1870,548	-8,5	-2,322
1872,72	-8,5	-2,283
1874,886	-8,5	-2,327
1877,058	-8,5	-2,346
1879,224	-9	-2,367
1881,389	-9	-2,437
1883,561	-10	-2,473
1885,727	-10,5	-2,57
1887,899	-11	-2,616
1890,065	-10,5	-2,59
1892,237	-10	-2,598
1894,403	-10,5	-2,599
1896,569	-9	-2,392
1898,74	-9,5	-2,432
1900,906	-9,5	-2,492
1903,072	-9	-2,444
1905,238	-9,5	-2,439
1907,41	-10	-2,544
1909,582	-10,5	-2,621
1911,748	-12	-2,787
1913,92	-13	-2,871
1916,086	-13,5	-2,987
1918,251	-14,5	-3,058
1920,429	-15,5	-3,192
1922,595	-15	-3,198
1924,767	-15,5	-3,216
1926,933	-15,5	-3,244
1929,105	-16,5	-3,268
1931,277	-18	-3,312
1933,442	-17,5	-3,306
1935,62	-19,5	-3,387
1937,786	-20	-3,42
1939,964	-20	-3,426
1942,13	-19,5	-3,423
1944,296	-20,5	-3,441
1946,468	-21	-3,463
1948,64	-21,5	-3,477
1950,811	-21,5	-3,486
1952,977	-21,5	-3,489
1955,143	-21,5	-3,488
1957,315	-21,5	-3,49
1959,487	-21,5	-3,493
1961,653	-21,5	-3,495
1963,819	-21,5	-3,497
1965,985	-21,5	-3,498
1968,163	-21,5	-3,498
1970,323	-21,5	-3,499
1972,494	-21,5	-3,499
1974,654	-21	-3,499
1976,82	-21	-3,5
1978,998	-21	-3,483
1981,164	-21	-3,395
1983,336	-20,5	-3,222
1985,502	-20	-3,129
1987,667	-19,5	-3,044
1989,839	-19	-3,034
1992,005	-18	-2,954
1994,177	-15	-2,817
1996,343	-13,5	-2,658
1998,515	-12	-2,585
2000,681	-11,5	-2,488
2002,847	-11	-2,445
2005,018	-9,5	-2,335
2007,184	-8,5	-2,261
2009,35	-7,5	-2,218
2011,516	-7	-2,105
2013,682	-6	-2,009
2015,854	-5	-1,873
2018,02	-4,5	-1,815
2020,198	-4,5	-1,764
2022,363	-4	-1,679
2024,535	-3	-1,585
2026,701	-3	-1,525
2028,867	-3	-1,435
2031,039	-2	-1,293
2033,205	-1,5	-1,239
2035,365	-1,5	-1,258
2037,537	-0,5	-1,095
2039,709	-0,5	-1,092
2041,874	-0,5	-1,085
2044,046	-0,5	-1,039
2046,212	-0,5	-1,059
2048,384	0	-0,966
2050,55	0	-0,902
2052,722	0	-0,797
2054,894	0,5	-0,617
2057,059	1	-0,409
2059,237	2	-0,202
2061,403	1,5	-0,259
2063,575	2,5	-0,14
2065,741	3	-0,088
2067,913	3,5	-0,057
2070,079	4	-0,035
2072,245	4	-0,033
2074,417	4	-0,028
2076,582	4	-0,026
2078,754	4	-0,018
2080,92	4	-0,018
2083,098	4	-0,011
2085,27	4	-0,007
2087,436	4	-0,006
2089,602	4	-0,007
2091,773	4	-0,005
2093,939	4	-0,004
2096,111	4,5	-0,002
2098,277	4	-0,002
2100,455	4	-0,002
2102,621	4	-0,002
2104,793	4	-0,002
2106,965	4	-0,002
2109,131	4	-0,001
2111,302	4	-0,001
2113,468	4	-0,001
2115,634	4	0
2117,806	4	0
2119,972	4	-0,057
2122,144	4	-0,022
2124,31	4	-0,174
2126,476	3,5	-0,334
2128,653	1	-0,603
2130,819	-0,5	-0,864
2132,991	-0,5	-0,901
2135,163	-1,5	-1
2137,329	-2	-1,24
2139,501	-2,5	-1,461
2141,667	-3	-1,535
2143,832	-3	-1,578
2145,998	-2,5	-1,457
2148,164	-3	-1,569
2150,336	-3	-1,62
2152,502	-3,5	-1,674
2154,674	-3	-1,773
2156,84	-3	-1,72
2159,006	-3,5	-1,8
2161,177	-4	-1,932
2163,349	-4,5	-2,116
2165,521	-5,5	-2,301
2167,687	-6	-2,44
2169,853	-6,5	-2,631
2172,031	-9	-2,926
2174,197	-10	-3,107
2176,369	-11	-3,211
2178,535	-11,5	-3,283
2180,712	-13,5	-3,387
2182,878	-13,5	-3,406
2185,044	-15	-3,447
2187,216	-15	-3,468
2189,382	-15	-3,486
2191,554	-15,5	-3,491
2193,72	-15	-3,494
2195,885	-15	-3,497
2198,057	-15	-3,498
2200,223	-15	-3,499
2202,389	-15	-3,499
2204,561	-15	-3,496
2206,733	-15	-3,332
2208,905	-15	-3,252
2211,077	-15	-3,114
2213,249	-13,5	-3,003
2215,414	-12	-2,885
2217,58	-9,5	-2,719
2219,752	-8	-2,54
2221,918	-6	-2,418
2224,096	-5,5	-2,15
2226,262	-4	-2,006
2228,428	-4	-1,948
2230,6	-2,5	-1,714
2232,771	-2	-1,54
2234,937	-1	-1,424
2237,109	-0,5	-1,239
2239,275	-0,5	-1,073
2241,447	0	-0,873
2243,613	0	-0,808
2245,785	0	-0,698
2247,963	0,5	-0,538
2250,128	1	-0,368
2252,3	2	-0,159
2254,466	1,5	-0,207
2256,644	2,5	-0,101
2258,816	3	-0,106
2260,982	3	-0,095
2263,154	3	-0,085
2265,326	3,5	-0,063
2267,497	3,5	-0,04
2269,663	3,5	-0,026
2271,835	4	-0,018
2274,013	4	-0,009
2276,179	4	-0,006
2278,351	4	-0,004
2280,517	4	-0,004
2282,689	4	-0,003
2284,854	4	-0,002
2287,02	4	-0,002
2289,192	4	-0,001
2291,358	4	-0,001
2293,536	4	-0,001
2295,708	4	-0,002
2297,874	4	-0,002
2300,046	4	-0,001
2302,211	4	-0,001
2304,383	4	0
2306,555	4	0
2308,721	4	0
2310,893	4	-0,035
2313,059	4	-0,097
2315,231	3,5	-0,306
2317,397	2,5	-0,441
2319,575	1	-0,597
2321,74	2	-0,556
2323,906	1	-0,672
2326,078	0	-0,884
2328,25	-1	-1,094
2330,416	-1	-1,126
2332,588	-1,5	-1,338
2334,754	-2	-1,428
2336,92	-2	-1,503
2339,085	-2	-1,573
2341,251	-3	-1,771
2343,423	-3	-1,859
2345,589	-3,5	-2,056
2347,761	-3,5	-2,172
2349,927	-4	-2,32
2352,099	-4,5	-2,487
2354,264	-4,5	-2,469
2356,43	-5	-2,426
2358,602	-4,5	-2,484
2360,768	-5,5	-2,59
2362,94	-5,5	-2,684
2365,106	-6	-2,796
2367,272	-6,5	-2,845
2369,444	-7,5	-3,024
2371,609	-9	-3,173
2373,781	-10	-3,324
2375,947	-10,5	-3,332
2378,113	-11,5	-3,398
2380,285	-12	-3,437
2382,451	-13	-3,457
2384,617	-13	-3,468
2386,789	-13,5	-3,479
2388,949	-13,5	-3,478
2391,126	-13,5	-3,488
2393,286	-13,5	-3,489
2395,458	-13,5	-3,494
2397,636	-13	-3,497
2399,808	-13	-3,497
2401,98	-13	-3,498
2404,146	-13	-3,499
2406,317	-13	-3,499
2408,483	-13	-3,499
2410,649	-13	-3,499
2412,815	-13	-3,498
2414,987	-13	-3,498
2417,153	-13	-3,499
2419,331	-13	-3,498
2421,503	-12,5	-3,498
2423,674	-12,5	-3,498
2425,84	-13	-3,496
2428,018	-13	-3,497
2430,184	-13	-3,497
2432,35	-13	-3,496
2434,522	-13	-3,495
2436,688	-13	-3,494
2438,86	-13	-3,494
2441,026	-13	-3,495
2443,197	-13	-3,494
2445,369	-13	-3,492
2447,535	-13	-3,488
2449,707	-13	-3,486
2451,873	-12,5	-3,477
2454,039	-12,5	-3,474
2456,211	-12,5	-3,474
2458,377	-12,5	-3,482
2460,548	-13	-3,491
2462,726	-13	-3,494
2464,892	-13	-3,495
2467,064	-12,5	-3,494
2469,23	-13	-3,496
2471,402	-13	-3,495
2473,568	-13	-3,494
2475,734	-13	-3,494
2477,905	-13	-3,495
2480,071	-13	-3,495
2482,243	-13	-3,497
2484,409	-12,5	-3,496
2486,575	-12,5	-3,496
2488,753	-13	-3,495
2490,919	-13	-3,496
2493,091	-12,5	-3,497
2495,256	-12,5	-3,497
2497,422	-13	-3,498
2499,594	-13	-3,498
2501,76	-12,5	-3,498
2503,938	-12,5	-3,498
2506,104	-12,5	-3,498
2508,27	-12,5	-3,498
2510,442	-12,5	-3,498
2512,607	-12,5	-3,497
2514,773	-12,5	-3,497
2516,939	-12,5	-3,496
2519,105	-12,5	-3,495
2521,271	-12,5	-3,494
2523,44	-12,5	-3,491
2525,597	-12,5	-3,486
2527,775	-12,5	-3,492
2529,941	-12,5	-3,492
2532,112	-12,5	-3,49
2534,284	-12,5	-3,489
2536,462	-12,5	-3,491
2538,628	-12,5	-3,494
2540,794	-12	-3,495
2542,972	-12,5	-3,495
2545,137	-12,5	-3,492
2547,309	-12,5	-3,491
2549,475	-12,5	-3,493
2551,641	-12	-3,492
2553,813	-12,5	-3,494
2555,979	-12,5	-3,496
2558,145	-12	-3,496
2560,317	-12	-3,497
2562,483	-12	-3,496
2564,654	-12	-3,497
2566,826	-12	-3,498
2568,992	-12	-3,499
2571,164	-12	-3,499
2573,33	-12	-3,5
2575,502	-12	-3,496
2577,674	-11,5	-3,321
2579,84	-10,5	-3,133
2582,011	-10,5	-3,074
2584,177	-7	-2,888
2586,349	-6,5	-2,783
2588,515	-5	-2,649
2590,681	-5	-2,601
2592,853	-4	-2,485
2595,019	-4	-2,475
2597,191	-3	-2,274
2599,356	-2,5	-2,168
2601,522	-2,5	-2,06
2603,694	-1	-1,838
2605,86	-0,5	-1,668
2608,026	-0,5	-1,423
2610,204	0	-1,167
2612,37	0	-0,97
2614,542	0	-0,812
2616,707	0,5	-0,699
2618,885	1	-0,548
2621,051	1	-0,506
2623,223	1	-0,412
2625,395	1,5	-0,247
2627,561	1,5	-0,176
2629,727	2	-0,115
2631,893	3	-0,069
2634,058	3,5	-0,047
2636,23	4	-0,025
2638,396	4	-0,017
2640,568	4	-0,01
2642,74	4	-0,006
2644,918	4	-0,002
2647,09	4	-0,001
2649,256	4	0
2651,421	4	-0,046
2653,593	4	-0,126
2655,759	3,5	-0,302
2657,931	3	-0,343
2660,103	1	-0,626
2662,269	0	-0,72
2664,441	0	-0,762
2666,607	0	-0,82
2668,778	-0,5	-0,925
2670,944	-0,5	-1,075
2673,11	-1,5	-1,346
2675,282	-1,5	-1,509
2677,448	-1,5	-1,674
2679,626	-1,5	-1,814
2681,792	-2	-1,856
2683,958	-2	-1,896
2686,13	-2,5	-1,979
2688,295	-2,5	-2,117
2690,467	-3	-2,154
2692,639	-2,5	-2,136
2694,805	-2,5	-2,157
2696,977	-2,5	-2,161
2699,143	-2,5	-2,177
2701,309	-3	-2,401
2703,481	-3	-2,219
2705,646	-3	-2,155
2707,824	-3	-2,327
2709,99	-3,5	-2,53
2712,156	-3	-2,402
2714,328	-3,5	-2,528
2716,494	-3,5	-2,609
2718,666	-4	-2,746
2720,831	-4	-2,762
2723,003	-4	-2,803
2725,169	-5	-2,947
2727,335	-5	-3,017
2729,507	-6	-3,147
2731,673	-7	-3,287
2733,839	-7	-3,325
2736,011	-8	-3,37
2738,177	-9,5	-3,442
2740,348	-10,5	-3,474
2742,514	-10,5	-3,479
2744,68	-11	-3,491
2746,852	-11	-3,495
2749,024	-11,5	-3,497
2751,196	-11	-3,498
2753,368	-11	-3,498
2755,534	-11	-3,499
2757,705	-11	-3,499
2759,877	-11	-3,5
2762,043	-11	-3,5
2764,221	-11	-3,201
2766,387	-8,5	-2,985
2768,553	-7	-2,839
2770,725	-6	-2,806
2772,897	-6	-2,734
2775,074	-5	-2,663
2777,24	-5	-2,624
2779,406	-4,5	-2,64
2781,578	-4	-2,434
2783,75	-3	-2,271
2785,922	-1,5	-2,038
2788,088	-1	-1,922
2790,254	-1	-1,794
2792,419	-1	-1,762
2794,585	-0,5	-1,655
2796,757	-0,5	-1,528
2798,923	-0,5	-1,486
2801,089	0	-1,416
2803,261	0	-1,285
2805,427	0	-1,401
2807,593	-0,5	-1,305
2809,77	0	-1
2811,942	0,5	-0,822
2814,114	0,5	-0,717
2816,274	0,5	-0,832
2818,44	0,5	-0,985
2820,612	0	-1,035
2822,784	0	-1,048
2824,962	0	-1,066
2827,127	0	-1,204
2829,293	0	-1,241
2831,465	0	-1,215
2833,631	0	-1,254
2835,797	0	-1,13
2837,969	0	-1,206
2840,135	0	-1,232
2842,307	0	-1,308
2844,479	0	-1,404
2846,644	0	-1,511
2848,816	0	-1,549
2850,982	-0,5	-1,678
2853,154	-0,5	-1,754
2855,32	-1	-1,822
2857,492	-1	-1,893
2859,664	-1	-1,932
2861,835	-1	-1,933
2864,001	-1	-1,948
2866,167	-1,5	-2,012
2868,333	-1,5	-2,108
2870,499	-1,5	-2,186
2872,671	-2	-2,156
2874,837	-1,5	-2,193
2877,009	-1,5	-2,041
2879,174	-1,5	-2,04
2881,346	-1,5	-1,984
2883,512	-1,5	-2,025
2885,678	-1,5	-2,073
2887,85	-1,5	-1,99
2890,016	-1	-2,058
2892,176	-1,5	-2,082
2894,348	-1,5	-2,063
2896,513	-2	-2,184
2898,685	-1,5	-2,128
2900,851	-1,5	-2,09
2903,023	-1	-2,011
2905,189	-1	-1,963
2907,349	-1,5	-2,04
2909,515	-1	-2,073
2911,687	-2	-2,207
2913,852	-1,5	-2,217
2916,018	-1,5	-2,217
2918,19	-2,5	-2,266
2920,35	-2,5	-2,274
2922,522	-3	-2,388
2924,688	-3,5	-2,515
2926,86	-4,5	-2,639
2929,032	-4	-2,598
2931,203	-4	-2,567
2933,369	-4	-2,548
2935,541	-4	-2,622
2937,707	-4,5	-2,621
2939,885	-4,5	-2,683
2942,051	-4,5	-2,7
2944,223	-5,5	-2,806
2946,389	-7	-2,907
2948,554	-6	-2,912
2950,726	-8	-2,994
2952,892	-6	-2,903
2955,058	-6,5	-2,914
2957,236	-6	-2,874
2959,402	-7	-2,921
2961,568	-6,5	-2,857
2963,74	-5,5	-2,832
2965,905	-7,5	-2,928
2968,077	-6,5	-2,924
2970,249	-4,5	-2,782
2972,415	-4,5	-2,702
2974,587	-4,5	-2,64
2976,753	-4,5	-2,532
2978,919	-3,5	-2,548
2981,091	-3,5	-2,571
2983,257	-4	-2,624
2985,422	-4	-2,602
2987,6	-3,5	-2,569
2989,766	-4,5	-2,669
2991,932	-4	-2,669
2994,104	-5	-2,744
2996,276	-4,5	-2,688
2998,442	-4,5	-2,699
3000,62	-4	-2,621
3002,785	-3,5	-2,564
3004,951	-3,5	-2,642
3007,117	-4	-2,668
3009,283	-4	-2,657
3011,455	-4	-2,675
3013,621	-4	-2,61
3015,799	-3	-2,486
3017,965	-3	-2,433
3020,13	-2	-2,359
3022,302	-2,5	-2,3
3024,468	-2	-2,254
3026,634	-2	-2,237
3028,806	-1,5	-2,211
3030,972	-1,5	-2,158
3033,138	-1,5	-2,157
3035,31	-1	-2,132
3037,475	-1,5	-2,184
3039,653	-1,5	-2,145
3041,819	-1	-2,082
3043,985	-1	-2,161
3046,157	-1	-2,13
3048,323	-1,5	-2,124
3050,489	-1,5	-2,12
3052,661	-1,5	-2,148
3054,826	-1,5	-2,238
3056,992	-2,5	-2,264
3059,164	-2	-2,33
3061,33	-2	-2,27
3063,496	-2	-2,248
3065,668	-2	-2,309
3067,834	-1,5	-2,212
3070	-2	-2,276
3072,171	-2,5	-2,346
3074,337	-2,5	-2,367
3076,527	-1,5	-2,22
3078,693	-2	-2,268
3080,859	-2	-2,278
3083,031	-1,5	-2,253
3085,197	-2	-2,326
3087,363	-2	-2,331
3089,528	-3	-2,454
3091,7	-3	-2,514
3093,866	-3	-2,524
3096,038	-3	-2,514
3098,204	-3	-2,564
3100,382	-3	-2,513
3102,548	-3	-2,587
3104,72	-3,5	-2,589
3106,891	-3,5	-2,616
3109,057	-4	-2,67
3111,223	-3,5	-2,643
3113,395	-3,5	-2,638
3115,561	-3	-2,606
3117,727	-3,5	-2,669
3119,899	-4,5	-2,725
3122,065	-5	-2,862
3124,236	-5,5	-2,864
3126,402	-5	-2,853
3128,568	-6	-2,933
3130,74	-5	-2,859
3132,906	-6,5	-2,987
3135,078	-8,5	-3,047
3137,25	-8,5	-3,065
3139,416	-9	-3,113
3141,581	-8,5	-3,134
3143,753	-9	-3,113
3145,919	-8,5	-3,135
3148,085	-7,5	-3,038
3150,257	-8	-3,008
3152,423	-6	-2,954
3154,589	-6,5	-2,948
3156,761	-5,5	-2,929
3158,926	-8,5	-2,981
3161,098	-6	-2,983
3163,264	-7,5	-3,062
3165,424	-9	-3,135
3167,596	-10	-3,169
3169,762	-10	-3,25
3171,928	-10	-3,328
3174,1	-10	-3,323
3176,265	-10,5	-3,428
3178,431	-10	-3,457
3180,603	-10	-3,498
3182,769	-10	-3,5
3184,935	-10	-3,499
3187,107	-10	-3,499
3189,267	-10	-3,499
3191,439	-10	-3,499
3193,605	-10	-3,499
3195,77	-10	-3,499
3197,942	-10,5	-3,499
3200,108	-10,5	-3,499
3202,286	-10	-3,499
3204,458	-10	-3,5
3206,624	-10	-3,499
3208,79	-10	-3,499
3210,967	-10	-3,499
3213,133	-10	-3,499
3215,299	-10	-3,499
3217,471	-10	-3,499
3219,637	-10	-3,499
3221,809	-10	-3,499
3223,975	-10	-3,499
3226,135	-10	-3,499
3228,306	-10	-3,499
3230,472	-10,5	-3,499
3231,588	4	-0,001