File: Cycling_tests/com_TC/entrada/_7.txt
Time (s)	Load (N)	Displacement (mm)
0	0	-0,036
2,135	1	-0,083
4,331	0	-0,451
6,443	0	-0,431
8,555	0,5	-0,507
10,673	0	-0,528
12,784	-0,5	-0,583
14,896	-1,5	-0,632
17,014	-1,5	-0,733
19,126	-3	-0,783
21,238	-4,5	-0,891
23,356	-5	-0,955
25,468	-4	-0,982
27,579	-6	-1,068
29,697	-6,5	-1,127
31,809	-6,5	-1,186
33,922	-7,5	-1,247
36,033	-8,5	-1,307
38,151	-8	-1,36
40,263	-8,5	-1,388
42,375	-7,5	-1,257
44,487	-8	-1,37
46,605	-9	-1,46
48,716	-9,5	-1,531
50,828	-9,5	-1,585
52,94	-9	-1,442
55,052	-5,5	-1,093
57,17	-7,5	-1,296
59,282	-4,5	-0,982
61,394	-4	-0,856
63,511	1	-0,457
65,624	0	-0,555
67,735	-1	-0,642
69,853	-2,5	-0,753
71,977	-1,5	-0,676
74,089	-1	-0,689
76,207	0	-0,555
78,325	-1	-0,676
80,436	-3	-0,79
82,554	-4,5	-0,944
84,69	-6	-1,13
86,808	-7	-1,293
88,926	-7	-1,314
91,038	-8	-1,407
93,15	-7,5	-1,286
95,262	-6	-1,143
97,373	-6	-1,118
99,485	-6	-1,206
101,603	-7,5	-1,37
103,727	-7,5	-1,426
105,845	-7	-1,35
107,969	-7,5	-1,349
110,081	-7	-1,291
112,199	-6,5	-1,254
114,317	-7,5	-1,355
116,435	-7,5	-1,38
118,564	-9	-1,627
120,682	-8,5	-1,525
122,806	-9	-1,625
124,942	-10,5	-1,787
127,066	-12,5	-2,026
129,19	-15	-2,155
131,308	-16	-2,277
133,425	-16,5	-2,383
135,549	-18,5	-2,497
137,673	-19,5	-2,622
139,791	-20,5	-2,702
141,921	-22	-2,884
144,039	-23,5	-3,016
146,169	-26,5	-3,271
148,287	-29	-3,374
150,411	-30,5	-3,44
152,522	-31	-3,464
154,646	-31,5	-3,485
156,77	-32	-3,49
158,894	-32	-3,487
161,018	-31,5	-3,489
163,142	-32	-3,493
165,266	-32	-3,494
167,384	-32	-3,496
169,501	-31,5	-3,496
171,619	-32	-3,497
173,743	-32	-3,494
175,873	-31,5	-3,495
177,991	-32	-3,498
180,121	-32	-3,499
182,245	-32	-3,499
184,374	-32	-3,486
186,493	-32	-3,37
188,616	-32	-3,5
190,74	-31,5	-3,294
192,859	-31,5	-3,19
194,988	-31	-3,072
197,112	-31,5	-3,004
199,242	-28	-2,933
201,354	-29,5	-2,943
203,477	-27	-2,844
205,607	-25	-2,752
207,725	-26,5	-2,874
209,855	-25,5	-2,804
211,979	-26,5	-2,807
214,097	-29,5	-2,951
216,221	-29,5	-2,852
218,339	-26	-2,794
220,469	-24	-2,697
222,586	-25	-2,788
224,704	-25	-2,793
226,828	-24	-2,695
228,946	-24	-2,718
231,058	-26	-2,843
233,176	-25,5	-2,811
235,294	-27	-2,833
237,417	-29,5	-2,883
239,535	-26,5	-2,873
241,659	-26	-2,848
243,777	-25,5	-2,796
245,901	-26,5	-2,756
248,019	-27,5	-2,728
250,131	-25	-2,769
252,273	-24	-2,688
254,396	-25	-2,658
256,52	-23	-2,665
258,644	-22,5	-2,6
260,78	-23,5	-2,503
262,904	-25	-2,548
265,028	-21,5	-2,445
267,158	-22	-2,417
269,288	-21,5	-2,341
271,418	-19	-2,293
273,541	-19,5	-2,304
275,677	-19	-2,194
277,801	-20,5	-2,186
279,919	-18,5	-2,256
282,043	-18	-2,194
284,161	-18	-2,183
286,285	-18,5	-2,106
288,403	-17	-2,097
290,532	-14,5	-1,84
292,656	-14	-1,773
294,774	-13	-1,699
296,898	-12	-1,674
299,034	-10	-1,468
301,152	-10,5	-1,469
303,282	-10	-1,441
305,412	-10	-1,339
307,535	-9,5	-1,298
309,665	-8	-1,239
311,795	-7,5	-1,089
313,913	-8	-1,095
316,031	-7,5	-1,122
318,155	-7	-1,054
320,285	-5,5	-0,979
322,415	-5,5	-0,904
324,538	-4,5	-0,826
326,668	-4,5	-0,788
328,792	-4,5	-0,79
330,91	-4	-0,803
333,046	-4,5	-0,765
335,176	-4	-0,768
337,312	-3,5	-0,653
339,436	-3	-0,644
341,572	-3	-0,565
343,695	-2,5	-0,599
345,817	-3	-0,611
347,937	-2,5	-0,597
350,061	-3	-0,594
352,191	-3,5	-0,618
354,309	-3,5	-0,674
356,433	-3,5	-0,66
358,557	-2,5	-0,618
360,681	-3	-0,659
362,81	-2,5	-0,535
364,94	-1,5	-0,444
367,076	0	-0,276
369,2	0	-0,212
371,33	0	-0,207
373,46	0,5	-0,154
375,59	0,5	-0,124
377,713	1,5	-0,108
379,849	2	-0,065
381,967	2	-0,058
384,091	2,5	-0,036
386,221	3	-0,024
388,351	3	-0,021
390,469	3	-0,02
392,593	3	-0,021
394,717	3,5	-0,02
396,84	3	-0,018
398,964	3,5	-0,012
401,082	3,5	-0,009
403,212	3,5	-0,006
405,342	3,5	-0,003
407,472	3,5	-0,002
409,596	3,5	-0,002
411,72	3	-0,001
413,837	3,5	-0,001
415,973	3,5	0
418,097	3	0
420,233	3,5	-0,165
422,357	3	-0,323
424,487	2,5	-0,452
426,611	0	-0,567
428,741	0	-0,643
430,865	-1	-0,774
432,994	-3	-0,914
435,124	-3,5	-1,026
437,26	-5	-1,191
439,384	-5	-1,295
441,52	-6	-1,512
443,644	-7	-1,577
445,768	-8,5	-1,707
447,891	-9	-1,823
450,015	-9	-1,875
452,151	-10	-1,948
454,275	-10,5	-2,01
456,405	-12	-2,186
458,534	-12,5	-2,26
460,665	-13,5	-2,369
462,789	-15	-2,43
464,924	-15	-2,53
467,048	-16,5	-2,593
469,172	-15,5	-2,553
471,296	-15	-2,48
473,432	-17	-2,756
475,55	-19	-2,816
477,674	-19	-2,823
479,798	-18,5	-2,82
481,921	-18,5	-2,83
484,051	-20	-2,958
486,175	-21,5	-3,057
488,299	-21	-3,061
490,423	-22	-3,17
492,559	-23,5	-3,292
494,689	-23,5	-3,256
496,819	-22,5	-3,207
498,949	-24	-3,305
501,078	-24	-3,325
503,208	-24,5	-3,324
505,332	-25,5	-3,367
507,462	-25,5	-3,386
509,592	-27	-3,421
511,716	-27	-3,425
513,84	-26,5	-3,416
515,97	-27	-3,425
518,093	-27	-3,44
520,229	-28	-3,457
522,353	-28,5	-3,466
524,477	-28,5	-3,47
526,601	-28	-3,465
528,725	-28,5	-3,463
530,855	-28,5	-3,474
532,991	-28,5	-3,477
535,108	-28,5	-3,476
537,232	-28,5	-3,478
539,356	-28,5	-3,481
541,486	-29	-3,49
543,616	-29	-3,491
545,74	-29	-3,494
547,858	-29	-3,493
549,982	-29	-3,494
552,105	-29	-3,493
554,229	-29	-3,496
556,353	-29	-3,496
558,483	-29	-3,496
560,613	-29	-3,496
562,737	-29	-3,496
564,861	-29	-3,494
566,991	-29	-3,495
569,127	-29	-3,495
571,256	-29	-3,496
573,38	-29	-3,496
575,51	-29	-3,496
577,634	-29	-3,495
579,758	-29	-3,494
581,882	-29	-3,497
584,006	-29	-3,497
586,13	-29	-3,498
588,254	-29	-3,498
590,377	-28,5	-3,497
592,507	-28,5	-3,498
594,625	-28,5	-3,498
596,743	-28,5	-3,497
598,861	-29	-3,497
600,985	-29	-3,498
603,121	-28,5	-3,499
605,244	-28,5	-3,499
607,374	-28,5	-3,5
609,492	-28,5	-3,5
611,616	-28,5	-3,5
613,74	-28,5	-3,5
615,87	-28,5	-3,486
617,994	-28,5	-3,488
620,13	-28,5	-3,393
622,253	-28,5	-3,407
624,377	-28,5	-3,263
626,501	-28,5	-3,25
628,625	-27	-3,126
630,749	-26,5	-3,043
632,873	-26,5	-3,03
634,991	-27	-3,052
637,121	-23,5	-2,868
639,244	-23,5	-2,824
641,368	-22,5	-2,745
643,486	-22,5	-2,724
645,616	-21	-2,655
647,734	-23	-2,745
649,864	-22	-2,697
651,982	-22,5	-2,756
654,1	-22	-2,729
656,224	-22	-2,689
658,347	-22	-2,687
660,477	-20,5	-2,589
662,601	-21	-2,592
664,731	-20,5	-2,5
666,849	-20,5	-2,533
668,979	-19	-2,452
671,103	-18	-2,363
673,221	-19	-2,444
675,35	-18,5	-2,374
677,48	-19	-2,33
679,61	-19	-2,2
681,734	-15	-2,203
683,864	-16,5	-2,233
685,988	-15,5	-2,145
688,112	-14	-1,988
690,236	-14	-2,065
692,359	-13,5	-1,973
694,483	-11,5	-1,814
696,613	-9	-1,585
698,737	-8	-1,497
700,867	-7,5	-1,389
702,985	-7,5	-1,39
705,121	-6	-1,263
707,245	-7	-1,329
709,369	-5,5	-1,183
711,486	-5,5	-1,124
713,61	-4,5	-1,086
715,74	-4,5	-1,032
717,858	-4,5	-1,062
719,982	-5,5	-1,16
722,112	-4,5	-1,079
724,236	-4,5	-1,071
726,36	-5	-1,095
728,483	-5,5	-1,129
730,601	-5,5	-1,158
732,737	-4	-0,992
734,861	-4,5	-1,073
736,985	-5	-1,108
739,109	-4,5	-1,115
741,239	-5	-1,124
743,363	-6	-1,143
745,493	-4	-1,008
747,61	-4,5	-1,089
749,734	-4,5	-1,114
751,864	-4,5	-1,063
753,988	-4	-1,049
756,112	-4	-1,031
758,236	-4	-1,007
760,354	-4,5	-1,065
762,483	-4,5	-1,07
764,613	-4,5	-1,084
766,737	-4,5	-1,077
768,861	-4,5	-1,084
770,991	-4,5	-1,056
773,109	-5	-1,168
775,233	-4,5	-1,112
777,357	-5	-1,115
779,474	-5,5	-1,194
781,598	-5,5	-1,198
783,746	-4,5	-1,06
785,882	-4	-0,989
788,006	-4	-1,034
790,124	-5	-1,084
792,248	-4,5	-1,026
794,378	-4,5	-0,967
796,502	-4,5	-1,022
798,619	-5,5	-1,118
800,749	-5	-1,079
802,873	-4,5	-1,05
805,009	-4	-0,994
807,139	-4,5	-0,985
809,263	-4,5	-1,02
811,387	-4,5	-1,028
813,511	-4,5	-1,035
815,634	-5	-1,08
817,764	-4,5	-1,064
819,882	-5,5	-1,138
822,012	-5	-1,079
824,136	-5	-1,07
826,26	-5	-1,068
828,378	-4,5	-1,02
830,502	-4,5	-0,964
832,626	-3,5	-0,929
834,749	-3,5	-0,904
836,873	-3	-0,79
838,991	-2,5	-0,7
841,121	-2	-0,624
843,245	-1,5	-0,615
845,363	-1,5	-0,552
847,487	-1,5	-0,555
849,617	-1,5	-0,527
851,734	-1,5	-0,458
853,864	0	-0,329
855,988	0	-0,266
858,112	0	-0,251
860,23	0	-0,198
862,354	0,5	-0,175
864,478	0,5	-0,17
866,595	1	-0,131
868,719	1,5	-0,089
870,843	2,5	-0,071
872,967	2,5	-0,077
875,085	2	-0,083
877,215	2	-0,074
879,339	1,5	-0,079
881,469	2,5	-0,073
883,587	2,5	-0,066
885,716	3	-0,042
887,84	3	-0,036
889,964	3,5	-0,031
892,088	3,5	-0,023
894,212	3,5	-0,024
896,336	3,5	-0,021
898,454	3,5	-0,02
900,578	3,5	-0,017
902,696	3,5	-0,019
904,819	3,5	-0,014
906,943	3,5	-0,014
909,061	3,5	-0,015
911,185	3,5	-0,016
913,315	3,5	-0,016
915,439	3,5	-0,02
917,557	3	-0,022
919,68	3	-0,02
921,81	3,5	-0,012
923,928	3,5	-0,012
926,052	3,5	-0,014
928,182	3,5	-0,012
930,3	3,5	-0,012
932,424	3,5	-0,012
934,536	3,5	-0,013
936,66	3,5	-0,01
938,777	3,5	-0,008
940,901	3,5	-0,006
943,025	3,5	-0,006
945,149	3,5	-0,007
947,273	3,5	-0,006
949,397	3,5	-0,005
951,515	3,5	-0,006
953,633	3,5	-0,006
955,756	3,5	-0,006
957,88	3,5	-0,006
960,004	3,5	-0,004
962,122	3,5	-0,004
964,252	3,5	-0,003
966,37	3,5	-0,002
968,488	3,5	-0,002
970,612	3,5	-0,001
972,729	3,5	-0,001
974,847	3,5	-0,001
976,977	3,5	-0,001
979,101	3,5	0
981,225	3,5	-0,212
983,349	3,5	-0,351
985,473	1,5	-0,568
987,597	0	-0,683
989,72	-0,5	-0,723
991,844	-1	-0,775
993,962	-1,5	-0,817
996,086	-2	-0,911
998,216	-3	-0,981
1000,334	-3	-0,97
1002,458	-3	-1,031
1004,576	-3,5	-1,062
1006,705	-4	-1,229
1008,829	-4,5	-1,36
1010,953	-5	-1,436
1013,077	-5	-1,483
1015,195	-5,5	-1,524
1017,313	-6	-1,61
1019,437	-7	-1,771
1021,549	-6,5	-1,79
1023,673	-8	-1,876
1025,796	-8	-1,911
1027,92	-8,5	-2,006
1030,044	-9,5	-2,136
1032,174	-10,5	-2,228
1034,298	-11,5	-2,363
1036,428	-12	-2,466
1038,552	-13,5	-2,521
1040,676	-14	-2,567
1042,793	-14	-2,577
1044,911	-14	-2,572
1047,035	-16	-2,771
1049,165	-15	-2,938
1051,289	-18,5	-2,972
1053,413	-18	-2,974
1055,537	-17,5	-2,899
1057,661	-18	-2,997
1059,778	-19	-3,04
1061,902	-19	-3,058
1064,026	-17	-3,04
1066,144	-18,5	-3,03
1068,274	-19,5	-3,11
1070,392	-19,5	-3,061
1072,522	-19	-3,101
1074,64	-19	-3,062
1076,763	-20	-3,187
1078,887	-22	-3,252
1081,005	-21	-3,248
1083,135	-21	-3,236
1085,259	-21,5	-3,293
1087,383	-22,5	-3,343
1089,513	-23,5	-3,358
1091,637	-23,5	-3,385
1093,761	-23,5	-3,38
1095,884	-24	-3,407
1098,014	-24	-3,403
1100,132	-24	-3,404
1102,256	-23	-3,352
1104,38	-24	-3,401
1106,504	-24,5	-3,433
1108,622	-25,5	-3,455
1110,74	-26	-3,462
1112,864	-26,5	-3,471
1114,981	-26,5	-3,474
1117,105	-26,5	-3,484
1119,229	-26,5	-3,488
1121,353	-27	-3,489
1123,471	-27	-3,491
1125,589	-27	-3,494
1127,707	-27	-3,496
1129,824	-27	-3,498
1131,948	-27	-3,498
1134,066	-27	-3,498
1136,184	-27	-3,498
1138,308	-27	-3,498
1140,432	-27	-3,499
1142,556	-26,5	-3,5
1144,68	-26,5	-3,499
1146,804	-27	-3,499
1148,934	-27	-3,499
1151,057	-27	-3,496
1153,181	-26,5	-3,393
1155,305	-26,5	-3,284
1157,429	-26	-3,18
1159,553	-26,5	-3,312
1161,677	-27	-3,269
1163,789	-26,5	-3,268
1165,912	-26,5	-3,194
1168,024	-26,5	-3,258
1170,142	-26,5	-3,304
1172,26	-26,5	-3,36
1174,384	-26,5	-3,46
1176,514	-27	-3,419
1178,632	-27	-3,461
1180,768	-26,5	-3,488
1182,886	-26,5	-3,5
1185,003	-27	-3,499
1187,121	-26,5	-3,499
1189,251	-26,5	-3,498
1191,369	-26,5	-3,498
1193,493	-26,5	-3,498
1195,617	-26,5	-3,498
1197,741	-26,5	-3,497
1199,858	-26,5	-3,497
1201,982	-26,5	-3,497
1204,106	-26,5	-3,497
1206,224	-26,5	-3,496
1208,348	-26,5	-3,496
1210,466	-26,5	-3,496
1212,596	-26,5	-3,495
1214,714	-26,5	-3,494
1216,843	-26,5	-3,494
1218,961	-26,5	-3,493
1221,091	-26,5	-3,496
1223,215	-26,5	-3,496
1225,339	-26,5	-3,496
1227,457	-26,5	-3,498
1229,587	-26,5	-3,498
1231,705	-26,5	-3,498
1233,829	-26,5	-3,498
1235,958	-26,5	-3,498
1238,076	-26,5	-3,498
1240,194	-26,5	-3,497
1242,312	-26,5	-3,497
1244,442	-26,5	-3,497
1246,554	-26,5	-3,497
1248,678	-26,5	-3,497
1250,796	-26,5	-3,498
1252,919	-26,5	-3,498
1255,037	-26,5	-3,499
1257,155	-26,5	-3,499
1259,279	-26,5	-3,5
1261,403	-26,5	-3,456
1263,527	-26,5	-3,343
1265,651	-26,5	-3,248
1267,775	-26	-3,202
1269,898	-26	-3,232
1272,022	-26,5	-3,336
1274,14	-26,5	-3,336
1276,258	-26,5	-3,296
1278,376	-26,5	-3,197
1280,5	-25	-3,146
1282,624	-24,5	-3,024
1284,748	-22,5	-2,829
1286,871	-24	-2,923
1288,995	-23	-2,951
1291,119	-22,5	-2,901
1293,237	-22,5	-2,869
1295,355	-22	-2,858
1297,485	-21	-2,692
1299,603	-19,5	-2,578
1301,727	-19	-2,546
1303,845	-18	-2,483
1305,968	-16,5	-2,337
1308,086	-15,5	-2,294
1310,216	-14	-2,188
1312,334	-13	-2,103
1314,458	-13	-1,998
1316,576	-12	-2,014
1318,7	-11,5	-1,958
1320,818	-10	-1,82
1322,941	-9,5	-1,743
1325,059	-8	-1,59
1327,183	-8	-1,603
1329,301	-8	-1,62
1331,425	-8	-1,598
1333,543	-9,5	-1,749
1335,667	-9	-1,709
1337,785	-9	-1,714
1339,902	-9	-1,704
1342,026	-9,5	-1,738
1344,15	-10	-1,773
1346,268	-10,5	-1,826
1348,386	-10	-1,789
1350,51	-9,5	-1,739
1352,628	-9,5	-1,722
1354,752	-7	-1,56
1356,863	-7	-1,495
1358,987	-7	-1,471
1361,105	-6	-1,34
1363,229	-6	-1,463
1365,347	-8	-1,564
1367,465	-8,5	-1,623
1369,589	-7,5	-1,593
1371,707	-9	-1,668
1373,837	-9	-1,709
1375,954	-8,5	-1,703
1378,078	-9,5	-1,77
1380,202	-10	-1,815
1382,326	-11	-1,902
1384,45	-10,5	-1,921
1386,574	-10,5	-1,918
1388,692	-9,5	-1,791
1390,822	-9,5	-1,763
1392,939	-9	-1,714
1395,063	-9	-1,692
1397,187	-9,5	-1,811
1399,305	-11	-1,912
1401,429	-11,5	-2,015
1403,553	-10,5	-1,922
1405,677	-11	-1,948
1407,795	-12	-2,036
1409,918	-13	-2,118
1412,042	-15	-2,252
1414,16	-16	-2,354
1416,29	-16	-2,412
1418,408	-16,5	-2,414
1420,532	-17	-2,499
1422,656	-18	-2,56
1424,78	-18	-2,509
1426,897	-19,5	-2,643
1429,033	-19,5	-2,639
1431,151	-20,5	-2,762
1433,275	-22	-2,764
1435,393	-22,5	-2,938
1437,511	-22	-2,903
1439,635	-24	-3,049
1441,753	-25,5	-3,2
1443,877	-26	-3,314
1445,994	-26	-3,466
1448,118	-25,5	-3,419
1450,236	-25,5	-3,426
1452,354	-25,5	-3,38
1454,478	-25,5	-3,456
1456,596	-25,5	-3,489
1458,72	-25,5	-3,494
1460,844	-26	-3,5
1462,967	-25,5	-3,5
1465,085	-25,5	-3,499
1467,209	-25,5	-3,499
1469,327	-25,5	-3,499
1471,451	-25,5	-3,499
1473,575	-25,5	-3,499
1475,693	-25,5	-3,499
1477,817	-25,5	-3,499
1479,94	-25,5	-3,499
1482,064	-25,5	-3,499
1484,182	-25,5	-3,499
1486,3	-25,5	-3,498
1488,418	-25,5	-3,498
1490,536	-25,5	-3,498
1492,666	-25,5	-3,498
1494,79	-25,5	-3,498
1496,901	-25,5	-3,498
1499,019	-25,5	-3,499
1501,143	-25,5	-3,499
1503,261	-25,5	-3,499
1505,385	-25,5	-3,499
1507,503	-25,5	-3,499
1509,627	-25,5	-3,499
1511,751	-25,5	-3,499
1513,869	-25,5	-3,499
1515,998	-25,5	-3,499
1518,116	-25,5	-3,499
1520,24	-25,5	-3,5
1522,358	-25,5	-3,5
1524,476	-25,5	-3,5
1526,594	-25,5	-3,5
1528,712	-25,5	-3,5
1530,836	-25,5	-3,5
1532,953	-26	-3,496
1535,078	-25,5	-3,47
1537,207	-25,5	-3,364
1539,331	-25,5	-3,279
1541,443	-25,5	-3,241
1543,567	-25,5	-3,236
1545,697	-24	-3,03
1547,815	-23,5	-3,009
1549,938	-22	-2,964
1552,062	-21,5	-2,898
1554,186	-22	-2,921
1556,304	-22	-2,922
1558,422	-21	-2,883
1560,546	-21	-2,796
1562,664	-20	-2,748
1564,794	-19	-2,609
1566,917	-15,5	-2,483
1569,035	-17,5	-2,51
1571,159	-15,5	-2,443
1573,289	-15	-2,32
1575,413	-15	-2,248
1577,537	-12	-2,124
1579,655	-12,5	-2,108
1581,773	-12	-2,071
1583,891	-11,5	-2,007
1586,008	-10,5	-1,97
1588,138	-9	-1,852
1590,262	-6,5	-1,577
1592,38	-5,5	-1,446
1594,504	-5	-1,4
1596,628	-4,5	-1,279
1598,752	-4,5	-1,203
1600,882	-3	-1,1
1602,999	-3	-1,063
1605,123	-2,5	-0,923
1607,247	-2,5	-0,888
1609,365	-2,5	-0,844
1611,483	-2	-0,835
1613,607	-1,5	-0,778
1615,731	-1,5	-0,75
1617,849	-1,5	-0,68
1619,972	-1,5	-0,662
1622,096	-1,5	-0,658
1624,22	-0,5	-0,554
1626,344	0	-0,483
1628,462	-0,5	-0,493
1630,586	0	-0,485
1632,704	0	-0,438
1634,828	0	-0,302
1636,945	0	-0,277
1639,063	1	-0,181
1641,187	1	-0,17
1643,305	1,5	-0,126
1645,435	3	-0,087
1647,553	3	-0,079
1649,677	3	-0,071
1651,789	2,5	-0,077
1653,907	3	-0,058
1656,03	3	-0,055
1658,154	3,5	-0,054
1660,278	3,5	-0,037
1662,396	3,5	-0,034
1664,514	3,5	-0,029
1666,644	3,5	-0,025
1668,762	3,5	-0,03
1670,886	3,5	-0,028
1673,003	3,5	-0,024
1675,121	3,5	-0,022
1677,239	3,5	-0,017
1679,357	4	-0,014
1681,481	4	-0,012
1683,593	4	-0,015
1685,717	4	-0,012
1687,835	4	-0,012
1689,958	4	-0,006
1692,088	4	-0,006
1694,206	4	-0,006
1696,336	4	-0,004
1698,454	3,5	-0,004
1700,578	4	-0,005
1702,702	4	-0,005
1704,814	4	-0,006
1706,938	3,5	-0,006
1709,061	3,5	-0,005
1711,185	3,5	-0,005
1713,303	3,5	-0,005
1715,421	4	-0,004
1717,545	4	-0,003
1719,663	4	-0,002
1721,787	4	-0,001
1723,905	4	-0,001
1726,022	4	-0,001
1728,146	3,5	-0,001
1730,264	4	-0,001
1732,382	4	-0,001
1734,506	4	-0,001
1736,624	4	-0,001
1738,748	4	-0,002
1740,866	4	-0,005
1742,989	4	-0,015
1745,113	4	-0,13
1747,231	4	-0,086
1749,355	3,5	-0,142
1751,473	4	-0,097
1753,597	3,5	-0,114
1755,715	3,5	-0,053
1757,839	3,5	-0,031
1759,956	4	0
1762,074	4	-0,001
1764,198	3,5	-0,001
1766,316	3,5	-0,001
1768,434	4	-0,001
1770,558	4	-0,001
1772,676	3,5	-0,001
1774,8	4	-0,001
1776,923	4	-0,001
1779,047	4	-0,012
1781,171	3,5	-0,037
1783,289	4	-0,122
1785,419	4	-0,264
1787,537	3,5	-0,247
1789,655	3,5	-0,258
1791,785	3	-0,361
1793,903	3	-0,388
1796,026	3	-0,396
1798,144	3	-0,364
1800,268	3,5	-0,366
1802,392	4	-0,2
1804,516	4	-0,226
1806,634	3,5	-0,335
1808,758	3,5	-0,183
1810,876	3,5	-0,234
1812,993	3,5	-0,272
1815,111	3,5	-0,32
1817,235	3	-0,446
1819,365	2	-0,496
1821,489	1	-0,606
1823,613	0,5	-0,673
1825,731	0	-0,729
1827,855	-1	-0,878
1829,978	-2	-1,031
1832,096	-2	-1,082
1834,22	-2,5	-1,17
1836,344	-3	-1,306
1838,462	-3,5	-1,37
1840,586	-4	-1,458
1842,704	-4	-1,542
1844,828	-4,5	-1,71
1846,951	-5	-1,751
1849,075	-5,5	-1,908
1851,199	-5,5	-2,006
1853,329	-7,5	-2,151
1855,447	-8,5	-2,247
1857,571	-9	-2,34
1859,689	-9,5	-2,387
1861,801	-10,5	-2,457
1863,925	-10,5	-2,525
1866,042	-11,5	-2,593
1868,166	-12	-2,682
1870,284	-13	-2,772
1872,402	-14,5	-2,856
1874,526	-15	-2,976
1876,644	-15	-2,976
1878,768	-15,5	-3,036
1880,886	-15,5	-3,037
1883,003	-16,5	-3,106
1885,133	-16,5	-3,166
1887,251	-18	-3,248
1889,369	-18	-3,268
1891,487	-18,5	-3,29
1893,611	-20	-3,368
1895,735	-21	-3,412
1897,853	-22	-3,425
1899,976	-23	-3,441
1902,1	-23	-3,461
1904,218	-23,5	-3,469
1906,336	-23,5	-3,478
1908,466	-24	-3,486
1910,584	-24	-3,488
1912,708	-24	-3,487
1914,826	-24	-3,49
1916,943	-24	-3,491
1919,067	-24	-3,493
1921,185	-24	-3,494
1923,309	-24	-3,496
1925,427	-24	-3,496
1927,551	-24	-3,497
1929,675	-24	-3,498
1931,793	-24	-3,498
1933,911	-24	-3,498
1936,034	-24	-3,499
1938,152	-24	-3,499
1940,276	-24	-3,499
1942,394	-24	-3,5
1944,53	-24	-3,338
1946,648	-24	-3,239
1948,766	-24	-3,234
1950,884	-23	-3,116
1953,007	-23,5	-3,102
1955,131	-22	-2,992
1957,255	-20	-2,93
1959,373	-21	-2,909
1961,491	-19,5	-2,824
1963,621	-18	-2,744
1965,739	-16,5	-2,649
1967,863	-15,5	-2,565
1969,98	-14,5	-2,469
1972,104	-13,5	-2,36
1974,222	-13	-2,334
1976,346	-14	-2,382
1978,464	-12,5	-2,268
1980,588	-12	-2,19
1982,712	-9,5	-2,087
1984,836	-9	-1,979
1986,959	-8,5	-1,937
1989,077	-7,5	-1,853
1991,201	-8	-1,86
1993,319	-8	-1,872
1995,437	-6,5	-1,759
1997,561	-6	-1,661
1999,679	-5,5	-1,549
2001,803	-4,5	-1,408
2003,92	-3,5	-1,303
2006,038	-3	-1,249
2008,162	-2,5	-1,135
2010,28	-2	-1,039
2012,398	-1,5	-0,918
2014,522	-1	-0,771
2016,64	-0,5	-0,687
2018,758	0	-0,575
2020,888	0	-0,404
2023,005	0	-0,329
2025,129	1,5	-0,185
2027,247	2	-0,126
2029,365	3	-0,091
2031,489	3,5	-0,061
2033,607	3,5	-0,052
2035,725	3,5	-0,04
2037,855	4	-0,03
2039,972	4	-0,031
2042,09	4	-0,028
2044,214	4	-0,023
2046,332	4	-0,018
2048,45	4	-0,017
2050,574	4	-0,013
2052,692	4	-0,01
2054,816	4	-0,008
2056,939	4	-0,008
2059,057	4	-0,007
2061,187	4	-0,004
2063,305	4	-0,003
2065,429	4	-0,002
2067,553	4	-0,002
2069,677	4	-0,002
2071,795	4	-0,001
2073,913	4	-0,001
2076,03	4	0
2078,154	4	-0,031
2080,272	4	-0,142
2082,396	4	-0,289
2084,52	3,5	-0,41
2086,638	3	-0,452
2088,756	3	-0,452
2090,88	2	-0,578
2093,003	0,5	-0,65
2095,127	0	-0,733
2097,245	-0,5	-0,856
2099,363	-1	-0,962
2101,487	-1,5	-1,012
2103,611	-1,5	-1,075
2105,729	-1,5	-1,13
2107,859	-1,5	-1,181
2109,976	-1,5	-1,261
2112,094	-2	-1,329
2114,212	-2,5	-1,402
2116,33	-2,5	-1,467
2118,454	-2,5	-1,528
2120,572	-3	-1,656
2122,69	-3	-1,73
2124,808	-3,5	-1,782
2126,925	-4	-1,84
2129,049	-4	-1,912
2131,167	-4	-1,836
2133,285	-3,5	-1,89
2135,409	-4,5	-1,994
2137,521	-4,5	-1,97
2139,639	-4,5	-2,086
2141,763	-5	-2,206
2143,881	-5	-2,247
2146,004	-5,5	-2,299
2148,128	-5,5	-2,344
2150,252	-5,5	-2,347
2152,376	-5,5	-2,404
2154,494	-5,5	-2,461
2156,612	-5,5	-2,542
2158,736	-6,5	-2,613
2160,86	-6,5	-2,664
2162,984	-7,5	-2,746
2165,107	-8	-2,802
2167,219	-8,5	-2,842
2169,337	-8	-2,93
2171,461	-9,5	-2,993
2173,585	-10,5	-3,12
2175,709	-11	-3,225
2177,827	-11,5	-3,26
2179,944	-12	-3,267
2182,068	-12,5	-3,338
2184,186	-13	-3,364
2186,31	-14	-3,41
2188,434	-14	-3,4
2190,552	-13,5	-3,394
2192,676	-14	-3,413
2194,794	-14,5	-3,43
2196,912	-15	-3,435
2199,035	-14,5	-3,442
2201,159	-15	-3,449
2203,295	-15	-3,462
2205,413	-15	-3,469
2207,531	-15	-3,469
2209,661	-15	-3,48
2211,785	-15,5	-3,489
2213,908	-15	-3,49
2216,026	-15	-3,489
2218,144	-15	-3,49
2220,262	-15	-3,492
2222,38	-15	-3,494
2224,504	-15	-3,494
2226,628	-15	-3,495
2228,746	-15	-3,495
2230,87	-15	-3,497
2232,987	-15	-3,497
2235,105	-15	-3,498
2237,229	-15	-3,498
2239,347	-15	-3,498
2241,465	-15	-3,499
2243,589	-15	-3,499
2245,713	-15	-3,499
2247,837	-15	-3,5
2249,954	-15	-3,491
2252,066	-15	-3,498
2254,19	-15	-3,475
2256,308	-15	-3,4
2258,426	-15	-3,301
2260,556	-13,5	-3,169
2262,674	-13	-3,118
2264,798	-12	-2,979
2266,909	-13	-2,973
2269,027	-12	-2,919
2271,151	-10,5	-2,816
2273,269	-10,5	-2,81
2275,387	-10,5	-2,8
2277,511	-10,5	-2,792
2279,629	-9,5	-2,712
2281,747	-10	-2,76
2283,871	-9,5	-2,699
2285,988	-8,5	-2,641
2288,112	-7,5	-2,579
2290,23	-8	-2,538
2292,354	-6	-2,439
2294,472	-5,5	-2,364
2296,59	-5,5	-2,283
2298,714	-4,5	-2,165
2300,832	-4,5	-2,147
2302,949	-4,5	-2,112
2305,079	-4	-2,069
2307,197	-3,5	-1,995
2309,321	-3	-1,944
2311,439	-3	-1,88
2313,557	-2,5	-1,78
2315,681	-2	-1,756
2317,799	-2	-1,746
2319,916	-2	-1,735
2322,04	-2	-1,684
2324,158	-1,5	-1,652
2326,282	-1,5	-1,633
2328,412	-1	-1,552
2330,53	-1	-1,553
2332,66	-1	-1,446
2334,784	-1	-1,394
2336,901	-0,5	-1,385
2339,031	0	-1,203
2341,155	0	-1,158
2343,279	0	-1,057
2345,397	0	-0,995
2347,515	0,5	-0,868
2349,645	0,5	-0,755
2351,763	0,5	-0,76
2353,881	0,5	-0,719
2356,004	1	-0,519
2358,122	1,5	-0,424
2360,246	1	-0,41
2362,364	1,5	-0,352
2364,488	1,5	-0,291
2366,612	2	-0,243
2368,736	2	-0,218
2370,86	2	-0,168
2372,977	3	-0,113
2375,095	2,5	-0,111
2377,219	3	-0,095
2379,337	3	-0,086
2381,455	3	-0,078
2383,585	3,5	-0,061
2385,709	3,5	-0,047
2387,827	4	-0,043
2389,95	3,5	-0,04
2392,074	4	-0,025
2394,192	4	-0,026
2396,31	4	-0,026
2398,428	4	-0,03
2400,552	4	-0,026
2402,67	4	-0,026
2404,806	4	-0,026
2406,924	4	-0,033
2409,047	4	-0,035
2411,171	3,5	-0,042
2413,295	3,5	-0,044
2415,413	3,5	-0,056
2417,543	3,5	-0,056
2419,661	3,5	-0,063
2421,779	3	-0,08
2423,909	2,5	-0,082
2426,026	3,5	-0,073
2428,156	3,5	-0,05
2430,274	3,5	-0,05
2432,392	3,5	-0,042
2434,516	3,5	-0,038
2436,634	3,5	-0,04
2438,758	3,5	-0,037
2440,882	4	-0,03
2442,999	4	-0,031
2445,123	4	-0,028
2447,241	4	-0,024
2449,365	4	-0,023
2451,489	4	-0,021
2453,607	4	-0,026
2455,725	3,5	-0,029
2457,849	4	-0,023
2459,966	4	-0,03
2462,09	3,5	-0,027
2464,208	3,5	-0,035
2466,326	3,5	-0,031
2468,45	3,5	-0,037
2470,568	3,5	-0,036
2472,698	3,5	-0,038
2474,81	3,5	-0,044
2476,927	3,5	-0,039
2479,051	3,5	-0,028
2481,169	4	-0,023
2483,287	4	-0,021
2485,411	4	-0,015
2487,529	4	-0,014
2489,653	4	-0,013
2491,777	4	-0,01
2493,895	4	-0,009
2496,012	4	-0,008
2498,142	4	-0,006
2500,26	4	-0,005
2502,384	4	-0,005
2504,502	4	-0,006
2506,62	4	-0,006
2508,744	4	-0,005
2510,862	4	-0,004
2512,991	4	-0,003
2515,109	4	-0,002
2517,227	4	-0,002
2519,351	4	-0,002
2521,463	4	-0,002
2523,581	4	-0,002
2525,711	4	-0,001
2527,829	4	-0,001
2529,946	4	-0,001
2532,07	4	-0,001
2534,188	4	-0,001
2536,318	4	-0,001
2538,436	4	0
2540,56	4	-0,015
2542,678	4	-0,079
2544,796	4	-0,142
2546,919	3,5	-0,263
2549,037	3	-0,35
2551,155	2,5	-0,466
2553,279	1,5	-0,586
2555,397	0,5	-0,671
2557,509	0,5	-0,715
2559,633	0	-0,787
2561,751	0	-0,83
2563,869	-0,5	-0,978
2565,992	-0,5	-1,082
2568,116	-1	-1,17
2570,24	-1,5	-1,301
2572,358	-1,5	-1,392
2574,476	-2	-1,492
2576,606	-2	-1,678
2578,724	-2	-1,747
2580,842	-2,5	-1,832
2582,965	-2,5	-1,984
2585,089	-3	-2,067
2587,207	-3,5	-2,241
2589,331	-3	-2,288
2591,449	-3,5	-2,351
2593,573	-4,5	-2,481
2595,697	-4,5	-2,64
2597,815	-5	-2,717
2599,938	-5,5	-2,774
2602,056	-6	-2,891
2604,18	-7	-3,053
2606,304	-7,5	-3,21
2608,428	-8	-3,295
2610,552	-10	-3,363
2612,676	-10,5	-3,394
2614,794	-11	-3,416
2616,923	-11,5	-3,453
2619,041	-12	-3,462
2621,165	-12	-3,476
2623,289	-12,5	-3,488
2625,407	-12	-3,492
2627,531	-12	-3,496
2629,655	-12,5	-3,499
2631,773	-12	-3,499
2633,897	-12,5	-3,497
2636,014	-12	-3,279
2638,132	-12	-3,5
2640,256	-12	-3,496
2642,374	-12	-3,388
2644,498	-12	-3,225
2646,622	-11,5	-3,151
2648,746	-12	-3,318
2650,864	-12	-3,394
2652,993	-12	-3,299
2655,111	-12	-3,451
2657,235	-12	-3,486
2659,359	-12	-3,462
2661,477	-12	-3,479
2663,601	-12	-3,489
2665,725	-12	-3,5
2667,843	-12	-3,482
2669,966	-12	-3,371
2672,084	-12	-3,343
2674,202	-12	-3,44
2676,356	-12	-3,294
2678,474	-12	-3,293
2680,598	-12	-3,279
2682,716	-12	-3,242
2684,834	-10,5	-3,128
2686,958	-9,5	-3,023
2689,075	-10,5	-3,134
2691,193	-11	-3,157
2693,317	-10,5	-3,106
2695,435	-12	-3,393
2697,559	-12	-3,5
2699,683	-12	-3,365
2701,801	-12	-3,36
2703,919	-12	-3,298
2706,042	-11,5	-3,195
2708,16	-10,5	-3,088
2710,278	-10,5	-3,089
2712,402	-10	-3,02
2714,514	-9	-2,998
2716,638	-8,5	-2,942
2718,756	-11	-3,15
2720,874	-10	-3,075
2722,997	-10,5	-3,018
2725,115	-7,5	-2,897
2727,239	-7	-2,846
2729,363	-5	-2,694
2731,481	-5,5	-2,642
2733,605	-5	-2,659
2735,735	-4,5	-2,504
2737,853	-3,5	-2,361
2739,983	-3	-2,344
2742,106	-2,5	-2,144
2744,224	-2	-2,023
2746,342	-1,5	-1,98
2748,466	-1	-1,823
2750,584	-0,5	-1,702
2752,708	-0,5	-1,624
2754,826	-0,5	-1,582
2756,943	-0,5	-1,519
2759,067	0	-1,44
2761,185	0	-1,435
2763,303	0	-1,335
2765,433	0	-1,339
2767,551	0	-1,329
2769,669	-0,5	-1,373
2771,793	0	-1,374
2773,911	0	-1,374
2776,028	-0,5	-1,482
2778,152	-1	-1,51
2780,27	-1	-1,601
2782,388	-1	-1,602
2784,512	-1,5	-1,732
2786,63	-1,5	-1,79
2788,76	-1	-1,73
2790,878	-1	-1,704
2792,995	-1,5	-1,694
2795,119	-1	-1,654
2797,243	-1	-1,736
2799,361	-1	-1,703
2801,485	-1	-1,718
2803,603	-1	-1,67
2805,721	-0,5	-1,579
2807,845	-0,5	-1,498
2809,962	-0,5	-1,434
2812,08	0	-1,376
2814,204	0	-1,308
2816,322	0	-1,24
2818,44	0	-1,225
2820,57	0	-1,175
2822,688	0	-1,102
2824,812	0	-1,013
2826,935	0	-1,01
2829,053	0	-0,919
2831,177	0	-0,869
2833,301	0,5	-0,733
2835,419	1	-0,691
2837,549	0,5	-0,588
2839,667	1	-0,477
2841,785	1	-0,489
2843,915	1	-0,377
2846,032	1	-0,328
2848,15	1,5	-0,255
2850,274	1,5	-0,187
2852,392	1,5	-0,184
2854,51	1,5	-0,17
2856,646	2,5	-0,106
2858,764	3	-0,077
2860,888	3	-0,047
2863,011	3,5	-0,024
2865,129	4	-0,016
2867,247	4	-0,012
2869,371	4	-0,009
2871,495	4	-0,006
2873,613	4	-0,004
2875,743	4	-0,004
2877,861	4	-0,002
2879,99	4	-0,002
2882,108	4	-0,002
2884,232	4	-0,003
2886,35	4	-0,002
2888,468	4	-0,002
2890,586	4	-0,001
2892,716	4	-0,001
2894,834	4	0
2896,951	4	-0,001
2899,075	4	-0,042
2901,193	4	-0,168
2903,311	4	-0,223
2905,435	3,5	-0,325
2907,553	2,5	-0,447
2909,671	2	-0,58
2911,813	0	-0,811
2913,931	0	-0,88
2916,048	-0,5	-1,005
2918,172	-0,5	-1,106
2920,29	-0,5	-1,191
2922,408	-0,5	-1,222
2924,538	-1	-1,393
2926,656	-1	-1,472
2928,774	-1	-1,596
2930,898	-1,5	-1,71
2933,015	-1,5	-1,71
2935,139	-1,5	-1,802
2937,257	-1,5	-1,772
2939,375	-2	-1,84
2941,499	-1,5	-1,948
2943,617	-2	-2,082
2945,741	-2,5	-2,158
2947,865	-2,5	-2,316
2949,982	-2,5	-2,362
2952,1	-3	-2,49
2954,23	-3	-2,688
2956,354	-4	-2,825
2958,472	-4,5	-2,899
2960,596	-5	-3,034
2962,714	-6	-3,188
2964,838	-6	-3,276
2966,962	-7	-3,351
2969,085	-7,5	-3,374
2971,203	-7,5	-3,384
2973,327	-8	-3,412
2975,445	-9	-3,434
2977,569	-9,5	-3,455
2979,693	-10	-3,473
2981,823	-10	-3,479
2983,941	-10,5	-3,482
2986,058	-10,5	-3,485
2988,188	-10,5	-3,488
2990,306	-10,5	-3,492
2992,424	-10,5	-3,49
2994,548	-10,5	-3,491
2996,672	-10,5	-3,493
2998,79	-10,5	-3,495
3000,92	-10,5	-3,497
3003,037	-10,5	-3,498
3005,161	-11	-3,498
3007,279	-10,5	-3,499
3009,397	-10,5	-3,499
3011,515	-10,5	-3,499
3013,639	-10,5	-3,5
3015,763	-10,5	-3,407
3017,881	-10,5	-3,321
3020,004	-9	-3,127
3022,122	-10	-3,105
3024,246	-7	-2,971
3026,37	-6	-2,892
3028,488	-5,5	-2,829
3030,606	-5	-2,82
3032,73	-5	-2,809
3034,848	-5	-2,825
3036,965	-5	-2,843
3039,083	-5	-2,816
3041,201	-5,5	-2,805
3043,319	-5,5	-2,811
3045,443	-4,5	-2,771
3047,561	-6	-2,834
3049,685	-5	-2,822
3051,815	-4,5	-2,719
3053,927	-4,5	-2,728
3056,044	-4	-2,665
3058,168	-4	-2,636
3060,28	-4,5	-2,672
3062,398	-4,5	-2,65
3064,528	-3	-2,474
3066,646	-3	-2,448
3068,764	-2,5	-2,416
3070,888	-2,5	-2,354
3073,005	-2,5	-2,344
3075,123	-1,5	-2,217
3077,247	-1,5	-2,166
3079,365	-1,5	-2,034
3081,483	-1	-2,002
3083,607	-0,5	-1,962
3085,725	-1	-1,925
3087,843	-0,5	-1,888
3089,966	-0,5	-1,811
3092,084	-0,5	-1,8
3094,202	-0,5	-1,748
3096,332	0	-1,603
3098,45	0	-1,588
3100,568	0	-1,498
3102,692	0	-1,437
3104,816	0	-1,449
3106,933	0	-1,364
3109,057	0	-1,351
3111,181	0	-1,294
3113,299	0	-1,296
3115,423	0	-1,18
3117,541	0,5	-1,085
3119,665	0,5	-1,024
3121,789	0,5	-0,893
3123,913	0,5	-0,889
3126,024	0,5	-0,925
3128,148	0,5	-0,868
3130,26	0,5	-0,909
3132,378	1	-0,82
3134,502	1	-0,663
3136,626	1	-0,628
3138,744	1	-0,592
3140,874	1	-0,489
3142,991	1	-0,41
3145,109	1,5	-0,348
3147,233	1,5	-0,259
3149,357	2	-0,213
3151,475	1,5	-0,203
3153,599	2	-0,179
3155,717	2	-0,157
3157,835	2	-0,168
3159,964	2,5	-0,107
3162,076	3	-0,113
3164,194	2	-0,11
3166,318	3	-0,074
3168,442	3	-0,053
3168,73	4	-0,001