File: Cycling_tests/com_TC/entrada/_8.txt
Time (s)	Load (N)	Displacement (mm)
0	0	-0,031
2,147	0,5	-0,186
4,349	-3	-0,628
6,466	-2,5	-0,617
8,578	-1	-0,565
10,69	0	-0,471
12,802	1,5	-0,344
14,914	1,5	-0,242
17,032	1	-0,302
19,144	1,5	-0,347
21,256	1	-0,322
23,368	1	-0,335
25,479	1,5	-0,379
27,591	1	-0,364
29,709	1	-0,288
31,821	1,5	-0,257
33,933	1,5	-0,187
36,045	1,5	-0,171
38,157	1,5	-0,185
40,268	1,5	-0,225
42,386	2	-0,202
44,504	2	-0,127
46,622	2	-0,102
48,74	1,5	-0,089
50,852	2	0
52,97	2	-0,001
55,088	2,5	-0,001
57,205	2,5	-0,003
59,329	2,5	-0,004
61,441	2,5	-0,003
63,553	2,5	-0,003
65,677	2,5	-0,003
67,789	2,5	-0,01
69,907	2,5	-0,01
72,031	2	-0,01
74,148	2	-0,028
76,26	1,5	-0,029
78,39	2	-0,023
80,514	2	-0,019
82,626	2,5	-0,017
84,744	2	-0,016
86,856	2	-0,012
88,98	2	-0,007
91,098	2,5	-0,006
93,227	2,5	-0,006
95,345	2,5	-0,006
97,463	2,5	-0,004
99,587	2,5	-0,003
101,717	2,5	-0,002
103,829	2,5	-0,002
105,947	2,5	-0,002
108,065	2,5	-0,001
110,188	2,5	-0,002
112,318	3	-0,001
114,448	2,5	-0,001
116,572	2,5	-0,001
118,69	2,5	-0,002
120,808	2,5	-0,001
122,926	2,5	-0,001
125,038	2,5	-0,002
127,161	2,5	-0,002
129,273	2,5	-0,002
131,397	2,5	-0,002
133,521	3	-0,002
135,639	3	-0,001
137,769	2,5	-0,001
139,893	2,5	-0,001
142,011	2,5	-0,001
144,129	3	-0,001
146,246	3	-0,001
148,364	2,5	-0,001
150,476	3	-0,001
152,588	3	-0,002
154,712	3	-0,001
156,842	3	-0,001
158,954	3	-0,001
161,071	3	-0,001
163,183	3	-0,001
165,313	3	-0,001
167,431	3	-0,001
169,555	3	-0,001
171,679	3	0
173,791	3	-0,009
175,909	3	-0,047
178,026	3	-0,093
180,15	3	-0,186
182,262	3	-0,2
184,374	3	-0,223
186,504	2	-0,317
188,628	1,5	-0,406
190,746	0,5	-0,486
192,87	0	-0,595
194,988	-0,5	-0,6
197,105	-1	-0,642
199,229	-1	-0,688
201,359	-3	-0,785
203,481	-3	-0,806
205,595	-3,5	-0,837
207,713	-2,5	-0,815
209,837	-2,5	-0,717
211,961	-3	-0,78
214,078	-2,5	-0,741
216,208	-3	-0,823
218,326	-2,5	-0,8
220,45	-2,5	-0,804
222,574	-3	-0,796
224,692	-3	-0,85
226,816	-4,5	-0,9
228,952	-5	-1,058
231,069	-5,5	-1,149
233,193	-7	-1,322
235,311	-7	-1,36
237,435	-8,5	-1,548
239,547	-8,5	-1,55
241,677	-9	-1,614
243,807	-9	-1,641
245,925	-7,5	-1,593
248,049	-10	-1,725
250,178	-9,5	-1,63
252,308	-9,5	-1,717
254,432	-10,5	-1,777
256,562	-11	-1,886
258,686	-11	-1,904
260,81	-11,5	-1,934
262,94	-12,5	-1,983
265,07	-12,5	-2,042
267,193	-13	-2,088
269,323	-13	-2,137
271,453	-14,5	-2,228
273,583	-14,5	-2,288
275,713	-16,5	-2,422
277,838	-16,5	-2,484
279,961	-16	-2,541
282,091	-19	-2,643
284,22	-20,5	-2,807
286,351	-21,5	-2,889
288,474	-21,5	-2,908
290,598	-22	-2,983
292,728	-21,5	-3,018
294,846	-22,5	-3,108
296,976	-24,5	-3,233
299,1	-25	-3,292
301,217	-25,5	-3,302
303,341	-26	-3,331
305,471	-27,5	-3,373
307,595	-27,5	-3,397
309,719	-27	-3,379
311,843	-25	-3,354
313,961	-25,5	-3,327
316,091	-25,5	-3,303
318,215	-25	-3,274
320,338	-23	-3,131
322,468	-23	-3,053
324,598	-22,5	-3,055
326,728	-22	-3,071
328,864	-23,5	-3,176
330,994	-23,5	-3,157
333,112	-23,5	-3,13
335,241	-21,5	-3,094
337,365	-25	-3,274
339,489	-26	-3,331
341,619	-25	-3,294
343,749	-26	-3,33
345,891	-27,5	-3,386
348,009	-28	-3,403
350,133	-28	-3,399
352,263	-28	-3,421
354,392	-29	-3,435
356,528	-30	-3,452
358,652	-29,5	-3,45
360,782	-29	-3,452
362,906	-29,5	-3,456
365,036	-30	-3,463
367,172	-30	-3,471
369,296	-30	-3,467
371,425	-30,5	-3,474
373,561	-30	-3,475
375,685	-30,5	-3,481
377,827	-30,5	-3,488
379,957	-30,5	-3,492
382,081	-30,5	-3,492
384,199	-30,5	-3,492
386,311	-30,5	-3,49
388,44	-30,5	-3,489
390,564	-30,5	-3,489
392,688	-30,5	-3,492
394,812	-30,5	-3,491
396,942	-30,5	-3,491
399,066	-31	-3,493
401,19	-30,5	-3,494
403,32	-30,5	-3,494
405,449	-30,5	-3,495
407,579	-30,5	-3,494
409,703	-30,5	-3,494
411,833	-30,5	-3,495
413,957	-30,5	-3,496
416,081	-30,5	-3,495
418,205	-30,5	-3,494
420,341	-30,5	-3,494
422,465	-30,5	-3,496
424,594	-30,5	-3,497
426,712	-30,5	-3,496
428,83	-30,5	-3,495
430,96	-30,5	-3,496
433,078	-30,5	-3,495
435,208	-30,5	-3,495
437,332	-30,5	-3,496
439,462	-30,5	-3,497
441,585	-30,5	-3,497
443,709	-30,5	-3,497
445,833	-30,5	-3,496
447,963	-30,5	-3,497
450,093	-30,5	-3,497
452,211	-30,5	-3,497
454,341	-30,5	-3,495
456,465	-30	-3,497
458,594	-30,5	-3,495
460,718	-30	-3,496
462,866	-30,5	-3,498
464,99	-30	-3,498
467,12	-30	-3,498
469,25	-30	-3,498
471,374	-30	-3,498
473,498	-30	-3,498
475,627	-30	-3,498
477,757	-30	-3,498
479,887	-30	-3,499
482,011	-30	-3,499
484,135	-30	-3,498
486,265	-30	-3,359
488,401	-29	-3,166
490,531	-29	-3,118
492,654	-29	-3,065
494,778	-26	-2,968
496,902	-26,5	-2,969
499,032	-27,5	-2,983
501,168	-25,5	-2,889
503,298	-24,5	-2,868
505,416	-26	-2,979
507,546	-25	-2,86
509,67	-24,5	-2,825
511,793	-25	-2,849
513,917	-25	-2,925
516,041	-25,5	-2,928
518,165	-27	-3
520,289	-25,5	-2,874
522,425	-24	-2,758
524,549	-24	-2,733
526,673	-24,5	-2,821
528,796	-24	-2,818
530,926	-24	-2,768
533,05	-24	-2,76
535,174	-22,5	-2,732
537,298	-22,5	-2,702
539,428	-23	-2,694
541,552	-24	-2,762
543,676	-24,5	-2,891
545,799	-25,5	-2,941
547,917	-26	-2,994
550,053	-27	-3,08
552,177	-27,5	-3,084
554,307	-28,5	-3,099
556,431	-29	-3,106
558,555	-28	-3,135
560,685	-26	-2,964
562,815	-24	-2,849
564,938	-25	-2,889
567,062	-26,5	-2,993
569,192	-24,5	-2,908
571,322	-26,5	-2,995
573,446	-25,5	-2,934
575,57	-27	-2,979
577,7	-25,5	-2,941
579,829	-25,5	-2,914
581,953	-25,5	-2,953
584,071	-26,5	-3,055
586,195	-26	-3,009
588,319	-26,5	-3,004
590,455	-25	-2,927
592,585	-26	-2,937
594,709	-24,5	-2,877
596,851	-22	-2,664
598,981	-22	-2,594
601,098	-20	-2,451
603,222	-20,5	-2,459
605,352	-19	-2,389
607,47	-20	-2,449
609,6	-20	-2,414
611,73	-18,5	-2,333
613,848	-17,5	-2,266
615,971	-18	-2,294
618,095	-17,5	-2,263
620,219	-18,5	-2,284
622,349	-16,5	-2,217
624,473	-16,5	-2,193
626,603	-16,5	-2,154
628,739	-14,5	-1,96
630,863	-13,5	-1,86
632,998	-10,5	-1,648
635,129	-8,5	-1,502
637,252	-6,5	-1,309
639,376	-6	-1,215
641,506	-5,5	-1,06
643,63	-4	-0,934
645,76	-3,5	-0,823
647,884	-3	-0,749
650,002	-3	-0,728
652,125	-3	-0,699
654,255	-2	-0,624
656,385	-1,5	-0,5
658,509	0	-0,337
660,633	0	-0,278
662,757	0,5	-0,201
664,881	0,5	-0,16
667,011	1,5	-0,132
669,129	0,5	-0,218
671,258	0,5	-0,181
673,382	1,5	-0,111
675,506	2,5	-0,081
677,636	1,5	-0,104
679,76	0,5	-0,176
681,89	0,5	-0,191
684,014	-0,5	-0,392
686,137	-1	-0,506
688,261	-2	-0,608
690,385	-2	-0,649
692,509	-1	-0,497
694,639	-1	-0,432
696,757	-1,5	-0,518
698,881	-3	-0,727
701,011	-3	-0,833
703,134	-4,5	-1,01
705,264	-4	-1,014
707,388	-4	-0,984
709,512	-4	-0,938
711,636	-3	-0,836
713,766	-3,5	-0,956
715,89	-4,5	-1,022
718,014	-4	-0,972
720,137	-5	-1,08
722,261	-4	-1,029
724,385	-5	-1,143
726,503	-4,5	-1,101
728,645	-4,5	-1,05
730,769	-5	-1,09
732,893	-4,5	-1,065
735,023	-4	-0,994
737,153	-4	-0,93
739,27	-3,5	-0,931
741,4	-3	-0,878
743,524	-4	-1,002
745,648	-3,5	-0,918
747,766	-3	-0,804
749,884	-2	-0,765
752,002	-2	-0,669
754,132	-1,5	-0,541
756,255	-1	-0,484
758,379	-0,5	-0,433
760,503	-1	-0,431
762,627	-1,5	-0,396
764,745	-1,5	-0,514
766,863	-1	-0,433
768,987	-0,5	-0,388
771,111	-0,5	-0,374
773,234	-0,5	-0,344
775,364	0	-0,296
777,488	-0,5	-0,34
779,606	0	-0,33
781,736	-0,5	-0,302
783,86	0	-0,311
785,99	0	-0,309
788,114	-1,5	-0,477
790,237	-0,5	-0,448
792,361	-0,5	-0,422
794,491	-0,5	-0,279
796,615	0	-0,215
798,739	0,5	-0,196
800,863	1	-0,149
802,981	0,5	-0,162
805,105	0,5	-0,183
807,235	0	-0,133
809,358	2	-0,082
811,488	2,5	-0,065
813,612	3	-0,049
815,742	3	-0,04
817,86	3,5	-0,038
819,99	3,5	-0,025
822,12	3,5	-0,018
824,238	3,5	-0,022
826,373	3,5	-0,013
828,503	3,5	-0,009
830,621	3,5	-0,008
832,757	3,5	-0,006
834,881	3,5	-0,008
837,005	3,5	-0,01
839,123	3,5	-0,012
841,241	3,5	-0,012
843,364	3	-0,024
845,494	3	-0,056
847,612	0,5	-0,136
849,742	1	-0,143
851,866	0,5	-0,152
853,99	1	-0,128
856,114	1,5	-0,128
858,238	1,5	-0,092
860,361	2	-0,076
862,485	2,5	-0,066
864,603	3	-0,052
866,727	3	-0,034
868,845	3,5	-0,026
870,969	3,5	-0,018
873,093	3,5	-0,013
875,217	3,5	-0,009
877,346	3,5	-0,005
879,47	3,5	-0,004
881,6	3,5	-0,003
883,718	3,5	-0,003
885,848	3,5	-0,002
887,972	3,5	-0,001
890,096	3,5	-0,001
892,22	3,5	-0,001
894,338	3,5	-0,001
896,461	3,5	0
898,585	3,5	-0,015
900,715	3,5	-0,026
902,839	3,5	-0,215
904,963	3,5	-0,306
907,087	3	-0,416
909,211	2	-0,392
911,335	1,5	-0,524
913,459	0	-0,627
915,576	0,5	-0,58
917,706	-1,5	-0,82
919,83	-1	-0,69
921,966	0,5	-0,604
924,084	1,5	-0,561
926,208	0,5	-0,629
928,326	0	-0,648
930,449	0,5	-0,535
932,573	0	-0,612
934,697	2,5	-0,423
936,822	2,5	-0,458
938,939	2	-0,491
941,069	0	-0,603
943,193	-0,5	-0,686
945,317	-1,5	-0,8
947,434	-2,5	-0,906
949,558	-3	-1,016
951,688	-3,5	-1,086
953,812	-3	-0,926
955,93	-3	-0,95
958,048	-2	-0,806
960,172	-2,5	-0,895
962,296	-1,5	-0,802
964,42	0,5	-0,614
966,543	2,5	-0,467
968,667	1,5	-0,506
970,791	1	-0,527
972,909	1	-0,537
975,033	1,5	-0,632
977,157	0	-0,682
979,281	0	-0,654
981,405	0,5	-0,656
983,522	-0,5	-0,762
985,646	-2	-0,786
987,77	0	-0,625
989,894	0	-0,665
992,012	0,5	-0,59
994,136	2	-0,492
996,26	2,5	-0,436
998,378	3	-0,329
1000,501	3,5	-0,337
1002,625	3	-0,313
1004,749	3	-0,304
1006,879	3,5	-0,312
1009,003	3	-0,32
1011,121	3	-0,325
1013,245	3	-0,339
1015,363	2,5	-0,333
1017,487	2,5	-0,406
1019,61	2	-0,574
1021,734	0	-0,663
1023,852	-0,5	-0,7
1025,976	-1	-0,761
1028,1	-2	-0,887
1030,218	-2,5	-0,972
1032,342	-3,5	-1,05
1034,466	-3,5	-1,111
1036,589	-4	-1,211
1038,713	-4,5	-1,329
1040,837	-5,5	-1,582
1042,955	-5,5	-1,555
1045,079	-5,5	-1,601
1047,197	-6	-1,606
1049,327	-7	-1,745
1051,451	-7,5	-1,838
1053,574	-8	-1,91
1055,698	-6,5	-1,726
1057,823	-6	-1,592
1059,94	-6,5	-1,692
1062,07	-7,5	-1,822
1064,194	-8	-1,899
1066,312	-8	-1,946
1068,43	-7,5	-1,871
1070,547	-8,5	-1,94
1072,677	-6,5	-1,787
1074,801	-7,5	-1,822
1076,925	-8	-1,889
1079,049	-7	-1,817
1081,173	-7	-1,826
1083,297	-7,5	-1,92
1085,427	-9	-2,043
1087,544	-9,5	-2,047
1089,662	-10	-2,101
1091,792	-10,5	-2,251
1093,904	-9,5	-2,055
1096,03	-8,5	-1,989
1098,152	-9	-2,062
1100,27	-9,5	-2,12
1102,394	-10,5	-2,23
1104,518	-12,5	-2,354
1106,635	-12	-2,32
1108,771	-13,5	-2,506
1110,889	-14	-2,572
1113,019	-16	-2,705
1115,143	-17	-2,808
1117,261	-18	-2,867
1119,391	-18	-2,959
1121,509	-19,5	-3,038
1123,638	-22	-3,182
1125,756	-21,5	-3,145
1127,874	-19	-3,032
1129,998	-21	-3,09
1132,116	-21	-3,206
1134,246	-23,5	-3,344
1136,376	-25	-3,401
1138,494	-24	-3,39
1140,623	-22,5	-3,392
1142,741	-24,5	-3,399
1144,871	-24	-3,372
1146,995	-23,5	-3,4
1149,125	-23,5	-3,413
1151,243	-24,5	-3,4
1153,367	-23,5	-3,354
1155,485	-24	-3,392
1157,614	-23	-3,39
1159,738	-24	-3,377
1161,862	-24	-3,387
1163,986	-24,5	-3,398
1166,104	-23,5	-3,386
1168,228	-23	-3,409
1170,352	-24	-3,403
1172,482	-24	-3,38
1174,606	-22	-3,333
1176,723	-20,5	-3,298
1178,841	-22	-3,257
1180,959	-22	-3,245
1183,077	-22,5	-3,269
1185,201	-19,5	-3,146
1187,325	-17	-3,076
1189,443	-18	-2,952
1191,567	-17,5	-2,892
1193,691	-17,5	-2,943
1195,82	-17	-2,97
1197,938	-19	-3,007
1200,062	-19	-3,037
1202,186	-20	-3,114
1204,304	-19,5	-3,167
1206,428	-20	-3,298
1208,552	-23	-3,312
1210,675	-24	-3,358
1212,793	-24	-3,373
1214,917	-22,5	-3,415
1217,041	-24,5	-3,403
1219,165	-24	-3,393
1221,289	-25,5	-3,438
1223,413	-24,5	-3,441
1225,531	-26	-3,441
1227,661	-26	-3,453
1229,784	-26,5	-3,462
1231,908	-25,5	-3,465
1234,026	-26,5	-3,468
1236,15	-26,5	-3,465
1238,274	-26,5	-3,47
1240,392	-25,5	-3,464
1242,516	-24	-3,455
1244,634	-25,5	-3,442
1246,757	-25	-3,439
1248,875	-25,5	-3,448
1250,999	-25,5	-3,453
1253,123	-25	-3,446
1255,247	-24	-3,429
1257,371	-24	-3,406
1259,489	-23,5	-3,374
1261,607	-21,5	-3,322
1263,73	-22,5	-3,331
1265,854	-21,5	-3,278
1267,978	-20,5	-3,202
1270,096	-19,5	-3,11
1272,22	-18	-3,029
1274,338	-16,5	-2,929
1276,456	-16,5	-2,911
1278,574	-17,5	-2,96
1280,697	-16	-2,861
1282,821	-14,5	-2,736
1284,945	-13,5	-2,649
1287,063	-13	-2,616
1289,193	-12	-2,485
1291,311	-12	-2,436
1293,441	-11,5	-2,454
1295,565	-12,5	-2,547
1297,683	-12	-2,514
1299,8	-10,5	-2,351
1301,93	-11	-2,356
1304,048	-10,5	-2,287
1306,184	-10	-2,318
1308,296	-10	-2,288
1310,42	-11	-2,391
1312,538	-11	-2,408
1314,668	-9,5	-2,196
1316,779	-8,5	-2,123
1318,909	-8,5	-2,081
1321,033	-7	-1,857
1323,151	-6,5	-1,824
1325,281	-5,5	-1,696
1327,399	-5,5	-1,686
1329,529	-5,5	-1,612
1331,647	-4,5	-1,442
1333,776	-4	-1,417
1335,894	-3,5	-1,256
1338,018	-3	-1,228
1340,142	-3	-1,145
1342,272	-3	-1,248
1344,39	-3,5	-1,19
1346,514	-3	-1,102
1348,644	-4	-1,306
1350,767	-3,5	-1,32
1352,885	-4	-1,308
1355,009	-3,5	-1,29
1357,127	-3,5	-1,199
1359,251	-2,5	-1,102
1361,369	-1,5	-0,824
1363,493	-1,5	-0,881
1365,611	-1	-0,8
1367,74	-2	-0,94
1369,87	-1,5	-0,882
1371,994	-2	-0,94
1374,118	-2	-1,001
1376,236	-2,5	-1,07
1378,36	-3,5	-1,252
1380,49	-4	-1,366
1382,608	-4	-1,371
1384,732	-4,5	-1,442
1386,849	-4	-1,437
1388,979	-5	-1,55
1391,097	-4,5	-1,54
1393,221	-5,5	-1,643
1395,339	-5,5	-1,616
1397,463	-6	-1,72
1399,581	-6	-1,773
1401,711	-7	-1,902
1403,822	-7	-1,851
1405,946	-7	-1,916
1408,07	-7,5	-1,972
1410,194	-7,5	-2,029
1412,312	-8	-2,075
1414,442	-9	-2,11
1416,56	-9,5	-2,168
1418,684	-9,5	-2,202
1420,807	-10	-2,26
1422,937	-10,5	-2,297
1425,061	-10,5	-2,342
1427,179	-11	-2,389
1429,309	-11	-2,392
1431,427	-12	-2,5
1433,551	-12,5	-2,575
1435,669	-13,5	-2,666
1437,798	-15	-2,782
1439,916	-16	-2,825
1442,04	-16,5	-2,908
1444,158	-17,5	-2,955
1446,282	-18,5	-3,066
1448,4	-19,5	-3,144
1450,518	-21,5	-3,269
1452,636	-22	-3,308
1454,76	-23,5	-3,378
1456,877	-23,5	-3,387
1459,001	-23,5	-3,402
1461,119	-24	-3,413
1463,243	-24,5	-3,444
1465,361	-25	-3,449
1467,485	-25,5	-3,463
1469,603	-25,5	-3,468
1471,727	-26	-3,48
1473,85	-26	-3,485
1475,974	-26	-3,487
1478,092	-26	-3,489
1480,21	-26	-3,49
1482,34	-26,5	-3,493
1484,464	-26,5	-3,494
1486,594	-26,5	-3,495
1488,718	-26,5	-3,495
1490,841	-26,5	-3,494
1492,959	-26,5	-3,494
1495,083	-26	-3,496
1497,201	-26,5	-3,496
1499,325	-26,5	-3,497
1501,443	-26	-3,497
1503,561	-26,5	-3,497
1505,691	-26,5	-3,498
1507,808	-26,5	-3,496
1509,938	-26,5	-3,498
1512,056	-26	-3,498
1514,18	-26	-3,494
1516,298	-26	-3,494
1518,428	-26,5	-3,494
1520,552	-26	-3,495
1522,676	-26,5	-3,497
1524,8	-26,5	-3,497
1526,923	-26	-3,498
1529,047	-26	-3,495
1531,165	-26	-3,495
1533,295	-26,5	-3,497
1535,413	-26,5	-3,497
1537,537	-26,5	-3,498
1539,661	-26,5	-3,494
1541,785	-26	-3,497
1543,902	-26	-3,488
1546,032	-26	-3,489
1548,156	-25,5	-3,465
1550,28	-23	-3,381
1552,398	-24	-3,398
1554,516	-24	-3,416
1556,64	-24,5	-3,433
1558,758	-21,5	-3,296
1560,887	-21,5	-3,311
1563,011	-22,5	-3,346
1565,141	-23	-3,378
1567,259	-23,5	-3,402
1569,389	-24,5	-3,422
1571,507	-24	-3,422
1573,631	-21,5	-3,259
1575,749	-22	-3,292
1577,866	-21,5	-3,332
1579,996	-23,5	-3,386
1582,114	-23,5	-3,395
1584,238	-23,5	-3,408
1586,362	-23,5	-3,429
1588,486	-24	-3,435
1590,604	-24,5	-3,453
1592,728	-25,5	-3,466
1594,846	-25,5	-3,475
1596,963	-25	-3,475
1599,081	-25,5	-3,479
1601,205	-26	-3,485
1603,323	-26	-3,487
1605,453	-26,5	-3,492
1607,571	-26	-3,49
1609,701	-26	-3,495
1611,819	-25,5	-3,485
1613,943	-26	-3,488
1616,066	-26	-3,492
1618,196	-26	-3,495
1620,326	-26	-3,496
1622,444	-26	-3,494
1624,568	-26	-3,495
1626,692	-26,5	-3,493
1628,816	-26	-3,493
1630,933	-26	-3,492
1633,057	-26	-3,494
1635,175	-26	-3,495
1637,293	-26,5	-3,496
1639,417	-26,5	-3,498
1641,535	-26	-3,491
1643,659	-26,5	-3,494
1645,783	-26	-3,496
1647,907	-26	-3,497
1650,03	-26	-3,498
1652,154	-26,5	-3,498
1654,272	-26,5	-3,499
1656,39	-26	-3,499
1658,514	-26	-3,499
1660,632	-26	-3,499
1662,756	-26	-3,5
1664,879	-26	-3,445
1666,997	-26	-3,316
1669,109	-26	-3,247
1671,233	-24,5	-3,099
1673,357	-23,5	-3,025
1675,475	-23	-2,999
1677,599	-24	-2,863
1679,717	-24,5	-2,874
1681,835	-21,5	-2,805
1683,952	-25	-3,141
1686,076	-26	-3,338
1688,194	-25,5	-3,5
1690,318	-26	-3,498
1692,436	-26	-3,495
1694,554	-25,5	-3,487
1696,678	-25	-3,471
1698,802	-25	-3,476
1700,925	-25	-3,452
1703,043	-25	-3,46
1705,167	-25,5	-3,475
1707,279	-25	-3,471
1709,403	-25	-3,473
1711,527	-25,5	-3,482
1713,645	-25,5	-3,487
1715,769	-25,5	-3,488
1717,886	-25	-3,463
1720,004	-21	-3,399
1722,134	-21	-3,292
1724,246	-19	-3,083
1726,376	-20,5	-3,248
1728,494	-19	-3,239
1730,618	-22,5	-3,302
1732,742	-18	-3,026
1734,86	-17,5	-2,962
1736,983	-17	-3,04
1739,101	-19	-3,167
1741,231	-19,5	-3,238
1743,349	-20	-3,278
1745,473	-20,5	-3,305
1747,591	-21,5	-3,342
1749,721	-23	-3,38
1751,839	-23	-3,397
1753,962	-24	-3,433
1756,086	-24,5	-3,45
1758,21	-24,5	-3,457
1760,34	-25	-3,461
1762,458	-25	-3,459
1764,576	-25	-3,468
1766,7	-25	-3,471
1768,824	-25	-3,475
1770,947	-25	-3,479
1773,071	-25,5	-3,483
1775,201	-25,5	-3,487
1777,319	-26	-3,491
1779,437	-26	-3,494
1781,567	-25,5	-3,496
1783,685	-26	-3,496
1785,809	-25,5	-3,497
1787,927	-25,5	-3,497
1790,044	-25,5	-3,497
1792,168	-26	-3,498
1794,286	-25,5	-3,498
1796,41	-26	-3,499
1798,534	-25,5	-3,499
1800,652	-25,5	-3,497
1802,782	-25,5	-3,369
1804,9	-25,5	-3,296
1807,023	-25,5	-3,212
1809,141	-25,5	-3,19
1811,259	-25	-3,144
1813,383	-24	-3,018
1815,501	-24	-3,044
1817,631	-22	-2,834
1819,749	-21,5	-2,772
1821,873	-20	-2,726
1823,99	-21,5	-2,652
1826,108	-18,5	-2,54
1828,232	-15,5	-2,426
1830,356	-15	-2,338
1832,48	-14,5	-2,27
1834,598	-14,5	-2,277
1836,716	-14,5	-2,293
1838,84	-13,5	-2,209
1840,963	-13	-2,143
1843,088	-12,5	-2,077
1845,205	-11,5	-2,013
1847,323	-12	-2,041
1849,447	-11	-1,979
1851,565	-12	-2,063
1853,689	-12	-2,003
1855,807	-15	-2,278
1857,937	-12,5	-2,156
1860,054	-12	-2,118
1862,178	-11,5	-2,025
1864,308	-12	-2,013
1866,432	-10	-1,936
1868,556	-9,5	-1,869
1870,674	-12	-2,078
1872,798	-13	-2,164
1874,928	-12	-2,036
1877,045	-11,5	-2,024
1879,163	-11	-1,878
1881,287	-9,5	-1,788
1883,405	-7,5	-1,602
1885,529	-6	-1,52
1887,647	-6,5	-1,499
1889,771	-5	-1,385
1891,895	-5	-1,35
1894,012	-5	-1,366
1896,136	-5,5	-1,326
1898,254	-5	-1,3
1900,372	-4,5	-1,254
1902,496	-4,5	-1,244
1904,62	-4,5	-1,203
1906,744	-3,5	-1,068
1908,862	-3,5	-1,079
1910,979	-3	-1,032
1913,103	-3	-1,008
1915,221	-3	-0,968
1917,351	-2	-0,878
1919,469	-1,5	-0,827
1921,599	-1,5	-0,703
1923,717	-1	-0,687
1925,841	-1	-0,667
1927,964	-0,5	-0,558
1930,082	-0,5	-0,569
1932,2	-0,5	-0,533
1934,324	0	-0,455
1936,442	0	-0,44
1938,566	0	-0,347
1940,69	0,5	-0,317
1942,815	0,5	-0,289
1944,932	1	-0,235
1947,049	0,5	-0,224
1949,179	1	-0,153
1951,297	1,5	-0,138
1953,421	1,5	-0,13
1955,545	2	-0,1
1957,663	2,5	-0,082
1959,793	3	-0,062
1961,917	3	-0,059
1964,04	1	-0,205
1966,158	1	-0,185
1968,276	1	-0,158
1970,4	1,5	-0,118
1972,524	3	-0,091
1974,642	3	-0,08
1976,766	3	-0,056
1978,884	3,5	-0,042
1981,013	3,5	-0,033
1983,131	3,5	-0,029
1985,255	4	-0,018
1987,379	4	-0,013
1989,497	4	-0,013
1991,615	4	-0,01
1993,739	4	-0,009
1995,857	4	-0,007
1997,98	4	-0,006
2000,098	4	-0,004
2002,216	4	-0,003
2004,34	4	-0,002
2006,458	4	-0,002
2008,582	4	-0,002
2010,7	4	-0,001
2012,824	4	-0,001
2014,947	3,5	-0,001
2017,071	3,5	-0,001
2019,189	3,5	0
2021,307	4	0
2023,425	4	-0,062
2025,549	4	0
2027,667	4	0
2029,791	4	-0,003
2031,909	4	-0,023
2034,038	3,5	-0,252
2036,156	3,5	-0,338
2038,286	1,5	-0,483
2040,41	2,5	-0,476
2042,528	2	-0,48
2044,652	3	-0,466
2046,776	2,5	-0,517
2048,894	1	-0,582
2051,017	0	-0,574
2053,135	3,5	-0,312
2055,253	3,5	-0,312
2057,383	3	-0,377
2059,507	2,5	-0,45
2061,625	2	-0,45
2063,749	2	-0,494
2065,867	3	-0,398
2067,99	2,5	-0,445
2070,108	2	-0,497
2072,232	0	-0,677
2074,35	0	-0,712
2076,468	-1	-0,83
2078,592	-1,5	-0,922
2080,71	-1,5	-0,944
2082,828	-2	-0,991
2084,958	-2,5	-1,067
2087,075	-3	-1,205
2089,199	-3	-1,287
2091,311	-3,5	-1,442
2093,429	-4	-1,533
2095,553	-4,5	-1,68
2097,671	-5,5	-1,822
2099,789	-6	-1,972
2101,925	-7,5	-2,162
2104,042	-7,5	-2,119
2106,166	-7	-2,105
2108,284	-7,5	-2,122
2110,402	-8	-2,212
2112,532	-8,5	-2,303
2114,65	-9	-2,351
2116,774	-10,5	-2,423
2118,892	-10,5	-2,546
2121,015	-11,5	-2,553
2123,145	-12	-2,661
2125,269	-13	-2,765
2127,387	-13,5	-2,839
2129,517	-15	-2,893
2131,635	-15	-2,93
2133,759	-16,5	-3,04
2135,877	-15	-3,022
2137,994	-16,5	-3,049
2140,118	-17,5	-3,105
2142,242	-16,5	-3,15
2144,366	-18	-3,191
2146,49	-17,5	-3,271
2148,608	-16,5	-3,278
2150,732	-21,5	-3,348
2152,85	-20,5	-3,355
2154,967	-21,5	-3,382
2157,097	-19	-3,407
2159,215	-23	-3,42
2161,339	-23	-3,44
2163,463	-23	-3,442
2165,587	-23	-3,463
2167,705	-23	-3,469
2169,829	-24	-3,477
2171,947	-24	-3,48
2174,076	-24	-3,484
2176,194	-23,5	-3,485
2178,318	-24	-3,486
2180,442	-24	-3,489
2182,56	-24	-3,489
2184,69	-24	-3,493
2186,808	-23,5	-3,494
2188,932	-24	-3,496
2191,055	-24	-3,496
2193,173	-24	-3,497
2195,291	-24	-3,498
2197,415	-24	-3,498
2199,533	-24	-3,498
2201,651	-24	-3,498
2203,775	-24	-3,499
2205,899	-24	-3,498
2208,016	-24	-3,499
2210,152	-23,5	-3,5
2212,27	-24	-3,498
2214,406	-24	-3,498
2216,524	-24	-3,492
2218,642	-24	-3,49
2220,766	-24	-3,493
2222,884	-23,5	-3,494
2225,008	-24	-3,495
2227,125	-24	-3,496
2229,243	-23,5	-3,496
2231,373	-23,5	-3,498
2233,491	-23	-3,498
2235,609	-22,5	-3,499
2237,739	-22,5	-3,499
2239,857	-22,5	-3,498
2241,975	-22	-3,499
2244,098	-22	-3,499
2246,222	-21,5	-3,5
2248,346	-21	-3,456
2250,464	-21	-3,388
2252,582	-21	-3,418
2254,706	-21	-3,37
2256,824	-20,5	-3,232
2258,942	-21	-3,496
2261,072	-20,5	-3,36
2263,195	-20,5	-3,364
2265,331	-20	-3,175
2267,449	-19,5	-3,115
2269,573	-18,5	-3,005
2271,697	-15,5	-2,869
2273,821	-14	-2,727
2275,939	-12	-2,628
2278,062	-11,5	-2,598
2280,18	-10,5	-2,518
2282,304	-9	-2,499
2284,422	-9	-2,473
2286,54	-9	-2,367
2288,664	-6,5	-2,204
2290,782	-7	-2,21
2292,9	-7	-2,199
2295,017	-6	-2,068
2297,129	-4,5	-1,895
2299,253	-4	-1,85
2301,377	-5	-1,968
2303,495	-5	-2,008
2305,619	-4,5	-1,924
2307,737	-4	-1,866
2309,855	-3,5	-1,813
2311,979	-3	-1,657
2314,09	-2,5	-1,591
2316,208	-2	-1,543
2318,332	-2	-1,449
2320,45	-2	-1,466
2322,574	-1,5	-1,415
2324,692	-1,5	-1,325
2326,81	-1	-1,294
2328,934	-1	-1,187
2331,051	-0,5	-1,128
2333,163	-0,5	-1,178
2335,281	-0,5	-1,136
2337,399	-0,5	-1,126
2339,517	-0,5	-1,068
2341,641	0	-0,968
2343,765	0	-0,918
2345,889	0	-0,827
2348,006	0	-0,798
2350,124	0	-0,788
2352,248	0	-0,694
2354,366	0	-0,637
2356,496	0,5	-0,534
2358,62	1	-0,424
2360,738	1,5	-0,329
2362,862	1,5	-0,289
2364,98	1,5	-0,251
2367,097	1,5	-0,235
2369,221	2	-0,206
2371,339	1,5	-0,225
2373,457	2	-0,214
2375,581	2	-0,192
2377,699	2	-0,198
2379,829	2	-0,154
2381,947	2,5	-0,118
2384,065	3	-0,09
2386,188	3	-0,068
2388,306	3	-0,074
2390,424	3,5	-0,067
2392,548	3,5	-0,058
2394,666	3,5	-0,051
2396,79	3,5	-0,046
2398,908	3,5	-0,045
2401,025	3,5	-0,04
2403,149	3,5	-0,037
2405,273	3,5	-0,037
2407,397	4	-0,027
2409,515	4	-0,028
2411,633	3,5	-0,026
2413,757	4	-0,018
2415,875	4	-0,017
2417,992	4	-0,015
2420,116	4	-0,014
2422,234	4	-0,013
2424,352	4	-0,011
2426,476	4	-0,009
2428,594	4	-0,008
2430,718	4	-0,008
2432,836	4	-0,017
2434,954	4	-0,016
2437,077	4	-0,016
2439,195	4	-0,013
2441,319	4	-0,014
2443,443	4	-0,011
2445,561	4	-0,01
2447,685	4	-0,008
2449,803	4	-0,008
2451,921	4	-0,008
2454,05	4	-0,006
2456,168	4	-0,007
2458,286	4	-0,008
2460,41	4	-0,007
2462,528	4	-0,008
2464,652	4	-0,006
2466,77	4	-0,007
2468,888	4	-0,012
2471,005	3,5	-0,038
2473,123	3,5	-0,065
2475,241	3	-0,084
2477,365	2,5	-0,128
2479,477	2	-0,207
2481,595	2	-0,225
2483,719	1,5	-0,277
2485,837	1,5	-0,398
2487,955	1	-0,452
2490,078	1	-0,406
2492,196	1,5	-0,358
2494,32	0	-0,775
2496,438	0	-0,828
2498,556	-0,5	-1,228
2500,68	-0,5	-1,282
2502,798	-1,5	-1,486
2504,909	-1,5	-1,486
2507,039	-1,5	-1,52
2509,157	-1	-1,468
2511,275	-1,5	-1,58
2513,393	-1,5	-1,607
2515,511	-1,5	-1,608
2517,635	-1,5	-1,583
2519,753	-3	-1,944
2521,877	-3,5	-2,053
2523,994	-4,5	-2,319
2526,112	-4,5	-2,283
2528,23	-6	-2,539
2530,348	-8	-2,725
2532,466	-13,5	-3,077
2534,59	-11	-3,015
2536,708	-10,5	-2,988
2538,832	-14	-3,249
2540,949	-13	-3,174
2543,067	-13	-3,195
2545,191	-12	-3,079
2547,309	-11	-3,043
2549,427	-10	-2,963
2551,551	-10,5	-2,982
2553,669	-10,5	-3,019
2555,793	-9,5	-2,904
2557,916	-9	-2,843
2560,034	-8	-2,763
2562,158	-8	-2,724
2564,276	-7	-2,644
2566,394	-5,5	-2,522
2568,542	-5	-2,293
2570,66	-4,5	-2,283
2572,778	-3,5	-2,165
2574,901	-3	-2,003
2577,019	-2,5	-1,95
2579,149	-1,5	-1,8
2581,267	-1	-1,72
2583,385	-1	-1,683
2585,509	-0,5	-1,553
2587,627	-0,5	-1,538
2589,745	-0,5	-1,428
2591,869	0	-1,364
2593,992	0	-1,219
2596,116	0	-1,169
2598,234	0	-1,008
2600,352	0,5	-0,918
2602,476	0,5	-0,814
2604,594	0,5	-0,772
2606,712	1	-0,613
2608,836	1	-0,568
2610,953	1	-0,499
2613,077	1	-0,458
2615,195	1	-0,448
2617,313	1,5	-0,4
2619,437	1,5	-0,277
2621,555	1,5	-0,264
2623,679	2	-0,172
2625,797	2	-0,142
2627,914	3	-0,085
2630,038	3,5	-0,062
2632,156	3,5	-0,04
2634,274	4	-0,026
2636,398	4	-0,017
2638,516	4	-0,011
2640,634	4	-0,009
2642,758	4,5	-0,007
2644,888	4,5	-0,005
2647,011	4	-0,004
2649,129	4,5	-0,003
2651,247	4	-0,003
2653,371	4	-0,002
2655,489	4	-0,001
2657,607	4	-0,001
2659,731	4	-0,036
2661,849	4	-0,223
2663,972	3,5	-0,389
2666,09	3	-0,468
2668,208	2	-0,516
2670,332	2	-0,535
2672,45	1	-0,641
2674,568	0	-0,715
2676,692	0	-0,776
2678,81	0	-0,808
2680,933	0	-0,855
2683,051	-0,5	-0,976
2685,169	-0,5	-0,97
2687,293	-0,5	-1,049
2689,411	-1	-1,143
2691,529	-1	-1,255
2693,653	-1	-1,187
2695,771	-1	-1,204
2697,888	-1,5	-1,32
2700,012	-1,5	-1,43
2702,124	-1,5	-1,506
2704,242	-1,5	-1,536
2706,366	-2	-1,641
2708,484	-2	-1,614
2710,608	-2	-1,654
2712,726	-1,5	-1,574
2714,844	-2	-1,569
2716,967	-1,5	-1,556
2719,085	-1,5	-1,326
2721,209	-1	-1,366
2723,327	-1	-1,238
2725,439	-1	-1,219
2727,557	-0,5	-1,001
2729,675	-0,5	-1,016
2731,793	0	-1,047
2733,916	-0,5	-1,009
2736,034	-0,5	-0,997
2738,152	0	-0,836
2740,276	2	-0,541
2742,394	1,5	-0,558
2744,518	2	-0,54
2746,636	1,5	-0,576
2748,754	1,5	-0,597
2750,877	1,5	-0,638
2752,995	1,5	-0,564
2755,119	2	-0,54
2757,237	2	-0,561
2759,355	2,5	-0,501
2761,479	4	-0,23
2763,597	4	-0,236
2765,715	4	-0,201
2767,838	4	-0,217
2769,956	4	-0,216
2772,074	4	-0,27
2774,198	3,5	-0,306
2776,31	4	-0,302
2778,428	4	-0,253
2780,552	4	-0,251
2782,67	4	-0,337
2784,788	3,5	-0,358
2786,911	3	-0,446
2789,029	2,5	-0,574
2791,153	0	-0,736
2793,271	0	-0,741
2795,395	0	-0,803
2797,519	2	-0,535
2799,637	2	-0,518
2801,755	0,5	-0,682
2803,878	1	-0,654
2805,996	4	-0,195
2808,114	4	0
2810,244	4	0
2812,362	4	-0,001
2814,48	4	-0,001
2816,604	4	-0,002
2818,722	4	-0,005
2820,839	4	-0,007
2822,963	4	-0,013
2825,081	4	-0,015
2827,205	3,5	-0,029
2829,329	3,5	-0,051
2831,447	3	-0,061
2833,571	2	-0,113
2835,689	2,5	-0,111
2837,806	3	-0,08
2839,93	3	-0,072
2842,048	3	-0,074
2844,166	2,5	-0,086
2846,29	3	-0,079
2848,408	3	-0,087
2850,526	2,5	-0,094
2852,644	2,5	-0,093
2854,762	2	-0,082
2856,885	2,5	-0,076
2859,003	3	-0,071
2861,121	3	-0,062
2863,245	3,5	-0,046
2865,369	3,5	-0,04
2867,487	3,5	-0,036
2869,617	3,5	-0,027
2871,735	3,5	-0,023
2873,853	4	-0,023
2875,976	4	-0,021
2878,094	3,5	-0,022
2880,224	4	-0,014
2882,342	3,5	-0,012
2884,46	3,5	-0,01
2886,578	3,5	-0,01
2888,702	4	-0,006
2890,82	4	-0,007
2892,943	4	-0,006
2895,061	4	-0,006
2897,179	4	-0,005
2899,303	4	-0,004
2901,421	4	-0,004
2903,539	4	-0,003
2905,663	4	-0,002
2907,78	4	-0,002
2909,904	4	-0,002
2912,022	4	-0,002
2914,14	4	-0,002
2916,264	4	-0,001
2918,382	4	-0,001
2920,5	4	-0,001
2922,624	4	-0,002
2924,742	4	-0,002
2926,859	4	-0,002
2928,989	4	-0,002
2931,107	4	-0,002
2933,225	4	-0,002
2935,349	4	-0,002
2937,467	4	-0,002
2939,585	4	-0,002
2941,709	4	-0,003
2943,826	4	-0,003
2945,944	4	-0,003
2948,068	4	-0,004
2950,186	4	-0,006
2952,304	4	-0,007
2954,428	4	-0,009
2956,546	4	-0,009
2958,664	4	-0,013
2960,793	4	-0,01
2962,911	3,5	-0,013
2965,029	4	-0,018
2967,153	4	-0,022
2969,271	3,5	-0,033
2971,395	3,5	-0,042
2973,513	3,5	-0,034
2975,631	3,5	-0,048
2977,754	3	-0,066
2979,872	1,5	-0,226
2981,99	1,5	-0,312
2984,114	1	-0,453
2986,232	1	-0,543
2988,35	1	-0,593
2990,474	0,5	-0,695
2992,592	0,5	-0,632
2994,71	0,5	-0,787
2996,827	0,5	-0,837
2998,951	0	-0,89
3001,069	0	-1,039
3003,193	0	-1,031
3005,311	0	-1,259
3007,429	0	-1,372
3009,553	0	-1,4
3011,671	-0,5	-1,476
3013,788	-0,5	-1,634
3015,906	-1	-1,657
3018,024	-0,5	-1,748
3020,142	-1	-1,888
3022,26	-1,5	-2,036
3024,378	-2	-2,116
3026,496	-2	-2,158
3028,62	-2	-2,145
3030,737	-2	-2,162
3032,855	-1,5	-2,049
3034,979	-2	-2,085
3037,091	-1,5	-1,983
3039,209	-1,5	-2,003
3041,333	-1,5	-2,028
3043,451	-2,5	-2,16
3045,563	-3	-2,367
3047,687	-4	-2,502
3049,804	-4,5	-2,603
3051,922	-5	-2,731
3054,046	-6,5	-2,839
3056,164	-6	-2,787
3058,282	-6	-2,829
3060,406	-7	-2,875
3062,524	-9,5	-3,056
3064,642	-9,5	-3,062
3066,765	-10,5	-3,111
3068,889	-11,5	-3,201
3071,007	-12	-3,407
3073,131	-12	-3,426
3075,249	-12	-3,497
3077,367	-11,5	-3,499
3079,491	-12	-3,499
3081,609	-12	-3,498
3083,732	-11,5	-3,498
3085,85	-11,5	-3,498
3087,968	-12	-3,498
3090,092	-11,5	-3,497
3092,21	-12	-3,496
3094,328	-12	-3,494
3096,446	-11,5	-3,49
3098,57	-11,5	-3,485
3100,681	-11,5	-3,485
3102,799	-11	-3,48
3104,923	-11	-3,474
3107,041	-11	-3,464
3109,159	-10,5	-3,454
3111,283	-10,5	-3,458
3113,401	-10	-3,437
3115,525	-9,5	-3,425
3117,648	-9	-3,407
3119,766	-8,5	-3,388
3121,884	-7,5	-3,349
3124,002	-7	-3,306
3126,12	-3,5	-2,731
3128,238	-3	-2,619
3130,362	-3	-2,616
3132,48	-3	-2,568
3134,592	-3	-2,49
3136,715	-2,5	-2,472
3138,833	-2,5	-2,37
3140,951	-2,5	-2,386
3143,075	-2	-2,134
3145,193	-2	-2,05
3147,311	-1,5	-1,958
3149,435	-1,5	-1,902
3151,553	-1,5	-1,758
3153,67	-1	-1,673
3155,794	-1	-1,623
3157,912	-1	-1,51
3160,03	-1	-1,445
3162,148	-1	-1,446
3164,266	-0,5	-1,372
3166,384	-0,5	-1,287
3168,508	-1	-1,321
3170,626	-0,5	-1,272
3172,743	-0,5	-1,235
3174,867	-0,5	-1,121
3176,985	-0,5	-1,136
3178,887	4	0