File: ensaios_Ciclicos/_60perc/_1gap/entrada/_3.txt
Time (s)	Load (N)	Displacement (mm)
0	0	-0,041
2,195	0,5	-0,001
4,331	0,5	0
6,473	1	0
8,615	1	0
10,757	1	0
12,892	1	-0,001
15,028	1	-0,001
17,164	1	-0,001
19,306	1	-0,001
21,448	1,5	0
23,584	1,5	-0,001
25,72	1,5	-0,001
27,856	1,5	-0,001
29,992	1,5	-0,001
32,127	1,5	0
34,269	1,5	-0,001
36,417	1	-0,047
38,559	1,5	-0,138
40,695	1,5	-0,196
42,831	1,5	-0,172
44,967	1,5	-0,122
47,115	1,5	-0,196
49,256	1,5	-0,158
51,398	1	-0,283
53,534	1	-0,331
55,676	1	-0,317
57,812	1,5	-0,294
59,954	0,5	-0,398
62,102	1	-0,38
64,238	1	-0,372
66,373	0,5	-0,377
68,515	0,5	-0,466
70,651	1	-0,529
72,793	0	-0,586
74,935	0	-0,592
77,083	0	-0,691
79,237	-0,5	-0,822
81,379	-1	-0,872
83,52	-1	-0,891
85,668	-1	-0,944
87,811	-1	-0,904
89,946	-0,5	-0,861
92,1	-1	-0,886
94,248	-1	-0,951
96,39	-1	-0,911
98,538	-1	-0,933
100,673	-1	-0,906
102,827	-1	-0,947
104,969	-1,5	-0,945
107,117	-1	-0,871
109,253	-0,5	-0,802
111,389	-0,5	-0,694
113,531	0	-0,643
115,666	0	-0,589
117,814	0	-0,569
119,956	0,5	-0,496
122,092	0,5	-0,486
124,234	0,5	-0,499
126,376	1	-0,436
128,518	1	-0,408
130,654	1,5	-0,268
132,807	1,5	-0,184
134,943	1,5	-0,16
137,091	1,5	-0,041
139,245	1,5	-0,136
141,381	1,5	-0,084
143,523	1,5	-0,004
145,671	1,5	-0,004
147,807	1,5	-0,001
149,949	1,5	-0,001
152,091	1,5	-0,001
154,232	1,5	-0,001
156,368	1,5	-0,001
158,51	1,5	0
160,652	1,5	0
162,794	1,5	-0,001
164,936	1,5	-0,001
167,084	1,5	-0,001
169,225	1,5	-0,001
171,367	1,5	-0,001
173,503	1,5	-0,001
175,645	1,5	-0,001
177,793	1,5	0
179,941	1,5	-0,108
182,089	1,5	-0,026
184,231	1,5	-0,022
186,367	1,5	-0,036
188,502	1,5	-0,041
190,644	1,5	-0,012
192,786	1,5	0
194,928	1,5	0
197,07	1,5	-0,002
199,212	1,5	0
201,36	1,5	0
203,508	1,5	-0,009
205,643	1,5	-0,012
207,791	1,5	-0,015
209,945	1,5	-0,174
212,093	1,5	-0,229
214,235	1,5	-0,221
216,371	1,5	-0,17
218,519	1,5	-0,206
220,667	1,5	-0,206
222,814	1,5	-0,14
224,962	1,5	-0,191
227,104	1,5	-0,136
229,252	1,5	-0,126
231,394	1,5	-0,095
233,536	1,5	-0,12
235,678	1,5	-0,127
237,826	1,5	-0,058
239,973	1,5	-0,078
242,115	1,5	0
244,263	1,5	-0,006
246,411	1,5	0
248,553	1,5	-0,036
250,701	1,5	-0,12
252,843	1,5	-0,159
254,99	1,5	-0,186
257,139	1,5	-0,254
259,274	1,5	-0,248
261,41	1,5	-0,084
263,546	1,5	-0,174
265,682	1,5	-0,132
267,824	1,5	-0,147
269,972	1,5	-0,171
272,114	1,5	-0,29
274,261	1,5	-0,366
276,409	1	-0,485
278,551	1	-0,52
280,699	0	-0,653
282,853	0	-0,737
285,001	-0,5	-0,826
287,149	-0,5	-0,867
289,297	-0,5	-0,926
291,444	-1	-1,022
293,592	-1	-1,066
295,746	-1,5	-1,255
297,9	-2	-1,425
300,042	-2	-1,47
302,184	-2,5	-1,462
304,32	-2,5	-1,493
306,462	-2,5	-1,522
308,609	-2,5	-1,607
310,751	-2,5	-1,637
312,887	-2,5	-1,663
315,035	-2,5	-1,738
317,177	-3	-1,736
319,325	-3	-1,816
321,467	-3	-1,882
323,609	-3	-1,874
325,756	-3	-1,875
327,892	-3	-1,837
330,034	-3	-1,941
332,17	-3	-1,962
334,306	-3	-1,95
336,448	-3	-1,937
338,59	-3	-2,051
340,738	-3,5	-2,073
342,885	-3,5	-2,158
345,027	-4	-2,226
347,169	-4	-2,266
349,311	-4,5	-2,337
351,447	-4,5	-2,368
353,589	-4,5	-2,478
355,737	-5	-2,467
357,885	-5	-2,495
360,026	-5	-2,554
362,162	-5	-2,523
364,298	-5	-2,473
366,446	-5	-2,506
368,594	-5	-2,475
370,742	-5	-2,562
372,884	-5	-2,548
375,026	-5	-2,566
377,174	-5,5	-2,605
379,321	-5,5	-2,627
381,469	-5	-2,592
383,611	-5,5	-2,603
385,753	-5,5	-2,607
387,907	-5	-2,712
390,055	-6	-2,765
392,203	-6	-2,879
394,357	-7,5	-3,026
396,504	-7,5	-3,074
398,646	-7	-3,067
400,788	-7	-3,074
402,936	-8	-3,176
405,078	-8	-3,2
407,214	-8	-3,209
409,35	-8	-3,203
411,486	-7,5	-3,155
413,633	-8	-3,134
415,781	-7	-3,056
417,935	-8	-3,14
420,083	-8	-3,193
422,231	-8	-3,206
424,379	-8,5	-3,268
426,527	-8,5	-3,334
428,675	-9	-3,355
430,822	-9	-3,353
432,964	-9	-3,349
435,118	-9,5	-3,388
437,266	-10	-3,415
439,42	-10	-3,42
441,568	-10	-3,414
443,722	-10	-3,428
445,864	-10	-3,415
448,006	-10	-3,422
450,153	-10,5	-3,425
452,301	-10,5	-3,44
454,449	-10,5	-3,444
456,597	-10,5	-3,459
458,733	-10,5	-3,467
460,881	-10,5	-3,474
463,017	-11	-3,476
465,153	-10,5	-3,478
467,294	-10,5	-3,481
469,442	-11	-3,482
471,584	-11	-3,484
473,732	-11	-3,488
475,868	-10,5	-3,487
478,022	-10,5	-3,49
480,164	-11	-3,489
482,306	-10,5	-3,49
484,453	-10,5	-3,49
486,601	-11	-3,49
488,749	-11	-3,492
490,891	-11	-3,492
493,039	-11	-3,493
495,181	-11	-3,492
497,317	-11	-3,491
499,465	-11	-3,492
501,612	-10,5	-3,494
503,748	-11	-3,493
505,884	-11	-3,491
508,026	-11	-3,49
510,18	-11	-3,491
512,334	-10,5	-3,492
514,488	-11	-3,494
516,624	-11	-3,494
518,759	-11	-3,496
520,901	-11	-3,496
523,049	-10,5	-3,496
525,191	-11	-3,497
527,339	-10,5	-3,498
529,475	-10,5	-3,498
531,623	-10,5	-3,498
533,765	-11	-3,498
535,906	-11	-3,498
538,048	-10,5	-3,498
540,196	-11	-3,498
542,338	-11	-3,498
544,486	-11	-3,499
546,634	-10,5	-3,499
548,77	-10,5	-3,498
550,924	-10,5	-3,498
553,059	-10,5	-3,498
555,207	-10,5	-3,498
557,343	-10,5	-3,498
559,491	-10,5	-3,499
561,639	-10,5	-3,499
563,781	-10,5	-3,499
565,923	-10,5	-3,499
568,071	-10,5	-3,5
570,213	-10,5	-3,5
572,354	-10,5	-3,5
574,502	-10,5	-3,5
576,644	-10,5	-3,5
578,792	-10,5	-3,5
580,934	-10,5	-3,5
583,07	-10,5	-3,5
585,212	-10,5	-3,5
587,354	-10,5	-3,5
589,501	-10,5	-3,491
591,643	-10,5	-3,483
593,791	-10,5	-3,491
595,939	-10,5	-3,496
598,081	-10,5	-3,5
600,229	-10,5	-3,486
602,365	-10,5	-3,5
604,507	-10,5	-3,489
606,654	-10,5	-3,44
608,801	-10,5	-3,396
610,938	-10,5	-3,402
613,086	-10,5	-3,322
615,228	-10,5	-3,338
617,382	-10,5	-3,271
619,542	-9,5	-3,117
621,684	-10	-3,18
623,831	-10	-3,131
625,973	-9,5	-3,069
628,121	-10	-2,994
630,269	-8,5	-2,913
632,411	-9	-2,936
634,559	-8	-2,86
636,707	-8,5	-2,892
638,855	-8	-2,796
640,996	-7,5	-2,75
643,144	-7	-2,676
645,286	-7	-2,674
647,428	-7	-2,67
649,564	-6,5	-2,634
651,712	-6,5	-2,585
653,848	-7	-2,629
655,996	-6	-2,531
658,137	-6	-2,551
660,285	-6	-2,575
662,433	-6,5	-2,618
664,575	-6,5	-2,69
666,729	-6,5	-2,649
668,865	-7	-2,708
671,013	-7,5	-2,717
673,161	-7	-2,733
675,297	-7	-2,765
677,438	-7	-2,757
679,58	-7,5	-2,835
681,716	-8	-2,93
683,87	-9	-2,937
686,018	-8,5	-2,959
688,16	-9	-3,03
690,308	-8,5	-2,907
692,449	-9,5	-3,01
694,597	-9	-2,989
696,733	-8,5	-3,016
698,875	-9	-3,066
701,017	-9	-3,026
703,165	-9,5	-2,979
705,313	-9	-2,977
707,461	-9	-2,965
709,603	-9	-2,947
711,756	-8,5	-2,916
713,898	-8,5	-2,898
716,034	-8,5	-2,935
718,182	-8,5	-2,904
720,33	-8	-2,828
722,472	-8	-2,856
724,614	-7,5	-2,834
726,761	-8	-2,789
728,903	-8,5	-2,851
731,045	-8	-2,811
733,187	-8	-2,814
735,323	-8,5	-2,868
737,471	-7,5	-2,834
739,613	-7,5	-2,774
741,755	-7	-2,718
743,897	-7,5	-2,636
746,038	-6,5	-2,612
748,186	-6	-2,489
750,322	-6	-2,499
752,464	-6	-2,476
754,612	-5,5	-2,432
756,748	-5	-2,4
758,896	-5	-2,332
761,032	-4,5	-2,3
763,173	-5,5	-2,388
765,315	-5,5	-2,423
767,463	-5	-2,268
769,605	-5	-2,292
771,741	-5	-2,329
773,895	-5	-2,32
776,031	-5	-2,324
778,173	-5	-2,345
780,314	-5,5	-2,433
782,45	-6	-2,514
784,592	-6	-2,494
786,728	-6	-2,522
788,876	-6,5	-2,59
791,018	-6,5	-2,598
793,16	-6,5	-2,633
795,302	-7	-2,672
797,437	-7,5	-2,77
799,585	-7	-2,752
801,721	-8	-2,806
803,875	-7	-2,739
806,017	-7,5	-2,763
808,159	-8,5	-2,904
810,301	-9	-2,939
812,443	-9,5	-3,01
814,591	-9	-2,966
816,732	-9	-3,023
818,88	-9	-2,952
821,022	-9	-2,977
823,164	-9	-3,044
825,306	-9	-3,084
827,454	-9,5	-3,072
829,602	-10	-3,087
831,738	-9,5	-3,093
833,885	-8,5	-2,916
836,021	-9	-2,997
838,169	-9	-3,002
840,311	-9	-2,995
842,459	-9	-2,977
844,607	-8	-2,924
846,755	-7,5	-2,815
848,897	-7,5	-2,808
851,044	-7	-2,728
853,192	-7,5	-2,748
855,328	-7	-2,716
857,476	-6,5	-2,641
859,624	-6	-2,64
861,766	-6,5	-2,68
863,908	-7	-2,758
866,05	-7	-2,724
868,191	-7,5	-2,744
870,339	-7,5	-2,758
872,481	-6	-2,679
874,629	-6	-2,573
876,765	-5,5	-2,531
878,901	-5,5	-2,548
881,043	-5,5	-2,475
883,185	-5	-2,378
885,333	-4,5	-2,264
887,48	-4	-2,228
889,622	-4	-2,204
891,758	-4,5	-2,184
893,906	-4,5	-2,144
896,042	-4	-2,182
898,19	-4	-2,15
900,332	-3,5	-2,084
902,474	-3	-2,001
904,615	-3	-1,956
906,763	-2,5	-1,816
908,905	-2,5	-1,808
911,053	-2	-1,665
913,195	-2	-1,641
915,337	-1,5	-1,532
917,473	-1,5	-1,564
919,615	-1,5	-1,487
921,75	-1,5	-1,494
923,892	-1	-1,416
926,028	-1	-1,434
928,17	-1,5	-1,462
930,318	-1	-1,466
932,46	-1	-1,411
934,596	-1	-1,4
936,744	-0,5	-1,246
938,879	-0,5	-1,173
941,027	-0,5	-1,103
943,181	0	-0,959
945,323	-0,5	-0,984
947,465	0	-0,896
949,613	0	-0,752
951,755	0	-0,701
953,909	0	-0,644
956,05	0	-0,641
958,198	0,5	-0,514
960,34	0	-0,532
962,488	0	-0,468
964,624	0	-0,48
966,778	0,5	-0,416
968,92	0	-0,424
971,068	0,5	-0,334
973,203	0,5	-0,324
975,345	1	-0,27
977,487	0,5	-0,226
979,635	1	-0,242
981,777	1	-0,202
983,919	1	-0,188
986,067	1,5	-0,142
988,209	1,5	-0,117
990,344	1,5	-0,13
992,486	1,5	-0,138
994,64	1,5	-0,101
996,782	1,5	-0,08
998,93	1,5	-0,054
1001,072	2	-0,048
1003,214	2	-0,039
1005,356	2	-0,028
1007,497	2	-0,026
1009,639	2	-0,025
1011,781	2	-0,02
1013,923	2	-0,021
1016,065	2	-0,025
1018,207	2	-0,026
1020,355	2	-0,02
1022,491	2	-0,022
1024,639	2	-0,023
1026,786	2	-0,022
1028,928	2	-0,02
1031,076	2,5	-0,018
1033,218	2	-0,016
1035,36	2	-0,016
1037,502	2	-0,019
1039,656	2	-0,017
1041,798	2	-0,017
1043,951	2	-0,014
1046,087	2	-0,02
1048,235	2	-0,017
1050,383	2	-0,013
1052,531	2	-0,01
1054,679	2	-0,008
1056,815	2	-0,009
1058,957	2	-0,006
1061,098	2	-0,008
1063,258	2	-0,007
1065,4	2	-0,008
1067,548	2	-0,006
1069,69	2	-0,007
1071,838	2	-0,006
1073,98	2	-0,008
1076,122	2	-0,008
1078,276	2	-0,006
1080,417	2	-0,006
1082,565	2	-0,005
1084,707	2	-0,004
1086,849	1,5	-0,003
1088,985	2	-0,004
1091,133	2	-0,004
1093,275	2	-0,005
1095,416	2	-0,006
1097,564	2	-0,006
1099,7	2	-0,007
1101,848	2,5	-0,006
1103,99	2	-0,007
1106,138	2	-0,008
1108,286	2	-0,006
1110,428	2	-0,006
1112,564	2	-0,005
1114,711	2	-0,005
1116,847	2	-0,004
1118,989	2	-0,003
1121,131	2	-0,002
1123,273	2	-0,001
1125,415	2	-0,001
1127,557	2	0
1129,699	2	-0,102
1131,852	1,5	-0,348
1134	1,5	-0,499
1136,142	1	-0,596
1138,278	0	-0,697
1140,42	-0,5	-0,961
1142,568	-0,5	-1,062
1144,716	-1	-1,196
1146,864	-1,5	-1,346
1148,999	-1	-1,392
1151,147	-1,5	-1,511
1153,289	-1,5	-1,646
1155,437	-2	-1,78
1157,573	-1,5	-1,796
1159,715	-2	-1,91
1161,863	-3	-2,112
1164,005	-3	-2,2
1166,158	-3	-2,353
1168,3	-3,5	-2,44
1170,442	-4	-2,524
1172,578	-4	-2,56
1174,726	-4,5	-2,64
1176,868	-4,5	-2,691
1179,016	-5	-2,846
1181,158	-5	-2,875
1183,305	-5,5	-3,003
1185,453	-6	-3,078
1187,601	-7	-3,178
1189,743	-7,5	-3,267
1191,885	-7,5	-3,317
1194,027	-8	-3,361
1196,169	-8,5	-3,399
1198,317	-9	-3,436
1200,459	-9,5	-3,461
1202,606	-9,5	-3,48
1204,748	-9,5	-3,483
1206,896	-9,5	-3,488
1209,038	-9,5	-3,492
1211,186	-9,5	-3,494
1213,328	-9,5	-3,495
1215,47	-9,5	-3,496
1217,612	-9,5	-3,497
1219,765	-9,5	-3,498
1221,907	-9,5	-3,498
1224,055	-9,5	-3,498
1226,197	-9,5	-3,498
1228,339	-9,5	-3,499
1230,493	-9,5	-3,499
1232,635	-9,5	-3,499
1234,789	-9,5	-3,494
1236,93	-9,5	-3,366
1239,078	-9,5	-3,306
1241,22	-9	-3,209
1243,368	-9	-3,042
1245,516	-8	-2,844
1247,658	-6	-2,649
1249,806	-5,5	-2,495
1251,948	-5	-2,454
1254,089	-5,5	-2,484
1256,237	-5	-2,505
1258,385	-4,5	-2,366
1260,527	-4	-2,224
1262,681	-2,5	-1,95
1264,823	-2,5	-1,883
1266,971	-2	-1,77
1269,113	-1,5	-1,64
1271,254	-1,5	-1,489
1273,396	-0,5	-1,321
1275,538	-0,5	-1,154
1277,674	-0,5	-1,011
1279,828	0	-0,768
1281,97	0	-0,595
1284,118	0,5	-0,429
1286,254	0,5	-0,287
1288,395	1	-0,181
1290,537	1,5	-0,136
1292,679	1	-0,135
1294,821	1,5	-0,093
1296,969	1,5	-0,057
1299,111	2	-0,033
1301,253	2	-0,022
1303,395	2	-0,018
1305,542	2,5	-0,013
1307,696	2	-0,008
1309,838	2	-0,003
1311,98	2	-0,002
1314,122	2,5	-0,002
1316,264	2,5	-0,001
1318,412	2	-0,001
1320,554	2	0
1322,696	2	-0,036
1324,837	2	-0,279
1326,991	1,5	-0,418
1329,133	1,5	-0,463
1331,275	0,5	-0,598
1333,417	0	-0,686
1335,559	0	-0,806
1337,701	-0,5	-0,947
1339,837	-0,5	-1,036
1341,984	-1	-1,212
1344,126	-1	-1,327
1346,268	-1	-1,415
1348,41	-1	-1,561
1350,558	-1,5	-1,726
1352,706	-1,5	-1,844
1354,854	-2	-1,978
1356,996	-2,5	-2,088
1359,137	-3	-2,26
1361,279	-3	-2,391
1363,427	-3,5	-2,502
1365,569	-4	-2,574
1367,717	-4,5	-2,687
1369,853	-4,5	-2,758
1372,001	-5	-2,942
1374,143	-5,5	-3,083
1376,291	-6,5	-3,225
1378,432	-7,5	-3,32
1380,568	-7	-3,365
1382,716	-8,5	-3,421
1384,858	-9	-3,446
1387	-9	-3,463
1389,154	-9	-3,478
1391,296	-9,5	-3,486
1393,437	-9	-3,491
1395,585	-9,5	-3,494
1397,721	-9,5	-3,496
1399,875	-9,5	-3,497
1402,023	-9	-3,498
1404,165	-9,5	-3,499
1406,307	-9,5	-3,499
1408,443	-9	-3,5
1410,584	-9,5	-3,5
1412,732	-9,5	-3,48
1414,874	-9,5	-3,327
1417,016	-9	-3,223
1419,164	-9	-3,089
1421,306	-8	-3,006
1423,454	-6,5	-2,764
1425,596	-5,5	-2,587
1427,732	-4,5	-2,44
1429,879	-4	-2,279
1432,027	-3,5	-2,214
1434,169	-3	-2,142
1436,305	-3	-2,037
1438,453	-2,5	-1,956
1440,595	-2	-1,794
1442,737	-1,5	-1,665
1444,884	-0,5	-1,35
1447,026	-0,5	-1,224
1449,168	-0,5	-1,1
1451,316	0	-0,967
1453,458	0	-0,885
1455,6	0	-0,876
1457,748	0	-0,737
1459,89	0	-0,73
1462,038	0	-0,601
1464,185	0	-0,504
1466,333	0	-0,435
1468,475	0,5	-0,33
1470,629	1	-0,193
1472,771	1	-0,135
1474,907	1,5	-0,11
1477,055	1,5	-0,076
1479,197	1,5	-0,069
1481,338	1,5	-0,072
1483,486	1,5	-0,075
1485,622	1,5	-0,068
1487,764	1,5	-0,058
1489,912	1,5	-0,042
1492,054	1,5	-0,038
1494,202	2	-0,032
1496,35	1,5	-0,038
1498,497	1,5	-0,032
1500,645	2	-0,027
1502,781	2	-0,028
1504,923	2	-0,028
1507,065	2	-0,02
1509,207	2	-0,018
1511,349	2	-0,016
1513,485	2	-0,016
1515,626	2	-0,014
1517,762	2	-0,015
1519,904	2	-0,017
1522,058	2	-0,013
1524,194	2	-0,013
1526,33	2	-0,012
1528,472	2	-0,01
1530,626	2	-0,006
1532,768	2	-0,005
1534,903	2	-0,004
1537,045	2	-0,003
1539,187	2	-0,003
1541,329	2,5	-0,003
1543,477	2	-0,002
1545,619	2	-0,002
1547,767	2	-0,001
1549,908	2	-0,001
1552,05	2	-0,001
1554,198	2	-0,001
1556,34	2	-0,001
1558,482	2	0
1560,624	2	0
1562,766	2	-0,009
1564,914	1,5	-0,059
1567,056	2	-0,176
1569,197	1,5	-0,3
1571,345	1,5	-0,43
1573,487	1,5	-0,474
1575,629	1,5	-0,498
1577,771	1,5	-0,485
1579,919	0,5	-0,54
1582,061	0,5	-0,664
1584,203	0	-0,811
1586,35	0	-0,955
1588,492	-0,5	-1,021
1590,628	-0,5	-1,074
1592,776	-1	-1,144
1594,912	-0,5	-1,153
1597,054	-0,5	-1,198
1599,19	-0,5	-1,213
1601,332	-1	-1,28
1603,473	-1	-1,389
1605,615	-1	-1,445
1607,763	-1	-1,51
1609,905	-1	-1,469
1612,047	-1	-1,488
1614,195	-1	-1,573
1616,337	-1,5	-1,603
1618,479	-1,5	-1,728
1620,626	-1,5	-1,862
1622,768	-1,5	-1,848
1624,904	-1,5	-1,864
1627,046	-1,5	-1,898
1629,194	-2	-2,033
1631,342	-2,5	-2,16
1633,478	-2,5	-2,154
1635,626	-3	-2,256
1637,761	-3	-2,314
1639,903	-3	-2,438
1642,045	-3	-2,453
1644,187	-3,5	-2,443
1646,323	-3,5	-2,476
1648,465	-3	-2,494
1650,619	-4	-2,621
1652,761	-4	-2,692
1654,903	-4	-2,642
1657,05	-3,5	-2,636
1659,192	-4,5	-2,767
1661,334	-5	-2,854
1663,476	-6	-3,081
1665,618	-6	-3,169
1667,76	-7	-3,278
1669,902	-7,5	-3,349
1672,044	-7,5	-3,384
1674,191	-8,5	-3,417
1676,327	-8	-3,426
1678,475	-9	-3,452
1680,617	-9	-3,47
1682,777	-9	-3,482
1684,919	-9	-3,487
1687,061	-9	-3,49
1689,203	-9	-3,494
1691,35	-9	-3,496
1693,498	-9	-3,497
1695,64	-9	-3,498
1697,782	-9,5	-3,498
1699,924	-9	-3,499
1702,072	-9	-3,499
1704,214	-9	-3,499
1706,356	-9	-3,48
1708,497	-8,5	-3,203
1710,633	-8	-3,011
1712,775	-7	-2,822
1714,917	-6,5	-2,744
1717,059	-5,5	-2,503
1719,201	-4,5	-2,378
1721,343	-4	-2,226
1723,491	-3	-2,13
1725,632	-2,5	-1,866
1727,78	-2	-1,755
1729,916	-2	-1,745
1732,07	-1,5	-1,698
1734,218	-1,5	-1,644
1736,36	-1,5	-1,599
1738,508	-1,5	-1,508
1740,65	-1	-1,452
1742,786	-0,5	-1,373
1744,927	-0,5	-1,179
1747,069	0	-1,022
1749,211	0	-1,02
1751,353	-0,5	-1,07
1753,489	0	-1,085
1755,637	-0,5	-1,076
1757,773	-0,5	-1,15
1759,914	0	-0,929
1762,056	0	-0,688
1764,204	0	-0,389
1766,346	1	-0,221
1768,488	1,5	-0,096
1770,63	1,5	-0,05
1772,778	2	-0,03
1774,92	2	-0,015
1777,062	2	-0,011
1779,203	2	-0,008
1781,345	2	-0,005
1783,487	2	-0,004
1785,623	2	-0,006
1787,777	2	-0,004
1789,919	2	-0,004
1792,061	2	-0,005
1794,209	2	-0,003
1796,35	2	-0,002
1798,498	2	-0,001
1800,646	2	-0,001
1802,788	2	-0,001
1804,93	2	-0,011
1807,072	2	-0,018
1809,214	2	-0,009
1811,362	2	-0,221
1813,497	1,5	-0,398
1815,639	1	-0,545
1817,781	0	-0,739
1819,923	0	-0,859
1822,071	-0,5	-1,125
1824,213	-1	-1,341
1826,361	-1,5	-1,543
1828,503	-1,5	-1,493
1830,644	-1	-1,64
1832,786	-1,5	-1,78
1834,934	-2	-1,93
1837,076	-2,5	-2,156
1839,23	-3	-2,452
1841,366	-3,5	-2,612
1843,52	-4,5	-2,87
1845,662	-5,5	-3,043
1847,803	-5,5	-3,083
1849,951	-5	-3,024
1852,093	-5	-3,055
1854,235	-5	-3,031
1856,377	-5,5	-3,224
1858,519	-7,5	-3,359
1860,655	-8	-3,436
1862,797	-8,5	-3,462
1864,932	-9	-3,474
1867,08	-9	-3,488
1869,216	-9	-3,491
1871,358	-9	-3,494
1873,5	-9	-3,496
1875,636	-9	-3,498
1877,784	-9	-3,499
1879,926	-9	-3,5
1882,068	-9	-3,343
1884,215	-8,5	-3,075
1886,357	-6,5	-2,869
1888,499	-5,5	-2,685
1890,641	-4,5	-2,448
1892,789	-4	-2,289
1894,931	-3	-2,126
1897,073	-2,5	-1,885
1899,221	-1,5	-1,655
1901,362	-1	-1,45
1903,51	-1	-1,249
1905,652	-0,5	-1,102
1907,806	0	-0,764
1909,948	0	-0,606
1912,09	0	-0,434
1914,238	1	-0,252
1916,386	1	-0,143
1918,527	1,5	-0,066
1920,669	1,5	-0,045
1922,811	2	-0,029
1924,959	2	-0,012
1927,101	2	-0,007
1929,237	2	-0,005
1931,385	1,5	-0,002
1933,527	2	-0,001
1935,675	2	-0,001
1937,822	2	-0,003
1939,958	2	-0,158
1942,106	2	-0,211
1944,242	1,5	-0,323
1946,384	1	-0,546
1948,526	0	-0,745
1950,662	0	-0,92
1952,797	0	-1,02
1954,933	-0,5	-1,2
1957,075	-0,5	-1,24
1959,217	-1	-1,327
1961,359	-1	-1,495
1963,507	-1,5	-1,725
1965,643	-1,5	-1,877
1967,791	-2	-2,091
1969,926	-2	-2,117
1972,062	-2,5	-2,153
1974,21	-2,5	-2,335
1976,352	-3	-2,506
1978,506	-3,5	-2,592
1980,654	-4	-2,677
1982,796	-3,5	-2,68
1984,938	-3,5	-2,587
1987,08	-3,5	-2,595
1989,221	-4,5	-2,826
1991,363	-4,5	-2,898
1993,505	-4,5	-2,895
1995,647	-4,5	-2,877
1997,795	-5	-2,926
1999,937	-4,5	-2,892
2002,079	-5	-3,005
2004,227	-5,5	-3,232
2006,374	-6	-3,258
2008,516	-6	-3,26
2010,664	-6,5	-3,317
2012,812	-7	-3,326
2014,954	-7	-3,328
2017,09	-7	-3,334
2019,238	-7	-3,37
2021,38	-7	-3,38
2023,521	-7,5	-3,414
2025,657	-8	-3,429
2027,805	-8	-3,455
2029,953	-9	-3,472
2032,089	-9	-3,485
2034,237	-9	-3,492
2036,379	-9	-3,496
2038,521	-9	-3,497
2040,662	-9	-3,498
2042,804	-9	-3,498
2044,946	-9	-3,498
2047,094	-9	-3,5
2049,236	-9	-3,5
2051,384	-9	-3,421
2053,52	-8,5	-3,384
2055,656	-9	-3,294
2057,798	-8,5	-3,166
2059,939	-8	-3,024
2062,081	-6,5	-2,85
2064,223	-5,5	-2,683
2066,377	-4,5	-2,45
2068,519	-4	-2,39
2070,667	-3	-2,276
2072,809	-2,5	-2,029
2074,957	-1,5	-1,789
2077,098	-1,5	-1,669
2079,24	-1	-1,497
2081,382	-0,5	-1,345
2083,53	0	-1,131
2085,678	0	-0,876
2087,82	0	-0,88
2089,962	0	-0,914
2092,104	0	-0,9
2094,251	0	-0,868
2096,393	0	-0,801
2098,541	0	-0,757
2100,683	0	-0,711
2102,827	0	-0,588
2104,967	0	-0,594
2107,115	0,5	-0,536
2109,257	0	-0,624
2111,404	0	-0,57
2113,552	0	-0,623
2115,694	0	-0,679
2117,836	0	-0,628
2119,978	0	-0,519
2122,114	0	-0,583
2124,262	0,5	-0,53
2126,404	0	-0,538
2128,546	0	-0,492
2130,693	0,5	-0,391
2132,835	0,5	-0,403
2134,977	0,5	-0,369
2137,113	0	-0,504
2139,249	0	-0,615
2141,397	0	-0,684
2143,533	0	-0,743
2145,674	0	-0,714
2147,816	0	-0,7
2149,952	0	-0,728
2152,1	0	-0,759
2154,242	0	-0,74
2156,384	0	-0,775
2158,52	0	-0,701
2160,668	0	-0,754
2162,81	0	-0,629
2164,951	0	-0,579
2167,093	0	-0,576
2169,235	0	-0,58
2171,383	0	-0,615
2173,519	0,5	-0,536
2175,661	0,5	-0,495
2177,797	0	-0,48
2179,945	0,5	-0,415
2182,092	0,5	-0,469
2184,234	0,5	-0,327
2186,37	0,5	-0,408
2188,514	0,5	-0,352
2190,66	0,5	-0,294
2192,796	1	-0,189
2194,944	1	-0,186
2197,086	1	-0,122
2199,227	1,5	-0,07
2201,369	1,5	-0,106
2203,517	1,5	-0,111
2205,653	1	-0,135
2207,795	0,5	-0,181
2209,943	1,5	-0,139
2212,085	1	-0,148
2214,227	1	-0,18
2216,368	1	-0,173
2218,516	1	-0,124
2220,658	1,5	-0,064
2222,8	1,5	-0,074
2224,942	1,5	-0,102
2227,09	1	-0,113
2229,226	1	-0,129
2231,362	1	-0,166
2233,503	1	-0,12
2235,639	1	-0,135
2237,781	1	-0,117
2239,923	1	-0,104
2242,071	1,5	-0,07
2244,213	1,5	-0,064
2246,361	1,5	-0,037
2248,503	1,5	-0,031
2250,644	1,5	-0,022
2252,786	2	-0,018
2254,934	2	-0,01
2257,076	2	-0,008
2259,218	2	-0,005
2261,36	2	-0,003
2263,508	2	-0,002
2265,65	2,5	-0,001
2267,797	2	0
2269,945	2	-0,036
2272,087	2	-0,249
2274,223	2	-0,346
2276,365	1,5	-0,444
2278,507	1,5	-0,463
2280,655	1	-0,559
2282,791	1,5	-0,564
2284,926	1,5	-0,462
2287,068	0,5	-0,682
2289,21	0,5	-0,675
2291,37	0	-0,853
2293,506	-0,5	-1,076
2295,642	-0,5	-1,212
2297,778	-0,5	-1,297
2299,92	-1	-1,316
2302,062	-1	-1,392
2304,197	-1	-1,525
2306,339	-1	-1,506
2308,475	-1,5	-1,761
2310,611	-1,5	-1,841
2312,747	-1,5	-1,951
2314,895	-2	-2,126
2317,037	-2,5	-2,294
2319,179	-3	-2,526
2321,314	-3,5	-2,701
2323,456	-4	-2,9
2325,592	-5	-3,091
2327,734	-5,5	-3,233
2329,87	-5,5	-3,296
2332,012	-7	-3,38
2334,154	-7,5	-3,425
2336,29	-7,5	-3,436
2338,425	-7,5	-3,449
2340,567	-8	-3,469
2342,709	-8	-3,477
2344,845	-8,5	-3,486
2346,993	-8,5	-3,492
2349,129	-8	-3,494
2351,271	-8	-3,496
2353,407	-8	-3,497
2355,543	-8	-3,498
2357,684	-8	-3,499
2359,832	-8	-3,5
2361,98	-8	-3,5
2364,116	-8	-3,434
2366,258	-8	-3,343
2368,394	-8	-3,187
2370,536	-7,5	-3,03
2372,69	-5,5	-2,748
2374,831	-4,5	-2,549
2376,967	-4	-2,453
2379,109	-3	-2,318
2381,245	-3	-2,165
2383,381	-2,5	-2,014
2385,523	-2	-1,886
2387,665	-1	-1,718
2389,801	-1,5	-1,74
2391,936	-1	-1,555
2394,084	-0,5	-1,32
2396,22	-0,5	-1,188
2398,362	0	-1,02
2400,498	0	-0,857
2402,64	0	-0,818
2404,782	0	-0,649
2406,924	0	-0,574
2409,065	0,5	-0,448
2411,213	0,5	-0,367
2413,355	0,5	-0,305
2415,497	1	-0,172
2417,639	1	-0,149
2419,781	1,5	-0,069
2421,923	1,5	-0,047
2424,065	1,5	-0,03
2426,212	2	-0,019
2428,348	2	-0,02
2430,49	2	-0,014
2432,638	2	-0,009
2434,78	2	-0,009
2436,928	2	-0,004
2439,064	2	-0,002
2441,2	1,5	-0,001
2443,341	2	-0,001
2445,483	2	0
2447,631	2	-0,228
2449,767	2	-0,325
2451,909	1	-0,521
2454,045	0	-0,679
2456,187	0	-0,815
2458,341	-0,5	-1,042
2460,476	-0,5	-1,308
2462,618	-1	-1,426
2464,76	-1	-1,632
2466,902	-1,5	-1,742
2469,038	-1,5	-1,841
2471,18	-2	-1,955
2473,316	-2	-2,13
2475,452	-2,5	-2,3
2477,594	-2,5	-2,432
2479,741	-3	-2,606
2481,889	-3,5	-2,707
2484,031	-3,5	-2,763
2486,173	-3,5	-2,83
2488,309	-4	-2,856
2490,445	-4,5	-3,036
2492,593	-5,5	-3,25
2494,735	-6	-3,38
2496,87	-7,5	-3,429
2499,012	-7,5	-3,464
2501,148	-8	-3,479
2503,302	-8	-3,486
2505,438	-8	-3,489
2507,574	-8	-3,488
2509,716	-8	-3,492
2511,864	-8	-3,494
2514,005	-8	-3,495
2516,153	-8	-3,497
2518,289	-8	-3,499
2520,431	-8	-3,499
2522,567	-8	-3,499
2524,703	-8	-3,322
2526,851	-7,5	-3,156
2528,987	-6,5	-2,97
2531,128	-6	-2,915
2533,27	-5	-2,679
2535,406	-4	-2,572
2537,554	-4	-2,46
2539,696	-2,5	-2,314
2541,838	-2	-2,174
2543,98	-2	-2,069
2546,122	-1,5	-1,919
2548,269	-1	-1,69
2550,411	-0,5	-1,544
2552,547	-0,5	-1,364
2554,683	0	-1,299
2556,825	0	-1,159
2558,967	0	-0,954
2561,103	0	-0,784
2563,245	0	-0,676
2565,387	0	-0,583
2567,528	0,5	-0,35
2569,664	1	-0,203
2571,806	1,5	-0,133
2573,948	1,5	-0,069
2576,09	1,5	-0,04
2578,238	2	-0,022
2580,38	2	-0,011
2582,522	2	-0,008
2584,663	2	-0,004
2586,805	2	-0,003
2588,941	2,5	-0,002
2591,077	2	-0,001
2593,219	2	0
2595,361	2	-0,113
2597,497	2	-0,266
2599,639	1,5	-0,414
2601,774	1	-0,531
2603,916	0	-0,709
2606,058	0	-0,992
2608,2	-0,5	-1,215
2610,336	-0,5	-1,377
2612,478	-1	-1,492
2614,614	-1	-1,667
2616,75	-1,5	-1,734
2618,897	-1,5	-1,901
2621,039	-1,5	-2,073
2623,175	-2	-2,158
2625,311	-2,5	-2,311
2627,447	-2,5	-2,46
2629,589	-3	-2,668
2631,731	-3,5	-2,784
2633,867	-4	-2,922
2636,009	-4,5	-3,057
2638,156	-5	-3,24
2640,298	-5,5	-3,348
2642,434	-6	-3,394
2644,576	-7	-3,445
2646,724	-7	-3,469
2648,866	-7,5	-3,484
2651,002	-7,5	-3,491
2653,143	-7,5	-3,495
2655,291	-7,5	-3,497
2657,433	-7,5	-3,498
2659,575	-7,5	-3,499
2661,716	-7,5	-3,476
2663,859	-7,5	-3,275
2666,007	-6	-3,112
2668,143	-6	-2,938
2670,284	-4,5	-2,743
2672,42	-3,5	-2,552
2674,568	-2,5	-2,328
2676,704	-2,5	-2,254
2678,846	-1,5	-2,039
2680,982	-1,5	-1,96
2683,124	-1	-1,808
2685,266	-0,5	-1,594
2687,408	0	-1,452
2689,555	0	-1,34
2691,697	0	-1,178
2693,839	0	-1,048
2695,981	0	-0,997
2698,123	0	-0,83
2700,265	0	-0,827
2702,407	0	-0,76
2704,543	0	-0,814
2706,678	0	-0,72
2708,82	0	-0,589
2710,962	0	-0,474
2713,104	1	-0,318
2715,24	0,5	-0,228
2717,382	1	-0,114
2719,524	1,5	-0,109
2721,666	1,5	-0,064
2723,813	1,5	-0,029
2725,955	2	-0,022
2728,091	1,5	-0,015
2730,227	2	-0,013
2732,369	2	-0,009
2734,511	2	-0,005
2736,653	2	-0,003
2738,801	2	-0,002
2740,942	2	-0,002
2743,078	2	-0,001
2745,214	2	-0,001
2747,362	2	-0,001
2749,51	2	-0,001
2751,652	2	0
2753,794	2	-0,009
2755,93	2	-0,071
2758,071	2	-0,252
2760,207	1,5	-0,343
2762,361	1	-0,546
2764,503	0	-0,702
2766,651	-0,5	-0,989
2768,793	-0,5	-1,152
2770,935	-0,5	-1,33
2773,071	-0,5	-1,477
2775,218	-1	-1,718
2777,36	-1,5	-1,917
2779,496	-1,5	-2,055
2781,638	-1,5	-2,174
2783,78	-2,5	-2,31
2785,922	-2,5	-2,482
2788,064	-3	-2,741
2790,206	-4	-2,945
2792,348	-4	-3,096
2794,489	-5	-3,277
2796,625	-6	-3,372
2798,767	-6,5	-3,427
2800,903	-6,5	-3,46
2803,045	-7	-3,476
2805,187	-7	-3,488
2807,335	-7,5	-3,492
2809,477	-7	-3,494
2811,624	-7,5	-3,496
2813,772	-7,5	-3,497
2815,908	-7,5	-3,498
2818,056	-7,5	-3,499
2820,198	-7	-3,5
2822,334	-7,5	-3,366
2824,476	-7	-3,244
2826,63	-6	-2,95
2828,771	-5	-2,788
2830,913	-4,5	-2,641
2833,049	-4,5	-2,659
2835,191	-3,5	-2,481
2837,339	-2,5	-2,336
2839,481	-2	-2,184
2841,617	-1,5	-2,062
2843,759	-1	-1,831
2845,894	-1	-1,684
2848,036	-0,5	-1,537
2850,178	0	-1,391
2852,32	0	-1,265
2854,468	0	-1,074
2856,61	0	-0,991
2858,758	0	-0,884
2860,9	0	-0,728
2863,041	0	-0,507
2865,183	0,5	-0,371
2867,325	0,5	-0,275
2869,467	1	-0,165
2871,609	1	-0,107
2873,757	1,5	-0,059
2875,899	1,5	-0,032
2878,041	2	-0,014
2880,182	2	-0,01
2882,318	2	-0,006
2884,46	2	-0,003
2886,608	2	-0,001
2888,75	2	-0,001
2890,898	2	-0,015
2893,034	2	-0,169
2895,17	1,5	-0,36
2897,312	1,5	-0,532
2899,453	0	-0,695
2901,595	0	-0,916
2903,743	0	-1,071
2905,885	-0,5	-1,222
2908,021	-1	-1,381
2910,163	-1	-1,575
2912,305	-1	-1,737
2914,447	-1,5	-1,893
2916,588	-1	-2,05
2918,736	-2	-2,28
2920,872	-2	-2,423
2923,014	-3	-2,675
2925,156	-3	-2,875
2927,298	-3,5	-3,063
2929,44	-4,5	-3,286
2931,588	-5	-3,402
2933,723	-6	-3,444
2935,859	-6	-3,47
2938,001	-6	-3,482
2940,137	-6,5	-3,488
2942,273	-6	-3,492
2944,415	-6	-3,496
2946,557	-6	-3,497
2948,699	-6	-3,498
2950,84	-6	-3,499
2952,982	-6	-3,499
2955,118	-6	-3,428
2957,26	-6	-3,181
2959,396	-5,5	-3,058
2961,532	-4,5	-2,91
2963,68	-4	-2,701
2965,822	-3	-2,539
2967,957	-2,5	-2,381
2970,099	-2	-2,25
2972,241	-1,5	-2,072
2974,383	-1	-1,857
2976,525	-0,5	-1,646
2978,661	-0,5	-1,494
2980,803	0	-1,37
2982,939	0	-1,279
2985,075	0	-1,156
2987,21	0	-0,999
2989,358	0	-0,87
2991,5	0	-0,703
2993,636	0	-0,565
2995,778	0,5	-0,436
2997,92	0,5	-0,285
3000,056	1	-0,178
3002,198	1,5	-0,115
3004,339	1,5	-0,084
3006,487	2	-0,053
3008,623	2	-0,036
3010,765	2	-0,025
3012,907	2	-0,014
3015,049	2	-0,01
3017,191	2	-0,005
3019,333	2	-0,003
3021,474	2	-0,002
3023,622	2	-0,001
3025,764	2	0
3027,9	2	-0,009
3030,042	2	-0,237
3032,184	1,5	-0,331
3034,326	1,5	-0,495
3036,462	1	-0,648
3038,603	0	-0,762
3040,739	0	-0,894
3042,881	0	-1,004
3045,023	0	-1,107
3047,165	-0,5	-1,264
3049,307	-0,5	-1,421
3051,443	-0,5	-1,586
3053,585	-1	-1,79
3055,72	-1	-1,953
3057,862	-1	-1,999
3060,004	-1,5	-2,07
3062,146	-1,5	-2,158
3064,282	-1,5	-2,237
3066,424	-1,5	-2,341
3068,56	-1,5	-2,442
3070,702	-2	-2,438
3072,844	-1,5	-2,49
3074,985	-2	-2,588
3077,127	-2,5	-2,776
3079,269	-2,5	-2,928
3081,411	-3	-3,01
3083,565	-3,5	-3,226
3085,707	-4	-3,33
3087,849	-4	-3,399
3089,996	-4,5	-3,435
3092,138	-5	-3,458
3094,28	-5	-3,47
3096,416	-5	-3,485
3098,564	-5	-3,491
3100,706	-5	-3,493
3102,848	-5	-3,496
3104,99	-5	-3,498
3107,132	-5	-3,5
3109,291	-5	-3,252
3111,439	-3	-2,897
3113,575	-2,5	-2,614
3115,717	-1,5	-2,358
3117,859	-1	-2,147
3120,001	-0,5	-1,943
3122,149	-0,5	-1,66
3124,285	0	-1,501
3126,432	0	-1,15
3128,574	0	-0,976
3130,716	0	-0,789
3132,858	0	-0,648
3135,006	0,5	-0,413
3137,148	1	-0,228
3139,296	1	-0,155
3141,438	1,5	-0,072
3143,579	1,5	-0,048
3145,721	1,5	-0,037
3147,857	1,5	-0,047
3149,999	1,5	-0,04
3152,141	1,5	-0,028
3154,289	2	-0,025
3156,431	2	-0,013
3158,573	2	-0,01
3160,708	2	-0,009
3162,844	1,5	-0,008
3164,986	2	-0,006
3167,134	2	-0,004
3169,27	2	-0,003
3171,418	2	-0,002
3173,56	2	-0,001
3175,702	2	-0,001
3177,843	2	-0,001
3179,979	2	-0,001
3182,121	2	-0,002
3184,263	2	-0,12
3186,405	1,5	-0,291
3188,445	2	-0,001