File: ensaios_Ciclicos/_60perc/_1gap/entrada/_4.txt
Time (s)	Load (N)	Displacement (mm)
0	0	-0,027
2,145	0	0
4,311	0	-0,066
6,447	0	-0,048
8,583	0,5	-0,06
10,719	0,5	-0,007
12,855	0,5	0
14,991	0,5	0
17,127	0,5	0
19,262	0,5	-0,003
21,398	1	-0,016
23,534	0,5	-0,037
25,67	0,5	0
27,806	0,5	0
29,942	0,5	0
32,078	0,5	0
34,213	1	0
36,349	1	-0,019
38,485	0,5	-0,007
40,621	0,5	-0,066
42,757	1	-0,078
44,893	1	-0,132
47,029	1	-0,162
49,165	1	-0,21
51,307	0,5	-0,258
53,442	1	-0,288
55,584	0,5	-0,318
57,72	1	-0,306
59,856	1	-0,268
61,992	0,5	-0,311
64,134	0,5	-0,34
66,27	0,5	-0,355
68,406	1	-0,252
70,547	1	-0,233
72,683	1	-0,22
74,819	1	-0,215
76,961	1	-0,206
79,103	1	-0,248
81,239	1	-0,284
83,375	1	-0,257
85,517	0,5	-0,341
87,652	1	-0,292
89,788	1	-0,253
91,924	1	-0,257
94,06	1	-0,283
96,202	0,5	-0,34
98,344	0,5	-0,439
100,486	0	-0,57
102,622	0	-0,623
104,763	-1	-0,749
106,905	-0,5	-0,713
109,047	-0,5	-0,742
111,183	-0,5	-0,688
113,319	0	-0,656
115,461	-0,5	-0,653
117,597	0	-0,669
119,739	0	-0,628
121,88	0	-0,657
124,028	-0,5	-0,716
126,164	-0,5	-0,732
128,3	-0,5	-0,694
130,436	0	-0,656
132,584	-1	-0,854
134,72	-1,5	-0,906
136,856	-1	-0,922
138,992	-1	-0,92
141,133	-2	-1,041
143,269	-2,5	-1,099
145,417	-2,5	-1,21
147,559	-3	-1,282
149,701	-3	-1,376
151,843	-3	-1,508
153,991	-3	-1,628
156,133	-3,5	-1,695
158,268	-3,5	-1,684
160,416	-4	-1,844
162,558	-5	-1,964
164,7	-5,5	-2,146
166,848	-5,5	-2,275
168,996	-6	-2,351
171,138	-7	-2,464
173,279	-6,5	-2,494
175,415	-6	-2,482
177,563	-7,5	-2,601
179,699	-7,5	-2,655
181,847	-8	-2,739
183,983	-8	-2,753
186,119	-8	-2,769
188,255	-8	-2,842
190,391	-9	-2,99
192,526	-9,5	-3,08
194,662	-9,5	-3,122
196,798	-10	-3,147
198,934	-9,5	-3,169
201,076	-10	-3,265
203,212	-10,5	-3,32
205,348	-11,5	-3,366
207,483	-11,5	-3,366
209,625	-12,5	-3,423
211,761	-12,5	-3,434
213,903	-13	-3,452
216,039	-13	-3,46
218,181	-13	-3,473
220,317	-13	-3,479
222,465	-13,5	-3,484
224,606	-13,5	-3,488
226,742	-13,5	-3,491
228,878	-13,5	-3,493
231,02	-13	-3,496
233,156	-13,5	-3,497
235,292	-13	-3,498
237,428	-13,5	-3,499
239,57	-13	-3,499
241,712	-13	-3,498
243,854	-13	-3,314
245,989	-13	-3,227
248,125	-13	-3,178
250,261	-12,5	-3,099
252,409	-12	-2,98
254,551	-11,5	-2,892
256,687	-10,5	-2,792
258,823	-10,5	-2,755
260,964	-9,5	-2,658
263,1	-8,5	-2,557
265,236	-8	-2,494
267,378	-7,5	-2,364
269,52	-7	-2,254
271,692	-5,5	-2,043
273,828	-5,5	-1,986
275,964	-4,5	-1,838
278,105	-4,5	-1,74
280,247	-4	-1,657
282,383	-3	-1,519
284,525	-3	-1,395
286,661	-2	-1,222
288,803	-1,5	-1,069
290,945	-1	-0,916
293,093	-0,5	-0,735
295,234	0	-0,627
297,376	0	-0,469
299,518	0	-0,313
301,66	0,5	-0,161
303,808	0	-0,093
305,956	1	-0,069
308,098	1,5	-0,032
310,246	1,5	-0,025
312,387	1,5	-0,014
314,523	1,5	-0,012
316,665	1,5	-0,013
318,807	1,5	-0,009
320,949	1,5	-0,008
323,085	1,5	-0,008
325,227	1,5	-0,006
327,381	1,5	-0,005
329,528	1,5	-0,003
331,676	1,5	-0,002
333,812	1,5	-0,002
335,96	1,5	-0,002
338,096	1,5	-0,001
340,25	1,5	-0,001
342,398	1,5	-0,001
344,534	1,5	-0,006
346,67	1,5	-0,071
348,805	1,5	-0,095
350,947	1,5	-0,185
353,095	1	-0,334
355,231	1	-0,415
357,367	0,5	-0,434
359,503	0,5	-0,424
361,639	0,5	-0,428
363,787	0	-0,615
365,922	0	-0,614
368,064	-1	-0,744
370,2	-0,5	-0,759
372,342	-1	-0,89
374,478	-1,5	-0,958
376,626	-2	-1,071
378,762	-2	-1,144
380,898	-2	-1,266
383,045	-3	-1,474
385,181	-2,5	-1,485
387,323	-3	-1,544
389,471	-3	-1,641
391,613	-3	-1,708
393,761	-3	-1,808
395,909	-3,5	-1,944
398,051	-4	-2,021
400,186	-4	-2,04
402,328	-4,5	-2,182
404,464	-5	-2,308
406,612	-5,5	-2,4
408,754	-5,5	-2,53
410,896	-6	-2,66
413,032	-6,5	-2,681
415,18	-7	-2,82
417,321	-8	-2,934
419,457	-8,5	-3,056
421,593	-9	-3,166
423,735	-10	-3,283
425,877	-10	-3,315
428,019	-10,5	-3,355
430,161	-11,5	-3,395
432,303	-11,5	-3,421
434,439	-11	-3,422
436,586	-12	-3,443
438,728	-12	-3,454
440,864	-12	-3,465
443,006	-12	-3,477
445,148	-12	-3,485
447,29	-12	-3,49
449,438	-12	-3,494
451,574	-12	-3,496
453,715	-12	-3,498
455,857	-12,5	-3,498
457,993	-12	-3,498
460,141	-12	-3,499
462,283	-12,5	-3,499
464,431	-12	-3,5
466,567	-12	-3,47
468,703	-12	-3,437
470,838	-12	-3,465
472,992	-12	-3,315
475,134	-12	-3,212
477,282	-11,5	-3,088
479,418	-11	-2,998
481,554	-11	-2,956
483,702	-10	-2,822
485,844	-9,5	-2,761
487,997	-8,5	-2,565
490,133	-8	-2,497
492,281	-7	-2,4
494,423	-6	-2,27
496,583	-4,5	-1,997
498,719	-4	-1,897
500,867	-3,5	-1,773
503,009	-3,5	-1,68
505,156	-2,5	-1,53
507,292	-3	-1,49
509,428	-2,5	-1,431
511,564	-2,5	-1,408
513,712	-2	-1,277
515,86	-2	-1,185
517,996	-1,5	-1,165
520,138	-1,5	-1,125
522,279	-1,5	-1,069
524,427	-1	-0,936
526,575	-0,5	-0,808
528,723	-0,5	-0,732
530,871	-0,5	-0,63
533,013	0	-0,495
535,149	0	-0,406
537,303	0	-0,305
539,444	0,5	-0,208
541,58	0,5	-0,148
543,722	1	-0,102
545,87	1	-0,074
548,012	1	-0,064
550,16	1,5	-0,039
552,314	1,5	-0,023
554,45	1,5	-0,023
556,592	1,5	-0,017
558,734	1,5	-0,01
560,881	1,5	-0,007
563,023	1,5	-0,004
565,177	1,5	-0,002
567,319	1,5	-0,002
569,467	1,5	-0,001
571,609	1,5	-0,001
573,751	1,5	-0,001
575,898	1,5	-0,018
578,046	1,5	-0,153
580,182	1,5	-0,221
582,318	1	-0,308
584,466	1	-0,446
586,602	1	-0,515
588,744	0	-0,638
590,886	0	-0,718
593,027	0	-0,805
595,169	-0,5	-0,86
597,311	-1,5	-1,034
599,459	-1,5	-1,131
601,601	-1,5	-1,288
603,737	-2	-1,394
605,879	-2,5	-1,47
608,027	-2,5	-1,566
610,162	-2,5	-1,608
612,31	-3	-1,684
614,452	-3,5	-1,92
616,606	-3,5	-2,025
618,754	-4,5	-2,201
620,896	-4,5	-2,262
623,038	-4,5	-2,34
625,174	-5	-2,419
627,315	-5,5	-2,516
629,451	-5,5	-2,616
631,605	-6	-2,754
633,747	-6,5	-2,846
635,895	-7	-2,928
638,049	-8,5	-3,144
640,191	-9	-3,263
642,339	-9,5	-3,355
644,493	-10	-3,394
646,634	-11	-3,442
648,788	-11,5	-3,467
650,93	-11,5	-3,472
653,072	-11,5	-3,478
655,22	-11,5	-3,487
657,374	-12	-3,492
659,516	-11,5	-3,495
661,652	-11,5	-3,495
663,793	-11,5	-3,495
665,947	-11,5	-3,498
668,095	-12	-3,498
670,237	-11,5	-3,499
672,373	-12	-3,499
674,515	-11,5	-3,499
676,663	-12	-3,499
678,805	-12	-3,499
680,946	-12	-3,5
683,088	-11,5	-3,494
685,236	-11,5	-3,19
687,39	-10	-2,978
689,532	-10	-2,979
691,686	-9	-2,853
693,828	-8	-2,691
695,964	-8,5	-2,664
698,105	-7	-2,555
700,241	-7,5	-2,514
702,389	-6,5	-2,433
704,531	-6	-2,394
706,679	-6	-2,344
708,821	-6	-2,321
710,969	-5	-2,208
713,117	-5	-2,107
715,258	-4,5	-2,009
717,406	-3,5	-1,875
719,554	-4	-1,794
721,702	-3,5	-1,704
723,844	-2,5	-1,664
725,986	-2,5	-1,533
728,134	-2,5	-1,458
730,276	-2	-1,386
732,423	-1,5	-1,285
734,565	-1,5	-1,238
736,713	-1	-1,19
738,855	-1,5	-1,203
741,009	-1	-1,109
743,151	-1	-1,027
745,293	-0,5	-0,902
747,435	-0,5	-0,799
749,571	0	-0,693
751,73	0	-0,583
753,872	0	-0,544
756,014	0	-0,403
758,162	0,5	-0,296
760,304	0,5	-0,199
762,44	0,5	-0,197
764,588	1	-0,124
766,73	1	-0,1
768,877	1	-0,084
771,019	1	-0,076
773,161	1	-0,059
775,303	1,5	-0,046
777,451	1,5	-0,025
779,599	1,5	-0,021
781,747	1,5	-0,018
783,889	1,5	-0,02
786,03	1,5	-0,018
788,178	1,5	-0,015
790,314	1,5	-0,016
792,45	1,5	-0,011
794,586	1,5	-0,009
796,734	1,5	-0,007
798,876	1,5	-0,007
801,012	1,5	-0,006
803,159	1,5	-0,004
805,301	1,5	-0,003
807,443	1,5	-0,002
809,585	1,5	-0,002
811,739	1,5	-0,001
813,881	1,5	-0,001
816,029	1,5	-0,001
818,177	1,5	0
820,318	1,5	-0,015
822,466	1,5	-0,068
824,602	1,5	-0,205
826,75	1	-0,331
828,892	1	-0,407
831,034	1	-0,481
833,17	0,5	-0,534
835,318	0	-0,74
837,465	-0,5	-0,822
839,601	-1	-0,986
841,737	-1	-1,001
843,891	-1	-1,059
846,027	-1,5	-1,031
848,169	-1,5	-1,14
850,317	-2	-1,195
852,459	-1,5	-1,287
854,606	-2	-1,41
856,748	-2	-1,44
858,896	-2,5	-1,531
861,038	-2,5	-1,591
863,18	-2,5	-1,653
865,322	-2,5	-1,666
867,464	-2,5	-1,685
869,606	-2,5	-1,698
871,754	-3	-1,848
873,895	-3	-1,925
876,043	-3	-2,022
878,185	-3	-2,011
880,339	-3,5	-2,081
882,482	-3,5	-2,116
884,623	-3,5	-2,103
886,765	-3,5	-2,131
888,913	-3,5	-2,196
891,054	-4	-2,268
893,19	-4	-2,337
895,332	-4	-2,371
897,474	-4,5	-2,416
899,622	-4,5	-2,506
901,77	-5	-2,561
903,912	-5,5	-2,647
906,054	-6	-2,759
908,195	-6	-2,804
910,337	-6,5	-2,821
912,485	-6,5	-2,871
914,627	-6	-2,89
916,769	-6	-2,902
918,911	-7,5	-3,022
921,059	-7,5	-3,091
923,195	-7,5	-3,076
925,336	-7,5	-3,078
927,49	-8,5	-3,177
929,626	-8	-3,182
931,774	-9	-3,296
933,916	-8,5	-3,276
936,058	-9	-3,289
938,194	-8,5	-3,312
940,33	-9,5	-3,327
942,465	-9	-3,353
944,619	-9,5	-3,364
946,761	-9,5	-3,382
948,909	-10,5	-3,419
951,051	-10,5	-3,427
953,199	-10,5	-3,446
955,341	-10,5	-3,451
957,483	-10,5	-3,459
959,618	-10,5	-3,454
961,76	-10,5	-3,459
963,896	-10,5	-3,464
966,032	-10,5	-3,464
968,186	-10,5	-3,472
970,328	-10,5	-3,482
972,47	-11	-3,486
974,612	-10,5	-3,49
976,754	-11	-3,493
978,895	-10,5	-3,493
981,043	-11	-3,496
983,185	-11	-3,497
985,333	-11	-3,498
987,475	-11	-3,498
989,623	-11	-3,499
991,771	-11	-3,499
993,919	-11	-3,499
996,066	-10,5	-3,437
998,202	-10,5	-3,272
1000,344	-10,5	-3,096
1002,486	-10	-3,083
1004,628	-10	-3,065
1006,77	-9	-2,944
1008,912	-9	-2,904
1011,054	-8,5	-2,778
1013,195	-8	-2,73
1015,331	-7,5	-2,66
1017,473	-7,5	-2,61
1019,609	-7,5	-2,647
1021,757	-7,5	-2,62
1023,893	-7,5	-2,621
1026,035	-7	-2,544
1028,183	-6	-2,448
1030,318	-6	-2,422
1032,466	-6	-2,4
1034,608	-5,5	-2,344
1036,756	-5	-2,22
1038,904	-4,5	-2,119
1041,052	-4	-2,002
1043,194	-3,5	-1,924
1045,33	-3,5	-1,904
1047,465	-3	-1,884
1049,607	-3	-1,834
1051,755	-3	-1,678
1053,891	-2,5	-1,626
1056,045	-2	-1,523
1058,181	-2	-1,425
1060,329	-1,5	-1,378
1062,471	-1,5	-1,299
1064,606	-1	-1,184
1066,76	-1	-1,094
1068,908	-1	-1,051
1071,056	-1	-0,944
1073,204	-0,5	-0,89
1075,346	0	-0,807
1077,482	0	-0,788
1079,63	0	-0,685
1081,778	0	-0,604
1083,913	0	-0,504
1086,055	0	-0,406
1088,191	0	-0,3
1090,333	0,5	-0,198
1092,481	0,5	-0,168
1094,623	0,5	-0,118
1096,777	1	-0,064
1098,913	1	-0,056
1101,06	1,5	-0,036
1103,202	1,5	-0,028
1105,344	1,5	-0,022
1107,486	1,5	-0,016
1109,634	1,5	-0,01
1111,77	1,5	-0,008
1113,912	1,5	-0,006
1116,048	1,5	-0,004
1118,195	1,5	-0,002
1120,331	1,5	-0,001
1122,473	1,5	-0,001
1124,615	1,5	0
1126,757	1,5	-0,071
1128,905	1,5	-0,225
1131,041	1	-0,336
1133,189	1	-0,479
1135,33	0,5	-0,54
1137,472	0	-0,67
1139,614	-0,5	-0,864
1141,762	-1	-0,955
1143,904	-1	-1
1146,046	-1,5	-1,19
1148,188	-1,5	-1,298
1150,33	-1,5	-1,349
1152,477	-2	-1,53
1154,619	-2,5	-1,629
1156,767	-2,5	-1,874
1158,909	-3	-1,961
1161,051	-3	-2,065
1163,193	-3	-2,094
1165,329	-4	-2,269
1167,477	-4,5	-2,456
1169,618	-5,5	-2,65
1171,76	-6	-2,791
1173,902	-6	-2,884
1176,038	-6	-2,946
1178,174	-7	-3,031
1180,316	-7,5	-3,134
1182,458	-8	-3,252
1184,606	-8,5	-3,343
1186,742	-9,5	-3,381
1188,883	-9,5	-3,413
1191,025	-10	-3,451
1193,173	-10,5	-3,471
1195,321	-10,5	-3,478
1197,463	-10,5	-3,484
1199,611	-10,5	-3,489
1201,753	-10,5	-3,491
1203,895	-10,5	-3,494
1206,037	-10,5	-3,495
1208,172	-10,5	-3,496
1210,314	-10,5	-3,498
1212,474	-10,5	-3,499
1214,616	-10,5	-3,499
1216,764	-10,5	-3,499
1218,9	-10,5	-3,5
1221,048	-10,5	-3,5
1223,189	-10,5	-3,444
1225,331	-10,5	-3,348
1227,485	-10,5	-3,237
1229,621	-10	-3,136
1231,763	-9	-2,94
1233,911	-7,5	-2,807
1236,053	-7,5	-2,755
1238,189	-8	-2,784
1240,331	-6,5	-2,648
1242,472	-6	-2,587
1244,62	-5,5	-2,421
1246,762	-5	-2,269
1248,898	-4,5	-2,212
1251,046	-4	-2,083
1253,182	-4	-2,025
1255,33	-3	-1,946
1257,471	-3	-1,927
1259,607	-3,5	-1,918
1261,749	-3	-1,829
1263,897	-2,5	-1,796
1266,033	-2,5	-1,734
1268,187	-2,5	-1,575
1270,329	-2	-1,493
1272,465	-2	-1,509
1274,606	-1,5	-1,432
1276,748	-1	-1,334
1278,884	-1,5	-1,281
1281,032	-0,5	-1,104
1283,174	-0,5	-1,018
1285,316	-0,5	-0,95
1287,452	0	-0,824
1289,594	0	-0,657
1291,736	0	-0,51
1293,877	0	-0,29
1296,019	0,5	-0,209
1298,161	0,5	-0,164
1300,303	0,5	-0,111
1302,445	1	-0,077
1304,593	1,5	-0,057
1306,735	1,5	-0,046
1308,883	1,5	-0,029
1311,024	1,5	-0,017
1313,166	1,5	-0,013
1315,308	1,5	-0,013
1317,45	1,5	-0,008
1319,586	1,5	-0,007
1321,722	1,5	-0,007
1323,864	1,5	-0,006
1326,006	1,5	-0,004
1328,147	1,5	-0,002
1330,289	1,5	-0,002
1332,443	1,5	-0,001
1334,579	1,5	-0,001
1336,727	1,5	-0,001
1338,869	1,5	-0,001
1341,017	1,5	-0,001
1343,159	1,5	0
1345,306	1,5	0
1347,454	1,5	-0,001
1349,602	1,5	0
1351,744	1,5	-0,108
1353,886	1,5	-0,148
1356,034	1,5	-0,228
1358,176	1,5	-0,192
1360,318	1,5	-0,206
1362,466	1	-0,278
1364,607	1	-0,361
1366,755	1	-0,415
1368,897	1	-0,455
1371,039	0,5	-0,544
1373,181	0,5	-0,552
1375,329	0	-0,74
1377,471	0	-0,741
1379,619	0	-0,77
1381,76	0	-0,75
1383,902	-1	-0,848
1386,05	-1	-0,956
1388,198	-1	-0,988
1390,34	-1	-0,99
1392,482	-1	-1,084
1394,624	-1,5	-1,102
1396,766	-1,5	-1,172
1398,919	-1,5	-1,22
1401,067	-2	-1,301
1403,209	-1,5	-1,315
1405,357	-1,5	-1,359
1407,505	-2	-1,354
1409,647	-2	-1,442
1411,795	-2	-1,5
1413,943	-2	-1,57
1416,084	-2	-1,642
1418,232	-2,5	-1,717
1420,374	-2,5	-1,742
1422,516	-3	-1,91
1424,658	-3	-1,97
1426,8	-3	-2,021
1428,936	-3	-2,041
1431,078	-3	-2,123
1433,219	-4	-2,206
1435,355	-3	-2,13
1437,503	-4	-2,27
1439,651	-4,5	-2,393
1441,793	-4,5	-2,469
1443,947	-5	-2,581
1446,089	-5	-2,62
1448,237	-5,5	-2,752
1450,384	-6	-2,861
1452,526	-6	-2,917
1454,674	-6	-2,966
1456,822	-7	-3,014
1458,964	-7,5	-3,107
1461,118	-8	-3,28
1463,26	-9	-3,322
1465,402	-9	-3,362
1467,549	-9	-3,398
1469,691	-9	-3,429
1471,833	-9,5	-3,436
1473,981	-10	-3,447
1476,123	-10	-3,463
1478,265	-10	-3,474
1480,407	-10,5	-3,478
1482,555	-10	-3,48
1484,702	-10,5	-3,483
1486,85	-10,5	-3,49
1488,992	-10,5	-3,493
1491,128	-10,5	-3,492
1493,276	-10,5	-3,495
1495,424	-10,5	-3,497
1497,566	-10,5	-3,498
1499,708	-10,5	-3,499
1501,855	-10,5	-3,499
1503,997	-10,5	-3,5
1506,133	-10,5	-3,494
1508,275	-10,5	-3,342
1510,417	-10,5	-3,278
1512,559	-10,5	-3,171
1514,695	-10,5	-3,205
1516,837	-10	-3,11
1518,973	-9	-2,978
1521,126	-9	-2,878
1523,268	-8	-2,793
1525,404	-8	-2,658
1527,552	-5,5	-2,475
1529,7	-5,5	-2,384
1531,842	-5	-2,269
1533,978	-4,5	-2,17
1536,12	-4	-2,044
1538,261	-3,5	-1,941
1540,403	-3	-1,87
1542,545	-3	-1,739
1544,687	-2	-1,572
1546,829	-2	-1,424
1548,971	-1,5	-1,391
1551,113	-1,5	-1,314
1553,261	-1	-1,138
1555,408	-1	-1,038
1557,556	-0,5	-0,908
1559,698	-0,5	-0,915
1561,84	-0,5	-0,854
1563,988	-0,5	-0,753
1566,13	0	-0,681
1568,278	0	-0,579
1570,426	0	-0,472
1572,567	0	-0,405
1574,709	0	-0,386
1576,857	0	-0,312
1578,999	0	-0,284
1581,147	0	-0,196
1583,289	0,5	-0,167
1585,431	0,5	-0,152
1587,573	0,5	-0,109
1589,708	1	-0,09
1591,862	1	-0,062
1593,998	1	-0,056
1596,146	1	-0,045
1598,294	1	-0,041
1600,436	1,5	-0,035
1602,572	1,5	-0,029
1604,732	1,5	-0,019
1606,868	1,5	-0,015
1609,009	1,5	-0,013
1611,151	1,5	-0,008
1613,293	1,5	-0,007
1615,435	1,5	-0,006
1617,577	1,5	-0,006
1619,719	1,5	-0,004
1621,861	1,5	-0,004
1624,003	1,5	-0,002
1626,15	1,5	-0,002
1628,286	1,5	-0,002
1630,428	1,5	-0,001
1632,582	1,5	-0,001
1634,718	1,5	-0,001
1636,86	1,5	-0,001
1639,002	1,5	0
1641,156	1,5	-0,015
1643,297	1,5	-0,053
1645,433	1,5	-0,153
1647,581	1,5	-0,173
1649,723	1,5	-0,29
1651,865	1	-0,385
1654,007	0,5	-0,451
1656,155	0,5	-0,526
1658,291	0,5	-0,6
1660,426	0	-0,636
1662,574	-0,5	-0,76
1664,722	-0,5	-0,856
1666,864	-1	-0,907
1669,006	-1	-0,995
1671,148	-1	-1,161
1673,29	-1	-1,175
1675,438	-1,5	-1,335
1677,579	-1,5	-1,46
1679,721	-2	-1,644
1681,863	-2,5	-1,71
1684,005	-2,5	-1,883
1686,147	-3	-1,965
1688,289	-3	-2,117
1690,431	-3,5	-2,274
1692,579	-3,5	-2,345
1694,72	-4	-2,474
1696,874	-4,5	-2,686
1699,016	-5,5	-2,837
1701,158	-5,5	-2,962
1703,306	-6,5	-3,09
1705,448	-7	-3,189
1707,59	-7,5	-3,244
1709,732	-8,5	-3,349
1711,868	-8,5	-3,356
1714,015	-8,5	-3,393
1716,157	-9,5	-3,436
1718,299	-10	-3,452
1720,441	-10	-3,464
1722,583	-10	-3,478
1724,731	-10,5	-3,487
1726,873	-10,5	-3,491
1729,015	-10,5	-3,494
1731,156	-10,5	-3,497
1733,292	-10,5	-3,498
1735,44	-10,5	-3,499
1737,576	-10,5	-3,499
1739,718	-10,5	-3,499
1741,86	-10,5	-3,5
1744,002	-10,5	-3,496
1746,144	-10,5	-3,382
1748,285	-10,5	-3,394
1750,427	-10	-3,207
1752,569	-9,5	-3,059
1754,705	-9	-2,996
1756,847	-8,5	-2,914
1758,989	-8,5	-2,879
1761,137	-7	-2,777
1763,279	-7	-2,722
1765,415	-7,5	-2,712
1767,562	-6	-2,605
1769,698	-5,5	-2,509
1771,84	-5,5	-2,502
1773,982	-5	-2,429
1776,13	-5	-2,349
1778,266	-5	-2,344
1780,408	-4	-2,161
1782,549	-3,5	-1,978
1784,697	-3	-1,881
1786,839	-2,5	-1,756
1788,981	-2,5	-1,695
1791,129	-2	-1,614
1793,271	-2	-1,569
1795,413	-1,5	-1,455
1797,549	-1,5	-1,466
1799,696	-1	-1,289
1801,838	-1	-1,203
1803,98	-1	-1,051
1806,128	-1	-0,955
1808,276	0	-0,789
1810,412	-0,5	-0,754
1812,554	0	-0,638
1814,696	0	-0,556
1816,838	0	-0,442
1818,979	0	-0,311
1821,121	0	-0,216
1823,269	0,5	-0,145
1825,411	1	-0,114
1827,559	1	-0,081
1829,701	1	-0,063
1831,849	1,5	-0,036
1833,985	1,5	-0,028
1836,126	1,5	-0,013
1838,274	1,5	-0,014
1840,422	1,5	-0,01
1842,564	1,5	-0,007
1844,712	1,5	-0,004
1846,854	1,5	-0,003
1848,996	1,5	-0,002
1851,138	1,5	-0,002
1853,285	1,5	-0,001
1855,433	1,5	-0,001
1857,569	1,5	-0,001
1859,711	1,5	-0,001
1861,865	1,5	0
1864,013	1,5	-0,005
1866,149	1,5	-0,046
1868,297	1,5	-0,163
1870,444	1,5	-0,29
1872,586	1	-0,38
1874,728	0,5	-0,494
1876,87	0	-0,539
1879,018	0	-0,62
1881,16	0	-0,723
1883,296	-1	-0,824
1885,438	-1	-0,922
1887,585	-1	-1,008
1889,727	-1	-1,107
1891,869	-1	-1,151
1894,017	-1,5	-1,27
1896,159	-1,5	-1,356
1898,295	-1,5	-1,452
1900,431	-2	-1,451
1902,573	-2	-1,528
1904,715	-2	-1,541
1906,856	-2	-1,613
1908,998	-2	-1,669
1911,134	-2,5	-1,78
1913,288	-2,5	-1,885
1915,424	-2,5	-1,916
1917,566	-3	-1,951
1919,708	-3	-2,044
1921,85	-3,5	-2,169
1923,991	-4	-2,284
1926,133	-4	-2,34
1928,281	-4	-2,435
1930,423	-4,5	-2,539
1932,559	-5	-2,666
1934,701	-5	-2,764
1936,849	-6	-2,866
1938,991	-6	-2,921
1941,138	-7	-3,126
1943,28	-7,5	-3,309
1945,416	-8,5	-3,366
1947,564	-9	-3,416
1949,7	-9	-3,412
1951,848	-10	-3,449
1953,996	-10	-3,478
1956,138	-10	-3,488
1958,285	-10	-3,494
1960,421	-10,5	-3,498
1962,563	-10,5	-3,499
1964,699	-10	-3,494
1966,835	-10	-3,284
1968,977	-9	-2,934
1971,125	-7,5	-2,81
1973,267	-6,5	-2,643
1975,408	-6	-2,559
1977,55	-5,5	-2,46
1979,692	-5	-2,32
1981,834	-4,5	-2,18
1983,982	-3,5	-1,935
1986,118	-3	-1,839
1988,266	-2,5	-1,679
1990,402	-2,5	-1,6
1992,543	-1,5	-1,508
1994,685	-1,5	-1,356
1996,827	-1	-1,209
1998,969	-1	-1,132
2001,105	-0,5	-1,074
2003,247	-0,5	-1,018
2005,389	-0,5	-0,925
2007,531	-0,5	-0,858
2009,672	-0,5	-0,724
2011,82	-0,5	-0,622
2013,962	0	-0,539
2016,11	0	-0,405
2018,252	0	-0,322
2020,4	0	-0,217
2022,542	0	-0,199
2024,69	0,5	-0,125
2026,826	1	-0,064
2028,961	1	-0,064
2031,097	1	-0,058
2033,251	1	-0,038
2035,399	1	-0,032
2037,541	1,5	-0,025
2039,683	1,5	-0,021
2041,825	1,5	-0,015
2043,973	1,5	-0,012
2046,114	1,5	-0,008
2048,262	1,5	-0,006
2050,398	1,5	-0,006
2052,546	1,5	-0,005
2054,688	1,5	-0,004
2056,83	1,5	-0,002
2058,972	1,5	-0,002
2061,12	1,5	-0,001
2063,255	1,5	-0,001
2065,397	1,5	-0,001
2067,545	1,5	0
2069,693	1,5	-0,005
2071,829	1,5	-0,012
2073,971	1,5	-0,114
2076,119	1,5	-0,24
2078,261	1	-0,292
2080,402	0,5	-0,524
2082,538	0	-0,582
2084,68	0	-0,648
2086,816	0	-0,712
2088,964	0	-0,771
2091,106	-0,5	-0,816
2093,248	-1	-0,956
2095,39	-1	-1,05
2097,537	-1,5	-1,152
2099,679	-1,5	-1,334
2101,815	-1,5	-1,313
2103,957	-1,5	-1,412
2106,099	-1,5	-1,474
2108,247	-2	-1,543
2110,389	-2	-1,625
2112,531	-2	-1,691
2114,673	-2	-1,667
2116,82	-2,5	-1,88
2118,962	-2,5	-1,958
2121,098	-2,5	-1,968
2123,24	-3	-2,14
2125,382	-3	-2,206
2127,518	-3	-2,275
2129,66	-3,5	-2,337
2131,808	-3,5	-2,444
2133,955	-4	-2,566
2136,097	-4,5	-2,532
2138,239	-4	-2,504
2140,387	-4,5	-2,674
2142,529	-4,5	-2,746
2144,677	-5,5	-2,848
2146,813	-5,5	-2,906
2148,955	-6	-3,009
2151,096	-6	-3,011
2153,238	-7	-3,195
2155,38	-7,5	-3,258
2157,516	-7,5	-3,308
2159,664	-8	-3,35
2161,806	-8	-3,37
2163,954	-8	-3,34
2166,096	-8	-3,376
2168,243	-9	-3,424
2170,385	-9	-3,434
2172,527	-9	-3,443
2174,669	-9	-3,459
2176,817	-9,5	-3,47
2178,959	-9,5	-3,472
2181,107	-10	-3,479
2183,249	-10	-3,484
2185,384	-10	-3,488
2187,526	-10	-3,489
2189,674	-10	-3,493
2191,81	-10	-3,494
2193,952	-10	-3,495
2196,094	-10	-3,496
2198,236	-10	-3,498
2200,378	-10	-3,498
2202,519	-10	-3,498
2204,667	-10	-3,499
2206,815	-10	-3,499
2208,957	-10	-3,499
2211,099	-10	-3,5
2213,247	-9,5	-3,483
2215,389	-10	-3,284
2217,531	-9,5	-3,188
2219,678	-9	-3,107
2221,82	-9	-3,045
2223,956	-8,5	-3,009
2226,098	-8	-2,915
2228,252	-6,5	-2,752
2230,394	-6	-2,61
2232,536	-5	-2,459
2234,678	-4,5	-2,35
2236,826	-4	-2,179
2238,961	-4	-2,132
2241,109	-3	-1,988
2243,254	-3	-1,873
2245,398	-2,5	-1,762
2247,541	-2,5	-1,727
2249,683	-2	-1,65
2251,825	-1,5	-1,509
2253,961	-1,5	-1,398
2256,108	-1	-1,233
2258,25	-0,5	-1,15
2260,398	-0,5	-1,022
2262,534	-0,5	-1,07
2264,676	-0,5	-0,972
2266,824	-0,5	-0,902
2268,966	-0,5	-0,841
2271,108	-0,5	-0,716
2273,249	0	-0,669
2275,397	0	-0,606
2277,551	0	-0,409
2279,693	0	-0,327
2281,835	0	-0,213
2283,977	0	-0,173
2286,125	0,5	-0,132
2288,267	1	-0,108
2290,402	1	-0,089
2292,544	1,5	-0,064
2294,686	1	-0,068
2296,828	1,5	-0,053
2298,97	1,5	-0,042
2301,118	1,5	-0,041
2303,26	1,5	-0,034
2305,408	1,5	-0,024
2307,543	1,5	-0,019
2309,685	1,5	-0,02
2311,833	1,5	-0,013
2313,975	1,5	-0,01
2316,123	1,5	-0,006
2318,259	1,5	-0,005
2320,395	1,5	-0,004
2322,537	1,5	-0,003
2324,684	1,5	-0,002
2326,82	2	-0,002
2328,962	1,5	-0,002
2331,104	1,5	-0,001
2333,246	1,5	-0,001
2335,394	1,5	-0,001
2337,536	1,5	0
2339,678	1,5	0
2341,819	1,5	0
2343,961	1,5	-0,09
2346,097	1,5	-0,155
2348,239	1,5	-0,164
2350,375	1,5	-0,121
2352,517	1,5	-0,165
2354,659	1,5	-0,18
2356,801	1,5	-0,184
2358,943	1	-0,278
2361,09	1	-0,366
2363,232	1	-0,401
2365,38	0,5	-0,466
2367,522	0,5	-0,543
2369,658	1	-0,499
2371,8	0	-0,545
2373,948	0	-0,651
2376,09	0	-0,75
2378,231	-0,5	-0,822
2380,373	-0,5	-0,851
2382,509	-0,5	-0,855
2384,651	-0,5	-0,87
2386,799	-0,5	-0,97
2388,935	-0,5	-1,082
2391,077	-1	-1,132
2393,213	-1	-1,191
2395,355	-1	-1,299
2397,496	-1,5	-1,472
2399,632	-1,5	-1,482
2401,774	-1,5	-1,58
2403,916	-2	-1,605
2406,058	-2	-1,682
2408,206	-2	-1,879
2410,348	-2	-1,94
2412,489	-2,5	-2,001
2414,631	-2,5	-2,067
2416,773	-2,5	-2,102
2418,915	-2,5	-2,141
2421,057	-3	-2,225
2423,205	-3,5	-2,475
2425,353	-3,5	-2,577
2427,489	-4	-2,608
2429,63	-4	-2,622
2431,772	-4,5	-2,72
2433,908	-4,5	-2,743
2436,05	-4,5	-2,801
2438,192	-5	-2,942
2440,334	-6	-3,152
2442,47	-5,5	-3,092
2444,606	-5,5	-3,071
2446,742	-5,5	-3,032
2448,889	-6	-3,178
2451,031	-6,5	-3,283
2453,173	-7	-3,295
2455,321	-7,5	-3,341
2457,457	-7,5	-3,351
2459,599	-7,5	-3,376
2461,741	-7,5	-3,391
2463,883	-8	-3,421
2466,018	-8	-3,446
2468,166	-8,5	-3,46
2470,302	-8,5	-3,466
2472,444	-8,5	-3,476
2474,586	-8,5	-3,478
2476,728	-8,5	-3,478
2478,876	-8,5	-3,479
2481,018	-8,5	-3,484
2483,153	-8,5	-3,482
2485,295	-8,5	-3,482
2487,437	-8,5	-3,487
2489,579	-8,5	-3,486
2491,727	-8,5	-3,49
2493,869	-8,5	-3,491
2496,011	-8,5	-3,492
2498,147	-8,5	-3,492
2500,294	-8,5	-3,495
2502,436	-9	-3,496
2504,578	-9	-3,496
2506,714	-8,5	-3,496
2508,85	-9	-3,498
2510,992	-8,5	-3,498
2513,134	-8,5	-3,499
2515,276	-8,5	-3,499
2517,411	-8,5	-3,499
2519,559	-8,5	-3,5
2521,701	-8,5	-3,5
2523,843	-8,5	-3,439
2525,985	-8,5	-3,348
2528,121	-8,5	-3,302
2530,263	-8,5	-3,254
2532,405	-8,5	-3,197
2534,541	-8,5	-3,181
2536,682	-8	-3,056
2538,824	-7	-2,898
2540,972	-5,5	-2,706
2543,108	-5	-2,611
2545,256	-4,5	-2,552
2547,404	-4	-2,354
2549,546	-3,5	-2,21
2551,694	-2,5	-1,974
2553,835	-2	-1,812
2555,977	-1,5	-1,644
2558,119	-1	-1,45
2560,267	-0,5	-1,317
2562,415	-0,5	-1,178
2564,563	-0,5	-1,012
2566,705	0	-0,924
2568,847	0	-0,899
2570,994	0	-0,73
2573,136	0	-0,584
2575,284	0	-0,444
2577,426	0	-0,26
2579,568	0,5	-0,176
2581,716	1	-0,108
2583,852	1	-0,084
2585,994	1	-0,06
2588,141	1	-0,044
2590,283	1,5	-0,032
2592,431	1,5	-0,02
2594,567	1,5	-0,013
2596,703	1,5	-0,008
2598,839	1,5	-0,006
2600,987	1,5	-0,004
2603,129	1,5	-0,002
2605,27	1,5	-0,002
2607,406	1,5	-0,001
2609,542	1,5	-0,001
2611,69	1,5	-0,047
2613,832	1,5	-0,152
2615,974	1,5	-0,293
2618,11	1	-0,378
2620,258	1	-0,501
2622,394	0	-0,607
2624,547	0	-0,814
2626,683	-1	-1,052
2628,825	-1	-1,256
2630,967	-1,5	-1,45
2633,115	-1,5	-1,596
2635,269	-2	-1,807
2637,411	-2	-1,852
2639,552	-2	-2,062
2641,694	-2,5	-2,219
2643,836	-3	-2,434
2645,984	-3,5	-2,573
2648,132	-3,5	-2,691
2650,268	-4	-2,786
2652,41	-4,5	-2,89
2654,552	-4,5	-2,946
2656,694	-4,5	-3,101
2658,835	-5,5	-3,229
2660,977	-5,5	-3,285
2663,119	-6	-3,372
2665,255	-6,5	-3,384
2667,391	-6,5	-3,411
2669,533	-7,5	-3,449
2671,675	-7,5	-3,463
2673,817	-8	-3,475
2675,952	-8	-3,483
2678,094	-8	-3,486
2680,236	-8	-3,491
2682,378	-8	-3,495
2684,52	-8	-3,496
2686,662	-8	-3,498
2688,798	-7,5	-3,498
2690,94	-8	-3,498
2693,087	-7,5	-3,498
2695,229	-7,5	-3,498
2697,371	-8	-3,498
2699,513	-7,5	-3,498
2701,649	-7,5	-3,499
2703,797	-7,5	-3,499
2705,933	-7,5	-3,499
2708,075	-7,5	-3,5
2710,21	-7,5	-3,42
2712,358	-8	-3,274
2714,494	-8	-3,298
2716,636	-7,5	-3,212
2718,778	-7	-3,124
2720,926	-6,5	-2,995
2723,062	-6	-2,909
2725,198	-6	-2,826
2727,339	-4,5	-2,684
2729,475	-4,5	-2,584
2731,617	-3,5	-2,48
2733,759	-3	-2,329
2735,907	-2,5	-2,138
2738,043	-2	-2,042
2740,179	-2	-1,964
2742,321	-1,5	-1,854
2744,469	-1,5	-1,704
2746,61	-1,5	-1,612
2748,752	-1	-1,54
2750,888	-1	-1,471
2753,036	-0,5	-1,273
2755,178	-0,5	-1,133
2757,326	-0,5	-0,978
2759,468	0	-0,864
2761,609	0	-0,734
2763,745	0	-0,655
2765,881	0	-0,533
2768,035	0	-0,358
2770,177	0,5	-0,22
2772,319	0,5	-0,213
2774,461	0,5	-0,152
2776,603	1	-0,102
2778,745	1	-0,084
2780,886	1	-0,085
2783,028	1	-0,075
2785,164	1	-0,088
2787,312	1,5	-0,058
2789,46	1,5	-0,046
2791,602	1,5	-0,033
2793,744	1,5	-0,02
2795,88	1,5	-0,018
2798,021	1,5	-0,01
2800,163	1,5	-0,007
2802,311	1,5	-0,006
2804,453	1,5	-0,004
2806,595	1,5	-0,004
2808,731	1,5	-0,003
2810,867	1,5	-0,003
2813,021	1,5	-0,002
2815,162	1,5	-0,002
2817,304	1,5	-0,001
2819,47	1,5	0
2821,606	1,5	-0,003
2823,754	1,5	-0,109
2825,89	1,5	-0,143
2828,032	1,5	-0,181
2830,168	1,5	-0,145
2832,303	1,5	-0,241
2834,445	1,5	-0,368
2836,593	0,5	-0,47
2838,735	0,5	-0,552
2840,871	0	-0,584
2843,013	0	-0,65
2845,155	0	-0,664
2847,297	0	-0,762
2849,444	0	-0,856
2851,586	0	-0,861
2853,734	-0,5	-0,889
2855,876	-0,5	-0,939
2858,018	-0,5	-1,038
2860,166	-0,5	-1,198
2862,308	-1	-1,221
2864,456	-1	-1,409
2866,597	-1	-1,602
2868,739	-1	-1,675
2870,887	-1,5	-1,76
2873,035	-2	-1,904
2875,177	-2	-1,966
2877,319	-2	-2,09
2879,461	-2	-2,173
2881,603	-2	-2,282
2883,751	-2,5	-2,33
2885,892	-2,5	-2,408
2888,034	-3	-2,511
2890,176	-3	-2,636
2892,318	-3	-2,703
2894,466	-3,5	-2,777
2896,614	-3,5	-2,874
2898,756	-4	-2,99
2900,904	-4	-3,091
2903,045	-4,5	-3,13
2905,193	-4,5	-3,225
2907,341	-5	-3,29
2909,483	-5	-3,327
2911,631	-5,5	-3,394
2913,773	-5,5	-3,414
2915,915	-6	-3,444
2918,063	-6	-3,464
2920,198	-6	-3,465
2922,34	-6	-3,473
2924,488	-6,5	-3,482
2926,63	-6	-3,488
2928,778	-6	-3,492
2930,92	-6,5	-3,494
2933,062	-6,5	-3,495
2935,204	-6	-3,496
2937,345	-6	-3,497
2939,481	-6,5	-3,498
2941,623	-6	-3,498
2943,759	-6,5	-3,499
2945,901	-6,5	-3,499
2948,049	-6,5	-3,499
2950,185	-6	-3,497
2952,327	-6	-3,45
2954,468	-6,5	-3,349
2956,61	-6	-3,284
2958,752	-6	-3,277
2960,894	-6	-3,219
2963,036	-6	-3,146
2965,178	-5,5	-3,084
2967,326	-5	-3,03
2969,468	-4,5	-2,937
2971,61	-4,5	-2,854
2973,751	-3,5	-2,713
2975,893	-3	-2,588
2978,035	-3	-2,512
2980,177	-2,5	-2,349
2982,319	-2	-2,182
2984,461	-1,5	-2,12
2986,599	-1,5	-2,084
2988,745	-1,5	-2,019
2990,886	-1,5	-1,969
2993,028	-1,5	-1,853
2995,17	-1	-1,799
2997,306	-1	-1,747
2999,454	-1	-1,643
3001,59	-0,5	-1,459
3003,732	-0,5	-1,35
3005,874	0	-1,214
3008,021	0	-1,044
3010,169	0	-0,938
3012,311	0	-0,796
3014,453	0	-0,729
3016,595	0	-0,68
3018,737	0	-0,564
3020,879	0	-0,434
3023,027	0	-0,3
3025,162	0	-0,234
3027,304	0,5	-0,196
3029,446	0,5	-0,192
3031,588	0,5	-0,18
3033,742	1	-0,12
3035,884	1	-0,088
3038,026	1	-0,078
3040,162	1,5	-0,044
3042,303	1,5	-0,036
3044,445	1,5	-0,029
3046,593	1,5	-0,024
3048,729	1,5	-0,023
3050,871	1,5	-0,015
3053,013	1,5	-0,012
3055,149	1,5	-0,01
3057,297	1,5	-0,008
3059,444	1,5	-0,006
3061,586	1,5	-0,006
3063,728	1,5	-0,005
3065,864	1,5	-0,003
3068,012	2	-0,002
3070,16	1,5	-0,001
3072,308	1,5	-0,001
3074,444	1,5	-0,001
3076,585	1,5	-0,001
3078,727	1,5	-0,001
3080,881	1,5	-0,006
3083,023	1,5	-0,113
3085,165	1,5	-0,251
3087,301	1,5	-0,32
3089,443	1	-0,461
3091,585	0,5	-0,56
3093,726	0	-0,622
3095,868	0	-0,71
3098,01	0	-0,882
3100,158	-0,5	-1,043
3102,3	-0,5	-1,226
3104,448	-1	-1,36
3106,59	-0,5	-1,447
3108,732	-1	-1,566
3110,874	-1	-1,611
3113,009	-1	-1,643
3115,145	-1	-1,711
3117,287	-1	-1,76
3119,435	-1,5	-1,832
3121,577	-1,5	-1,941
3123,713	-1,5	-1,988
3125,855	-1,5	-2,082
3127,997	-1,5	-2,126
3130,144	-2	-2,228
3132,286	-1,5	-2,354
3134,422	-2	-2,453
3136,564	-2	-2,53
3138,706	-2	-2,57
3140,854	-2,5	-2,651
3142,996	-2,5	-2,722
3145,132	-3	-2,733
3147,273	-3	-2,846
3149,415	-3	-2,966
3151,563	-3,5	-3,057
3153,711	-3,5	-3,127
3155,853	-4	-3,233
3157,989	-4	-3,258
3160,131	-4	-3,314
3162,273	-5	-3,4
3164,408	-5	-3,394
3166,556	-5	-3,429
3168,698	-5	-3,437
3170,84	-5	-3,444
3172,982	-5	-3,452
3175,124	-5,5	-3,468
3177,272	-5,5	-3,481
3179,414	-5,5	-3,483
3181,556	-5,5	-3,486
3183,697	-5,5	-3,491
3185,839	-5,5	-3,493
3187,069	1,5	0