File: Cycling_tests/_60perc/_1gap/entrada/_2.txt
Time (s)	Load (N)	Displacement (mm)
0	0	-0,023
2,17	0	-0,375
4,306	0	-0,572
6,442	-1	-0,72
8,578	-1,5	-0,872
10,713	-2	-1,026
12,849	-3	-1,106
14,991	-3	-1,237
17,127	-3	-1,357
19,263	-3,5	-1,491
21,399	-4	-1,579
23,535	-4,5	-1,682
25,671	-4,5	-1,726
27,812	-4,5	-1,856
29,948	-5	-1,94
32,084	-5,5	-2,104
34,22	-6	-2,3
36,362	-6,5	-2,388
38,498	-7,5	-2,494
40,634	-8	-2,6
42,77	-9	-2,806
44,911	-9,5	-2,905
47,047	-10	-3,006
49,183	-10	-3,168
51,325	-10,5	-3,274
53,461	-12	-3,377
55,597	-13	-3,427
57,733	-13,5	-3,448
59,869	-13,5	-3,458
62,005	-13,5	-3,47
64,14	-14	-3,483
66,282	-14	-3,49
68,418	-14	-3,493
70,554	-14	-3,494
72,696	-14	-3,496
74,838	-14	-3,497
76,98	-13,5	-3,498
79,121	-13,5	-3,499
81,263	-13,5	-3,499
83,405	-13,5	-3,5
85,547	-13,5	-3,47
87,689	-13,5	-3,32
89,825	-12,5	-3,157
91,973	-11,5	-2,927
94,109	-10	-2,784
96,245	-9,5	-2,641
98,38	-9	-2,471
100,516	-7,5	-2,297
102,664	-6	-2,094
104,806	-5	-1,943
106,942	-5	-1,784
109,078	-4	-1,573
111,214	-3	-1,382
113,35	-2,5	-1,249
115,485	-2	-1,16
117,627	-1,5	-1,021
119,769	-1	-0,868
121,911	-0,5	-0,658
124,053	0	-0,464
126,189	0	-0,279
128,325	1	-0,159
130,466	1,5	-0,079
132,602	1,5	-0,045
134,744	1,5	-0,023
136,886	1,5	-0,014
139,022	1,5	-0,01
141,158	1,5	-0,005
143,3	1,5	-0,002
145,436	1,5	-0,001
147,578	1,5	-0,001
149,713	1,5	-0,032
151,855	1,5	-0,244
153,991	1	-0,42
156,127	0,5	-0,51
158,263	0	-0,61
160,399	-0,5	-0,717
162,535	0	-0,881
164,671	-1,5	-1,045
166,806	-2	-1,208
168,942	-2	-1,228
171,084	-2,5	-1,39
173,22	-2,5	-1,512
175,362	-3	-1,664
177,504	-3,5	-1,89
179,64	-4,5	-2,055
181,776	-4,5	-2,276
183,917	-5,5	-2,439
186,053	-6	-2,58
188,189	-7	-2,736
190,337	-8,5	-2,948
192,479	-9	-3,131
194,615	-9	-3,238
196,751	-10	-3,343
198,893	-10,5	-3,402
201,035	-10,5	-3,401
203,176	-12	-3,436
205,312	-12	-3,454
207,448	-12	-3,468
209,59	-12,5	-3,485
211,732	-12,5	-3,488
213,868	-12,5	-3,492
216,01	-12,5	-3,494
218,151	-12,5	-3,497
220,299	-12,5	-3,498
222,435	-12	-3,499
224,577	-12,5	-3,499
226,719	-12,5	-3,498
228,855	-12,5	-3,419
230,997	-12	-3,242
233,133	-11,5	-3,086
235,268	-10,5	-2,975
237,404	-9	-2,8
239,54	-8,5	-2,678
241,676	-8	-2,61
243,818	-7,5	-2,501
245,96	-6	-2,28
248,096	-5,5	-2,234
250,238	-5	-2,125
252,374	-4,5	-2,062
254,515	-4,5	-1,99
256,651	-4,5	-1,879
258,787	-3,5	-1,714
260,929	-3	-1,505
263,065	-2	-1,41
265,201	-2	-1,288
267,337	-1,5	-1,173
269,473	-1	-1,045
271,608	-1,5	-1,009
273,756	-0,5	-0,848
275,892	0	-0,796
278,034	0	-0,704
280,17	0	-0,614
282,312	0	-0,5
284,448	0	-0,425
286,59	0	-0,317
288,725	0,5	-0,219
290,867	1	-0,132
293,003	1	-0,108
295,139	1,5	-0,081
297,275	1,5	-0,063
299,411	1,5	-0,048
301,547	1,5	-0,03
303,689	1,5	-0,014
305,83	1,5	-0,01
307,966	1,5	-0,005
310,108	1,5	-0,003
312,25	1,5	-0,002
314,386	2	-0,002
316,528	1,5	-0,002
318,665	1,5	-0,001
320,8	1,5	-0,001
322,942	1,5	0
325,077	1,5	-0,032
327,216	1,5	-0,228
329,349	1	-0,454
331,485	0,5	-0,576
333,627	0,5	-0,631
335,769	0	-0,725
337,905	0	-0,815
340,047	0	-0,913
342,188	-1	-1,048
344,33	-1,5	-1,185
346,472	-2	-1,395
348,62	-2	-1,528
350,768	-2,5	-1,682
352,904	-3	-1,799
355,04	-3	-1,915
357,176	-3	-1,978
359,317	-3,5	-2,145
361,459	-3,5	-2,201
363,607	-4,5	-2,388
365,749	-5	-2,491
367,891	-5,5	-2,643
370,033	-6	-2,732
372,175	-6	-2,824
374,323	-6,5	-2,968
376,458	-7	-3,052
378,6	-8	-3,232
380,742	-8,5	-3,317
382,89	-10	-3,392
385,026	-10,5	-3,435
387,168	-11	-3,456
389,31	-11	-3,466
391,452	-11	-3,475
393,593	-11	-3,479
395,729	-11	-3,483
397,871	-11,5	-3,488
400,013	-11,5	-3,493
402,149	-11,5	-3,494
404,285	-11,5	-3,494
406,421	-11,5	-3,495
408,557	-11,5	-3,498
410,704	-11	-3,498
412,84	-11	-3,499
414,976	-11,5	-3,499
417,118	-11	-3,5
419,254	-11,5	-3,496
421,396	-11,5	-3,366
423,538	-11,5	-3,244
425,674	-10,5	-3,131
427,816	-10	-3
429,951	-10	-3,008
432,093	-9	-2,802
434,235	-8	-2,544
436,371	-5,5	-2,231
438,519	-5	-2,07
440,655	-3,5	-1,912
442,791	-3,5	-1,764
444,927	-2,5	-1,701
447,074	-2,5	-1,525
449,216	-2	-1,378
451,358	-1	-1,185
453,5	-0,5	-1,018
455,642	-0,5	-0,865
457,778	-0,5	-0,776
459,914	0	-0,686
462,056	0	-0,551
464,191	0	-0,46
466,327	0	-0,35
468,469	1	-0,181
470,611	1	-0,106
472,753	1,5	-0,053
474,889	1,5	-0,038
477,025	1,5	-0,018
479,167	1,5	-0,011
481,302	1,5	-0,008
483,438	2	-0,006
485,58	1,5	-0,004
487,716	1,5	-0,002
489,864	2	-0,002
492,012	1,5	-0,001
494,16	1,5	-0,027
496,302	1,5	-0,275
498,443	1	-0,406
500,579	0,5	-0,514
502,721	0	-0,638
504,863	0	-0,752
507,005	-0,5	-0,915
509,153	-1	-1,161
511,289	-1,5	-1,228
513,431	-1,5	-1,348
515,566	-1,5	-1,395
517,702	-2	-1,501
519,85	-2,5	-1,709
521,986	-2,5	-1,851
524,122	-3	-1,962
526,27	-3	-2,085
528,412	-3,5	-2,183
530,56	-4,5	-2,37
532,707	-5	-2,552
534,849	-5	-2,671
536,985	-5,5	-2,751
539,127	-6	-2,876
541,269	-7	-3,064
543,411	-7,5	-3,189
545,547	-8	-3,278
547,689	-8,5	-3,342
549,825	-8,5	-3,376
551,96	-9,5	-3,406
554,096	-10	-3,436
556,238	-10,5	-3,456
558,38	-10,5	-3,468
560,516	-10,5	-3,473
562,664	-10,5	-3,483
564,8	-10,5	-3,484
566,948	-10,5	-3,484
569,089	-10,5	-3,487
571,237	-11	-3,489
573,379	-11	-3,492
575,515	-10,5	-3,493
577,657	-11	-3,495
579,811	-11	-3,497
581,953	-10,5	-3,498
584,089	-11	-3,499
586,236	-10,5	-3,499
588,372	-10,5	-3,499
590,514	-10,5	-3,5
592,65	-10,5	-3,461
594,792	-10,5	-3,274
596,928	-10,5	-3,134
599,064	-10	-3,076
601,212	-8,5	-2,872
603,353	-7,5	-2,732
605,495	-6	-2,554
607,637	-5,5	-2,413
609,779	-5	-2,283
611,921	-4	-2,067
614,063	-3,5	-1,958
616,211	-3	-1,788
618,359	-2	-1,558
620,501	-1,5	-1,438
622,636	-1,5	-1,333
624,784	-0,5	-1,14
626,926	-0,5	-1,009
629,068	-0,5	-0,859
631,222	0	-0,658
633,364	0	-0,495
635,506	0,5	-0,242
637,641	1	-0,168
639,789	1,5	-0,077
641,925	1,5	-0,046
644,073	1,5	-0,027
646,215	1,5	-0,015
648,357	1,5	-0,008
650,511	2	-0,006
652,653	1,5	-0,004
654,789	1,5	-0,004
656,924	2	-0,002
659,06	1,5	-0,002
661,196	1,5	-0,001
663,338	2	-0,003
665,474	1,5	-0,169
667,616	1	-0,383
669,752	1,5	-0,41
671,9	0,5	-0,596
674,041	0	-0,7
676,183	0	-0,772
678,325	0	-0,89
680,467	-0,5	-1,001
682,615	-0,5	-1,065
684,763	-1	-1,204
686,917	-1,5	-1,367
689,065	-1,5	-1,613
691,206	-2	-1,679
693,354	-2,5	-1,818
695,49	-2,5	-1,886
697,626	-3	-2,056
699,768	-3	-2,218
701,904	-4	-2,345
704,04	-3,5	-2,371
706,182	-4,5	-2,517
708,317	-4,5	-2,537
710,453	-5,5	-2,813
712,589	-6	-2,918
714,725	-7	-3,025
716,873	-7	-3,078
719,015	-6,5	-3,086
721,157	-7,5	-3,185
723,299	-7,5	-3,222
725,44	-8	-3,339
727,588	-9,5	-3,406
729,73	-10	-3,444
731,872	-10	-3,465
734,02	-10	-3,476
736,162	-10,5	-3,481
738,31	-10,5	-3,488
740,452	-10,5	-3,492
742,588	-10,5	-3,494
744,723	-10,5	-3,496
746,877	-10,5	-3,498
749,019	-10,5	-3,498
751,167	-10,5	-3,499
753,309	-10,5	-3,5
755,451	-10,5	-3,456
757,587	-10,5	-3,33
759,735	-10	-3,191
761,882	-8,5	-2,996
764,018	-8,5	-2,901
766,166	-6,5	-2,709
768,308	-6	-2,564
770,456	-6	-2,483
772,598	-5,5	-2,38
774,746	-4,5	-2,266
776,881	-3,5	-2,13
779,023	-3	-1,984
781,165	-2,5	-1,799
783,301	-2	-1,678
785,443	-1,5	-1,532
787,585	-1	-1,376
789,721	0	-0,961
791,863	0	-0,81
793,999	0	-0,63
796,14	0,5	-0,383
798,288	0,5	-0,23
800,43	1	-0,136
802,572	1	-0,094
804,714	1,5	-0,054
806,856	1,5	-0,016
809,004	1,5	-0,01
811,146	1,5	-0,006
813,287	1,5	-0,003
815,429	1,5	-0,002
817,565	1,5	0
819,719	1,5	-0,078
821,861	1,5	-0,259
824,003	1,5	-0,402
826,139	0,5	-0,571
828,281	0	-0,719
830,428	-0,5	-0,921
832,564	-0,5	-1,032
834,712	-1	-1,283
836,848	-1,5	-1,415
838,984	-1,5	-1,547
841,126	-1,5	-1,677
843,268	-2,5	-1,856
845,41	-3	-2,071
847,558	-3,5	-2,369
849,699	-4,5	-2,537
851,847	-5,5	-2,846
853,989	-6	-3,041
856,137	-7,5	-3,264
858,279	-8,5	-3,381
860,427	-9,5	-3,444
862,569	-10	-3,471
864,711	-10	-3,487
866,858	-10,5	-3,492
869	-10,5	-3,496
871,148	-10,5	-3,498
873,29	-10,5	-3,498
875,438	-10,5	-3,499
877,58	-10	-3,461
879,722	-10	-3,226
881,858	-9	-3,081
884,017	-7,5	-2,802
886,159	-6,5	-2,619
888,307	-5,5	-2,438
890,449	-4,5	-2,248
892,597	-3,5	-2,045
894,733	-3	-1,881
896,875	-2,5	-1,74
899,017	-1,5	-1,435
901,158	-1	-1,289
903,306	-0,5	-1,054
905,448	0	-0,754
907,596	0	-0,54
909,738	0,5	-0,324
911,88	1	-0,152
914,016	1,5	-0,1
916,158	1,5	-0,059
918,299	1,5	-0,035
920,447	1,5	-0,018
922,589	1,5	-0,011
924,731	2	-0,006
926,879	1,5	-0,003
929,015	1,5	-0,002
931,157	1,5	-0,001
933,299	1,5	0
935,452	1,5	-0,174
937,594	1,5	-0,404
939,736	0,5	-0,61
941,878	0	-0,797
944,032	-0,5	-1,079
946,168	-1	-1,296
948,31	-1,5	-1,481
950,452	-1,5	-1,683
952,599	-2,5	-2,046
954,741	-3	-2,293
956,883	-3,5	-2,366
959,025	-3,5	-2,516
961,167	-4,5	-2,657
963,309	-5,5	-2,83
965,445	-5,5	-3,031
967,593	-7,5	-3,288
969,735	-8,5	-3,392
971,876	-9	-3,433
974,018	-9,5	-3,456
976,16	-10	-3,477
978,302	-10	-3,485
980,444	-10	-3,493
982,586	-10	-3,495
984,722	-10	-3,497
986,876	-10	-3,499
989,011	-10	-3,488
991,153	-10	-3,271
993,295	-8,5	-2,96
995,438	-7	-2,74
997,573	-6	-2,645
999,715	-5,5	-2,463
1001,857	-3,5	-2,061
1004,005	-2,5	-1,746
1006,14	-1,5	-1,572
1008,282	-1	-1,368
1010,424	-1	-1,168
1012,566	-0,5	-0,941
1014,708	0	-0,669
1016,844	0,5	-0,371
1018,986	0,5	-0,228
1021,128	1,5	-0,106
1023,263	1,5	-0,046
1025,405	1,5	-0,025
1027,547	1,5	-0,008
1029,689	2	-0,004
1031,837	2	-0,002
1033,973	2	0
1036,121	1,5	-0,147
1038,257	1,5	-0,285
1040,393	1,5	-0,417
1042,534	0,5	-0,596
1044,676	0	-0,796
1046,83	-0,5	-1,082
1048,972	-1	-1,271
1051,114	-1	-1,39
1053,256	-1,5	-1,526
1055,392	-2	-1,759
1057,533	-2	-1,916
1059,681	-3	-2,209
1061,823	-4	-2,452
1063,965	-4,5	-2,731
1066,107	-6	-3,056
1068,249	-6	-3,124
1070,385	-7	-3,24
1072,527	-8	-3,358
1074,669	-9	-3,433
1076,804	-9,5	-3,451
1078,946	-9,5	-3,474
1081,082	-10	-3,483
1083,224	-10	-3,489
1085,366	-10	-3,492
1087,508	-10	-3,494
1089,65	-10	-3,496
1091,792	-10	-3,499
1093,933	-10	-3,5
1096,075	-10	-3,5
1098,223	-9,5	-3,309
1100,365	-8,5	-2,98
1102,507	-6,5	-2,782
1104,655	-5,5	-2,514
1106,791	-4,5	-2,35
1108,933	-4	-2,162
1111,074	-3,5	-2,079
1113,21	-2	-1,734
1115,358	-1	-1,532
1117,494	-1,5	-1,389
1119,648	-0,5	-1,104
1121,784	0	-0,934
1123,926	0	-0,564
1126,068	0	-0,424
1128,203	0,5	-0,298
1130,357	1	-0,136
1132,493	1,5	-0,085
1134,635	1,5	-0,052
1136,777	2	-0,03
1138,919	2	-0,018
1141,067	2	-0,005
1143,209	1,5	-0,003
1145,345	1,5	0
1147,48	1,5	-0,019
1149,616	1,5	-0,203
1151,752	1	-0,414
1153,9	0	-0,595
1156,036	0	-0,62
1158,178	0	-0,746
1160,314	-0,5	-0,888
1162,455	-0,5	-1,035
1164,597	-1	-1,234
1166,739	-1,5	-1,418
1168,875	-1,5	-1,56
1171,017	-2	-1,78
1173,153	-2	-1,827
1175,301	-3	-2,18
1177,443	-3,5	-2,385
1179,579	-4	-2,511
1181,72	-4,5	-2,646
1183,862	-4,5	-2,766
1186,004	-6	-3,066
1188,146	-6	-3,17
1190,294	-7,5	-3,312
1192,43	-8	-3,379
1194,572	-8,5	-3,424
1196,714	-9	-3,442
1198,861	-9,5	-3,471
1201,003	-9,5	-3,482
1203,151	-9,5	-3,49
1205,287	-9,5	-3,494
1207,423	-10	-3,497
1209,559	-9,5	-3,5
1211,701	-10	-3,433
1213,843	-9	-3,152
1215,99	-8,5	-2,885
1218,132	-6	-2,68
1220,28	-5	-2,488
1222,422	-4	-2,253
1224,57	-3	-2,064
1226,706	-2,5	-1,831
1228,854	-1,5	-1,602
1231,002	-1	-1,405
1233,143	-0,5	-1,243
1235,291	0	-0,923
1237,433	0	-0,708
1239,575	0	-0,555
1241,723	0,5	-0,271
1243,859	1,5	-0,109
1246,007	1,5	-0,026
1248,143	2	-0,012
1250,285	1,5	-0,004
1252,426	1,5	-0,002
1254,568	1,5	0
1256,704	1,5	-0,237
1258,846	1,5	-0,38
1260,982	0,5	-0,55
1263,124	0	-0,786
1265,266	-0,5	-1,008
1267,408	-1	-1,26
1269,543	-1,5	-1,451
1271,679	-1,5	-1,695
1273,827	-2	-1,936
1275,969	-3	-2,097
1278,117	-3	-2,321
1280,259	-4	-2,494
1282,395	-4,5	-2,679
1284,537	-5,5	-2,985
1286,684	-7	-3,281
1288,826	-8	-3,385
1290,974	-9	-3,444
1293,116	-9,5	-3,466
1295,258	-9,5	-3,481
1297,4	-9,5	-3,488
1299,542	-9,5	-3,493
1301,684	-9,5	-3,497
1303,819	-10	-3,499
1305,961	-9,5	-3,5
1308,097	-9,5	-3,439
1310,251	-9	-3,1
1312,387	-7	-2,848
1314,529	-6,5	-2,708
1316,665	-6	-2,586
1318,807	-5	-2,461
1320,942	-4	-2,159
1323,09	-3	-1,961
1325,226	-2,5	-1,83
1327,368	-1,5	-1,593
1329,51	-1	-1,42
1331,652	-0,5	-1,226
1333,788	-0,5	-0,993
1335,924	0	-0,814
1338,066	0	-0,656
1340,207	0	-0,59
1342,349	0,5	-0,482
1344,491	0,5	-0,314
1346,645	1	-0,152
1348,787	1,5	-0,086
1350,923	1,5	-0,046
1353,065	1,5	-0,024
1355,201	2	-0,014
1357,348	1,5	-0,007
1359,49	1,5	-0,004
1361,632	2	-0,002
1363,768	2	-0,001
1365,91	2	0
1368,046	2	-0,048
1370,188	1,5	-0,229
1372,33	1,5	-0,42
1374,465	0,5	-0,559
1376,607	0	-0,695
1378,749	0	-0,872
1380,885	-0,5	-1,079
1383,027	-1	-1,28
1385,169	-1	-1,398
1387,305	-1,5	-1,52
1389,447	-1,5	-1,645
1391,588	-1,5	-1,86
1393,73	-2	-2,002
1395,866	-2,5	-2,149
1398,008	-3,5	-2,428
1400,15	-4	-2,606
1402,286	-4,5	-2,696
1404,428	-4,5	-2,841
1406,57	-5	-3,016
1408,705	-6	-3,179
1410,847	-6,5	-3,257
1412,989	-7,5	-3,37
1415,131	-8	-3,421
1417,279	-9	-3,459
1419,427	-9	-3,477
1421,569	-9,5	-3,488
1423,717	-9,5	-3,492
1425,852	-9,5	-3,494
1427,994	-9,5	-3,496
1430,13	-9,5	-3,498
1432,272	-9,5	-3,498
1434,414	-9,5	-3,499
1436,556	-9,5	-3,499
1438,698	-10	-3,499
1440,84	-9,5	-3,494
1442,975	-9,5	-3,395
1445,117	-9,5	-3,256
1447,259	-8,5	-3,086
1449,395	-8,5	-3,012
1451,537	-7,5	-2,894
1453,679	-4,5	-2,433
1455,821	-3,5	-2,234
1457,963	-2	-1,826
1460,105	-2	-1,654
1462,246	-1	-1,444
1464,388	-0,5	-1,282
1466,53	-0,5	-1,184
1468,666	-0,5	-1,141
1470,814	-0,5	-0,998
1472,956	0	-0,9
1475,092	0	-0,794
1477,234	0	-0,589
1479,381	0,5	-0,37
1481,523	0,5	-0,248
1483,665	1	-0,115
1485,807	1,5	-0,077
1487,949	1,5	-0,049
1490,091	1,5	-0,018
1492,245	1,5	-0,01
1494,381	2	-0,007
1496,522	1,5	-0,002
1498,67	1,5	-0,001
1500,812	2	-0,016
1502,96	1,5	-0,258
1505,108	1	-0,501
1507,244	0	-0,67
1509,38	0	-0,887
1511,516	-0,5	-1,094
1513,651	-1	-1,301
1515,799	-1	-1,445
1517,935	-1,5	-1,626
1520,071	-1,5	-1,826
1522,213	-2,5	-1,978
1524,355	-3	-2,21
1526,497	-3,5	-2,393
1528,639	-3,5	-2,485
1530,775	-4	-2,554
1532,916	-4,5	-2,77
1535,064	-5	-2,93
1537,206	-6	-3,091
1539,354	-7	-3,315
1541,502	-7,5	-3,374
1543,638	-8	-3,412
1545,774	-8,5	-3,439
1547,915	-9	-3,466
1550,063	-9	-3,484
1552,205	-9,5	-3,494
1554,347	-9,5	-3,497
1556,495	-9,5	-3,498
1558,643	-9	-3,5
1560,779	-9	-3,384
1562,921	-9	-3,206
1565,063	-8	-2,994
1567,204	-6	-2,688
1569,346	-4,5	-2,409
1571,494	-3,5	-2,21
1573,636	-2,5	-1,948
1575,778	-1,5	-1,62
1577,92	-1	-1,426
1580,062	-0,5	-1,159
1582,198	-0,5	-0,978
1584,339	0	-0,79
1586,481	0	-0,431
1588,623	0,5	-0,221
1590,759	1	-0,113
1592,901	1,5	-0,066
1595,043	1,5	-0,032
1597,179	2	-0,018
1599,321	1,5	-0,011
1601,462	1,5	-0,006
1603,604	1,5	-0,004
1605,746	2	-0,002
1607,888	1,5	-0,001
1610,03	1,5	-0,196
1612,172	1,5	-0,42
1614,314	0	-0,656
1616,462	-0,5	-0,934
1618,603	-0,5	-1,112
1620,739	-1	-1,25
1622,887	-1	-1,389
1625,041	-1,5	-1,595
1627,183	-1,5	-1,666
1629,319	-1,5	-1,778
1631,461	-2	-1,92
1633,603	-2	-2,08
1635,75	-3	-2,251
1637,886	-3,5	-2,432
1640,028	-3,5	-2,52
1642,164	-3,5	-2,592
1644,3	-5	-2,917
1646,442	-5	-3,004
1648,584	-5,5	-3,06
1650,726	-5,5	-3,09
1652,861	-6	-3,21
1655,003	-6,5	-3,32
1657,145	-8	-3,388
1659,287	-8,5	-3,443
1661,435	-9	-3,478
1663,577	-9	-3,486
1665,719	-9	-3,494
1667,861	-9,5	-3,495
1670,002	-9,5	-3,497
1672,144	-9,5	-3,498
1674,286	-9,5	-3,499
1676,422	-9,5	-3,499
1678,564	-9,5	-3,499
1680,7	-9	-3,5
1682,842	-9,5	-3,5
1684,984	-9	-3,352
1687,126	-7,5	-2,962
1689,267	-6,5	-2,849
1691,409	-6	-2,66
1693,551	-5	-2,588
1695,699	-5	-2,449
1697,841	-4,5	-2,313
1699,977	-4	-2,244
1702,119	-3,5	-2,225
1704,255	-3	-2,109
1706,396	-2,5	-1,974
1708,532	-3	-1,938
1710,674	-2,5	-1,945
1712,81	-2,5	-1,861
1714,952	-2,5	-1,826
1717,094	-2,5	-1,803
1719,236	-1	-1,406
1721,378	-1	-1,329
1723,513	-0,5	-1,192
1725,661	0	-1,101
1727,803	-0,5	-1,019
1729,945	0	-0,792
1732,081	0	-0,771
1734,229	0	-0,644
1736,365	0	-0,618
1738,507	0,5	-0,302
1740,642	0,5	-0,263
1742,79	1	-0,178
1744,932	1,5	-0,117
1747,074	1,5	-0,083
1749,21	1,5	-0,065
1751,352	1,5	-0,057
1753,494	1,5	-0,047
1755,636	1,5	-0,034
1757,778	1,5	-0,025
1759,919	1,5	-0,016
1762,055	1,5	-0,014
1764,191	2	-0,012
1766,333	1,5	-0,01
1768,481	1,5	-0,002
1770,623	1,5	-0,002
1772,765	1,5	-0,002
1774,913	1,5	-0,001
1777,054	1,5	-0,001
1779,196	2	0
1781,332	2	-0,054
1783,48	1,5	-0,19
1785,616	1,5	-0,363
1787,758	0,5	-0,434
1789,894	1	-0,492
1792,042	0	-0,648
1794,177	-0,5	-0,806
1796,313	0	-0,88
1798,449	-0,5	-1,018
1800,591	-1	-1,169
1802,739	-1	-1,351
1804,881	-1,5	-1,471
1807,023	-1,5	-1,707
1809,171	-1,5	-1,904
1811,312	-2	-2,013
1813,454	-2,5	-2,191
1815,59	-2,5	-2,249
1817,732	-3,5	-2,646
1819,874	-5	-2,951
1822,016	-6,5	-3,288
1824,158	-7,5	-3,368
1826,306	-7,5	-3,433
1828,447	-8	-3,44
1830,589	-8	-3,442
1832,725	-8	-3,449
1834,867	-8	-3,447
1837,015	-8,5	-3,458
1839,163	-9	-3,484
1841,305	-9	-3,483
1843,447	-9	-3,482
1845,582	-9	-3,475
1847,724	-9	-3,484
1849,866	-9	-3,488
1852,014	-9	-3,49
1854,156	-9	-3,49
1856,298	-9	-3,492
1858,44	-9	-3,494
1860,582	-9	-3,495
1862,724	-9	-3,496
1864,865	-9	-3,496
1867,013	-9	-3,497
1869,155	-9,5	-3,498
1871,303	-9,5	-3,498
1873,445	-9	-3,498
1875,587	-9	-3,498
1877,723	-9	-3,499
1879,865	-9	-3,499
1882,006	-9	-3,5
1884,148	-9	-3,5
1886,29	-9	-3,5
1888,432	-9,5	-3,5
1890,568	-9,5	-3,5
1892,71	-9,5	-3,5
1894,846	-9	-3,5
1896,988	-9	-3,5
1899,129	-9,5	-3,5
1901,271	-9	-3,5
1903,419	-9	-3,5
1905,561	-9	-3,497
1907,703	-9	-3,479
1909,845	-9	-3,32
1911,987	-9	-3,222
1914,129	-8,5	-3,16
1916,27	-8,5	-3,109
1918,412	-7,5	-2,994
1920,554	-7	-2,858
1922,708	-6	-2,71
1924,85	-5,5	-2,719
1926,992	-6	-2,726
1929,128	-5,5	-2,664
1931,27	-4,5	-2,528
1933,411	-4,5	-2,429
1935,559	-3,5	-2,21
1937,701	-3,5	-2,139
1939,843	-3	-2,061
1941,985	-3	-2,022
1944,127	-2,5	-1,977
1946,269	-1,5	-1,841
1948,405	-2	-1,815
1950,552	-1,5	-1,714
1952,694	-1	-1,514
1954,836	-1	-1,533
1956,978	-1	-1,424
1959,126	-0,5	-1,343
1961,262	-1	-1,403
1963,404	-0,5	-1,24
1965,54	-1	-1,336
1967,688	-0,5	-1,204
1969,823	-0,5	-1,199
1971,965	0	-1,064
1974,107	0	-1,014
1976,261	0	-0,864
1978,403	0	-0,49
1980,545	0	-0,45
1982,687	0,5	-0,372
1984,823	0	-0,353
1986,97	0,5	-0,206
1989,106	1,5	-0,081
1991,248	1,5	-0,066
1993,384	1,5	-0,062
1995,532	1,5	-0,042
1997,674	1,5	-0,032
1999,81	2	-0,012
2001,952	1,5	-0,008
2004,105	2	-0,006
2006,241	2	-0,005
2008,383	2	-0,002
2010,525	2	-0,002
2012,661	1,5	-0,002
2014,797	1,5	-0,002
2016,939	1,5	-0,002
2019,087	1,5	-0,002
2021,222	1,5	-0,002
2023,37	1,5	-0,003
2025,512	1,5	-0,002
2027,654	2	-0,002
2029,79	1,5	-0,001
2031,944	1,5	0
2034,08	1,5	-0,019
2036,222	1,5	-0,084
2038,363	1,5	-0,175
2040,505	1,5	-0,255
2042,647	1	-0,418
2044,789	1	-0,469
2046,931	0	-0,658
2049,067	0	-0,716
2051,215	0	-0,829
2053,351	0	-0,817
2055,486	-0,5	-0,946
2057,628	-0,5	-1,06
2059,776	-0,5	-0,991
2061,918	-0,5	-1,004
2064,06	-0,5	-0,948
2066,208	-0,5	-0,949
2068,344	-0,5	-1,086
2070,486	-0,5	-1,106
2072,628	-0,5	-1,166
2074,769	-0,5	-1,192
2076,911	-1	-1,236
2079,053	-1	-1,286
2081,195	-1	-1,294
2083,337	-1	-1,222
2085,479	-0,5	-1,077
2087,615	-0,5	-1,07
2089,757	-0,5	-1,003
2091,892	-0,5	-0,971
2094,034	0	-0,873
2096,17	0	-0,722
2098,318	0	-0,808
2100,454	0	-0,776
2102,602	0	-0,745
2104,738	0	-0,67
2106,88	0,5	-0,565
2109,027	0,5	-0,566
2111,163	1	-0,486
2113,305	0,5	-0,574
2115,447	0,5	-0,635
2117,589	1,5	-0,488
2119,731	1,5	-0,4
2121,873	1	-0,54
2124,015	0	-0,773
2126,15	0	-0,958
2128,286	-0,5	-1,138
2130,428	-0,5	-1,018
2132,57	-0,5	-1,006
2134,706	-0,5	-0,989
2136,848	0	-0,973
2138,99	0	-0,819
2141,132	0	-0,768
2143,273	-0,5	-0,898
2145,409	0	-0,77
2147,551	0	-0,703
2149,687	0,5	-0,57
2151,829	0,5	-0,535
2153,971	0,5	-0,591
2156,107	0	-0,691
2158,255	0	-0,639
2160,39	0	-0,846
2162,532	-0,5	-1,061
2164,674	-0,5	-0,979
2166,822	-0,5	-0,92
2168,958	0	-0,723
2171,094	0,5	-0,6
2173,236	0,5	-0,502
2175,378	1,5	-0,392
2177,525	1,5	-0,263
2179,661	1,5	-0,048
2181,803	2	0
2183,945	1,5	0
2186,081	2	-0,001
2188,223	1,5	-0,001
2190,359	1,5	-0,002
2192,495	1,5	-0,003
2194,643	1,5	-0,004
2196,778	2	-0,006
2198,926	2	-0,006
2201,068	2	-0,006
2203,204	2	-0,007
2205,346	2	-0,006
2207,488	1,5	-0,009
2209,624	1,5	-0,019
2211,766	1,5	-0,022
2213,907	1,5	-0,03
2216,043	2	-0,02
2218,191	2	-0,018
2220,327	1,5	-0,022
2222,469	2	-0,025
2224,617	1,5	-0,018
2226,753	2	-0,02
2228,901	1,5	-0,027
2231,036	1,5	-0,05
2233,178	1,5	-0,07
2235,32	1,5	-0,077
2237,462	1,5	-0,08
2239,604	1,5	-0,111
2241,74	1,5	-0,102
2243,882	1	-0,131
2246,024	1	-0,215
2248,159	0,5	-0,346
2250,301	0	-0,46
2252,443	0	-0,543
2254,585	0	-0,662
2256,721	0	-0,747
2258,863	0	-0,744
2261,005	0	-0,823
2263,147	0	-0,83
2265,288	0	-0,625
2267,43	0,5	-0,409
2269,572	0,5	-0,317
2271,714	0,5	-0,368
2273,85	0,5	-0,427
2275,986	0,5	-0,454
2278,128	1	-0,239
2280,27	1	-0,271
2282,406	0,5	-0,38
2284,541	0	-0,386
2286,683	1	-0,21
2288,819	0,5	-0,244
2290,967	1,5	-0,124
2293,109	1	-0,189
2295,257	1	-0,192
2297,399	1	-0,221
2299,541	1,5	-0,105
2301,682	1,5	-0,067
2303,818	1,5	-0,105
2305,954	1	-0,126
2308,09	1	-0,28
2310,226	0,5	-0,328
2312,368	0,5	-0,289
2314,504	0,5	-0,364
2316,646	0,5	-0,382
2318,793	0,5	-0,408
2320,935	0	-0,56
2323,083	0	-0,628
2325,225	0	-0,759
2327,367	0	-0,844
2329,503	0	-0,915
2331,645	0	-0,625
2333,781	0	-0,717
2335,928	0	-0,728
2338,07	0	-0,734
2340,212	0	-0,7
2342,354	0	-0,788
2344,502	0	-0,798
2346,644	0	-0,774
2348,786	0	-0,868
2350,922	0	-0,937
2353,063	0	-0,93
2355,205	0	-0,916
2357,347	0	-0,854
2359,483	0	-0,898
2361,625	0	-0,949
2363,767	0	-0,943
2365,909	0	-1,081
2368,045	-0,5	-1,268
2370,186	-0,5	-1,191
2372,322	-0,5	-1,362
2374,464	-0,5	-1,396
2376,606	-1	-1,527
2378,754	-1	-1,638
2380,89	-1,5	-1,739
2383,026	-1	-1,484
2385,168	-0,5	-1,428
2387,31	-1	-1,549
2389,451	-1,5	-1,658
2391,593	-2	-1,798
2393,735	-1,5	-1,69
2395,877	-1	-1,682
2398,025	-1,5	-1,723
2400,173	-1,5	-1,627
2402,321	-1,5	-1,786
2404,463	-1,5	-1,83
2406,598	-2	-1,975
2408,734	-2,5	-2,039
2410,882	-2	-2,039
2413,024	-3	-2,212
2415,166	-4	-2,427
2417,308	-3,5	-2,286
2419,45	-4,5	-2,485
2421,592	-4,5	-2,552
2423,727	-4	-2,446
2425,863	-5	-2,644
2428,011	-5	-2,686
2430,153	-5	-2,56
2432,295	-3	-2,287
2434,443	-3	-2,218
2436,585	-3,5	-2,363
2438,727	-2,5	-2,142
2440,868	-3	-2,172
2443,004	-4	-2,444
2445,152	-5	-2,637
2447,288	-6	-2,788
2449,424	-6	-2,834
2451,566	-6,5	-2,81
2453,702	-7	-2,964
2455,844	-5	-2,679
2457,985	-4	-2,458
2460,127	-4,5	-2,525
2462,269	-5	-2,613
2464,405	-4,5	-2,582
2466,541	-5	-2,71
2468,677	-5,5	-2,839
2470,819	-6	-2,932
2472,961	-7,5	-3,122
2475,109	-8	-3,234
2477,25	-8	-3,488
2479,398	-8,5	-3,5
2481,54	-8	-3,5
2483,676	-8	-3,499
2485,812	-8	-3,499
2487,954	-8,5	-3,498
2490,09	-8	-3,496
2492,226	-8	-3,495
2494,373	-8	-3,492
2496,515	-8	-3,489
2498,651	-8	-3,478
2500,793	-7,5	-3,459
2502,935	-7	-3,437
2505,077	-7	-3,409
2507,219	-5,5	-3,322
2509,361	-5,5	-3,296
2511,502	-5	-3,095
2513,644	-4	-2,897
2515,78	-3,5	-2,736
2517,916	-2,5	-2,411
2520,058	-2,5	-2,296
2522,206	-2	-2,181
2524,348	-1,5	-2,024
2526,49	-1,5	-1,835
2528,631	-1	-1,64
2530,767	-1	-1,46
2532,909	-0,5	-1,291
2535,045	-0,5	-1,042
2537,187	0	-0,846
2539,329	0	-0,61
2541,471	0,5	-0,586
2543,607	1	-0,405
2545,748	1,5	-0,256
2547,884	1,5	0
2550,026	2	-0,001
2552,168	2	-0,002
2554,31	2	-0,003
2556,452	2	-0,006
2558,6	1,5	-0,012
2560,736	1,5	-0,014
2562,871	1,5	-0,028
2565,013	1,5	-0,019
2567,167	1,5	-0,024
2569,309	1,5	-0,06
2571,457	1	-0,13
2573,593	1	-0,086
2575,735	0,5	-0,168
2577,877	1	-0,148
2580,019	0,5	-0,198
2582,166	0,5	-0,355
2584,302	0	-0,503
2586,438	0	-0,67
2588,58	0	-0,508
2590,722	0	-0,664
2592,864	0	-0,524
2595,006	0	-0,622
2597,142	0	-0,766
2599,283	0	-0,853
2601,419	0	-0,992
2603,555	0	-1,015
2605,691	0	-1,139
2607,833	0	-0,97
2609,969	0	-1,152
2612,105	-0,5	-1,238
2614,241	-1	-1,388
2616,382	-1	-1,588
2618,53	-1	-1,698
2620,666	-1	-1,587
2622,802	-1,5	-1,747
2624,944	-1,5	-1,893
2627,08	-2	-1,984
2629,216	-1	-1,762
2631,352	-1	-1,624
2633,487	-0,5	-1,64
2635,623	-0,5	-1,478
2637,771	0	-1,283
2639,913	0	-1,282
2642,055	0	-1,098
2644,191	0	-1,244
2646,327	-0,5	-1,376
2648,463	-0,5	-1,452
2650,604	-0,5	-1,54
2652,746	-0,5	-1,515
2654,888	0	-1,332
2657,03	0	-0,994
2659,172	0	-0,79
2661,308	0	-0,871
2663,444	0	-1,01
2665,58	0	-1,069
2667,722	0	-0,864
2669,863	0	-1,048
2671,999	0	-1,14
2674,141	0	-1,194
2676,283	-0,5	-1,293
2678,425	-0,5	-1,306
2680,567	0	-1,319
2682,703	-0,5	-1,518
2684,845	-0,5	-1,318
2686,986	-0,5	-1,464
2689,128	-0,5	-1,419
2691,264	-1	-1,701
2693,406	-1,5	-1,9
2695,542	-1	-1,848
2697,678	-1	-1,683
2699,832	-1,5	-1,807
2701,968	-1,5	-1,946
2704,109	-2	-2,173
2706,251	-2	-2,009
2708,393	-2	-2,077
2710,541	-1,5	-1,942
2712,683	-1,5	-1,8
2714,831	-1	-1,711
2716,973	-1	-1,618
2719,115	-1,5	-1,886
2721,256	-1,5	-1,873
2723,398	-1	-1,764
2725,534	-1	-1,638
2727,67	-0,5	-1,542
2729,812	-0,5	-1,348
2731,948	0	-1,19
2734,096	0	-1,049
2736,232	0	-0,924
2738,367	0	-0,727
2740,503	0	-0,622
2742,639	0,5	-0,4
2744,781	1	-0,201
2746,917	1,5	-0,131
2749,059	1,5	-0,068
2751,207	1,5	-0,031
2753,349	1,5	-0,016
2755,484	2	-0,008
2757,62	2	-0,005
2759,756	2	-0,003
2761,892	1,5	-0,002
2764,028	2	-0,002
2766,164	2	-0,001
2768,306	1,5	-0,06
2770,454	1,5	-0,27
2772,596	1,5	-0,434
2774,737	0	-0,613
2776,873	0	-0,811
2779,015	0	-0,94
2781,151	-0,5	-1,152
2783,299	-0,5	-1,367
2785,441	-1	-1,517
2787,583	-1	-1,647
2789,725	-1,5	-1,788
2791,86	-1,5	-1,973
2793,996	-1,5	-2,142
2796,132	-2,5	-2,357
2798,274	-3	-2,501
2800,41	-2,5	-2,532
2802,552	-4	-2,848
2804,694	-4,5	-3,017
2806,83	-5	-3,256
2808,965	-5,5	-3,325
2811,101	-6	-3,403
2813,237	-6,5	-3,442
2815,379	-7,5	-3,468
2817,515	-7,5	-3,466
2819,651	-7,5	-3,474
2821,793	-7,5	-3,483
2823,929	-7,5	-3,489
2826,064	-7,5	-3,493
2828,212	-7,5	-3,495
2830,354	-7,5	-3,497
2832,49	-7,5	-3,498
2834,638	-7,5	-3,499
2836,774	-7,5	-3,499
2838,916	-7,5	-3,451
2841,058	-7,5	-3,222
2843,199	-6,5	-3,084
2845,341	-6	-2,965
2847,477	-5,5	-2,892
2849,619	-5	-2,772
2851,755	-4	-2,617
2853,891	-3	-2,464
2856,039	-3	-2,262
2858,175	-2	-2,113
2860,316	-2	-2,064
2862,458	-1,5	-1,918
2864,6	-1	-1,733
2866,736	-1	-1,665
2868,878	-0,5	-1,487
2871,014	-0,5	-1,372
2873,156	-0,5	-1,257
2875,298	0	-1,116
2877,434	0	-0,947
2879,581	0	-0,776
2881,723	0	-0,593
2883,871	0,5	-0,416
2886,007	0,5	-0,259
2888,155	1	-0,151
2890,291	1	-0,114
2892,433	1,5	-0,06
2894,581	1,5	-0,035
2896,716	1,5	-0,022
2898,858	2	-0,014
2901	2	-0,01
2903,142	2	-0,006
2905,284	2	-0,004
2907,426	2	-0,002
2909,568	1,5	-0,001
2911,71	1,5	-0,001
2913,845	2	0
2915,987	1,5	-0,085
2918,129	1,5	-0,289
2920,271	1	-0,421
2922,407	0,5	-0,559
2924,549	0	-0,736
2926,691	0	-0,867
2928,833	0	-1,082
2930,98	-0,5	-1,322
2933,116	-0,5	-1,492
2935,258	-1	-1,627
2937,406	-1	-1,878
2939,542	-1	-1,956
2941,684	-1,5	-2,012
2943,82	-1,5	-2,252
2945,962	-2	-2,387
2948,097	-2	-2,541
2950,239	-2,5	-2,697
2952,375	-3	-2,771
2954,517	-3	-2,89
2956,659	-3	-2,989
2958,801	-4	-3,136
2960,943	-4,5	-3,23
2963,085	-5	-3,301
2965,22	-4,5	-3,332
2967,368	-5,5	-3,408
2969,504	-6	-3,431
2971,652	-6	-3,451
2973,794	-6	-3,465
2975,936	-6,5	-3,479
2978,084	-6,5	-3,489
2980,22	-6,5	-3,493
2982,356	-6,5	-3,495
2984,497	-6,5	-3,496
2986,639	-6,5	-3,498
2988,787	-6,5	-3,499
2990,929	-6,5	-3,499
2993,065	-6,5	-3,5
2995,201	-6,5	-3,5
2997,343	-6,5	-3,405
2999,485	-6,5	-3,206
3001,62	-6	-3,082
3003,756	-5	-2,908
3005,892	-4,5	-2,802
3008,034	-4,5	-2,698
3010,182	-3	-2,478
3012,318	-2,5	-2,299
3014,454	-2	-2,161
3016,59	-1,5	-2,023
3018,725	-1,5	-1,95
3020,861	-0,5	-1,755
3023,003	-0,5	-1,678
3025,145	-0,5	-1,563
3027,287	-0,5	-1,417
3029,423	0	-1,334
3031,577	0	-1,11
3033,719	0	-1,022
3035,86	0	-0,924
3038,002	0	-0,837
3040,138	0,5	-0,683
3042,28	0	-0,558
3044,422	0,5	-0,359
3046,564	0,5	-0,15
3048,7	1,5	-0,108
3050,842	1,5	-0,062
3052,983	1,5	-0,033
3055,119	1,5	-0,02
3057,267	1,5	-0,012
3059,403	1,5	-0,01
3061,539	1,5	-0,007
3063,687	1,5	-0,004
3065,823	2	-0,002
3067,959	1,5	-0,002
3070,107	1,5	-0,001
3072,242	1,5	-0,001
3074,384	2	-0,007
3076,52	2	-0,019
3078,656	2	-0,202
3080,792	1,5	-0,321
3082,934	1	-0,389
3085,07	1	-0,473
3087,212	0,5	-0,637
3089,347	0	-0,811
3091,489	0	-0,946
3093,631	-0,5	-1,103
3095,767	-0,5	-1,288
3097,909	-0,5	-1,451
3100,051	-0,5	-1,571
3102,187	-1	-1,676
3104,329	-1	-1,875
3106,476	-1,5	-2,088
3108,612	-1,5	-2,242
3110,754	-2	-2,432
3112,89	-2	-2,527
3115,032	-3	-2,746
3117,174	-3	-2,904
3119,31	-3,5	-3,137
3121,446	-4,5	-3,295
3123,581	-5	-3,41
3125,723	-6	-3,451
3127,865	-6	-3,468
3130,001	-5,5	-3,438
3132,143	-6	-3,464
3134,291	-6,5	-3,479
3136,427	-6,5	-3,487
3138,575	-6,5	-3,494
3140,711	-6,5	-3,496
3142,846	-6,5	-3,497
3144,988	-6	-3,498
3147,13	-6	-3,499
3149,272	-6	-3,5
3151,414	-6	-3,413
3153,556	-6	-3,344
3155,692	-5	-3,15
3157,827	-4,5	-2,942
3159,975	-3,5	-2,798
3162,111	-3	-2,59
3164,247	-3	-2,666
3166,389	-2,5	-2,551
3168,525	-2,5	-2,402
3170,661	-1,5	-2,271
3172,797	-1,5	-2,139
3174,938	-1	-1,988
3177,074	-1	-1,941
3177,8	2	0