File: ensaios_Ciclicos/_60perc/_2gap/entrada/_1.txt
Time (s)	Load (N)	Displacement (mm)
0	0	-0,026
2,187	0	-0,32
4,347	0	-0,328
6,507	0	-0,442
8,667	0	-0,476
10,827	0	-0,538
12,992	-0,5	-0,676
15,152	-1,5	-0,827
17,312	-1,5	-0,91
19,478	-1,5	-0,91
21,638	-1,5	-0,912
23,798	-1,5	-0,914
25,958	-2	-0,991
28,118	-2	-1,015
30,284	-2,5	-1,02
32,443	-2,5	-1,017
34,603	-2,5	-1,015
36,769	-3	-1,153
38,935	-3	-1,234
41,101	-3	-1,174
43,267	-3	-1,186
45,427	-3	-1,236
47,593	-3	-1,183
49,752	-3	-1,222
51,912	-3	-1,289
54,084	-3	-1,384
56,244	-4	-1,486
58,404	-4	-1,536
60,564	-4	-1,598
62,724	-4	-1,646
64,883	-4,5	-1,671
67,043	-4,5	-1,8
69,203	-5	-1,856
71,369	-5	-1,905
73,535	-5	-1,957
75,695	-5,5	-1,992
77,855	-5,5	-2,116
80,015	-5,5	-2,167
82,175	-6	-2,185
84,334	-6	-2,219
86,494	-5,5	-2,174
88,654	-6	-2,25
90,832	-6,5	-2,364
92,998	-7	-2,395
95,164	-6,5	-2,376
97,336	-6,5	-2,411
99,496	-7,5	-2,59
101,655	-7,5	-2,549
103,815	-7	-2,482
105,981	-7,5	-2,566
108,147	-8	-2,637
110,307	-7,5	-2,708
112,467	-8	-2,737
114,633	-8	-2,674
116,793	-8	-2,659
118,953	-8	-2,684
121,118	-8,5	-2,747
123,284	-8,5	-2,776
125,444	-8,5	-2,814
127,61	-8,5	-2,792
129,77	-8	-2,747
131,936	-8	-2,72
134,095	-8	-2,649
136,255	-7,5	-2,54
138,415	-7,5	-2,701
140,581	-9	-2,894
142,747	-9	-2,978
144,913	-9,5	-3,042
147,073	-9	-3,002
149,233	-9,5	-3,07
151,399	-10,5	-3,154
153,558	-10,5	-3,219
155,718	-10,5	-3,261
157,884	-11	-3,32
160,044	-11,5	-3,33
162,21	-11,5	-3,371
164,37	-12	-3,39
166,536	-12,5	-3,399
168,696	-12,5	-3,423
170,862	-13	-3,452
173,021	-13,5	-3,474
175,181	-13,5	-3,478
177,347	-13,5	-3,482
179,513	-13,5	-3,484
181,679	-13,5	-3,49
183,839	-13,5	-3,493
186,005	-13,5	-3,495
188,165	-13,5	-3,496
190,324	-13,5	-3,496
192,484	-13,5	-3,496
194,65	-13,5	-3,497
196,81	-13,5	-3,497
198,976	-13,5	-3,498
201,136	-13,5	-3,498
203,296	-13,5	-3,498
205,455	-13,5	-3,498
207,621	-13,5	-3,498
209,793	-13,5	-3,499
211,953	-13,5	-3,498
214,113	-13,5	-3,499
216,273	-13,5	-3,499
218,433	-13,5	-3,499
220,593	-13,5	-3,499
222,764	-13,5	-3,499
224,93	-13,5	-3,5
227,09	-13	-3,5
229,25	-13,5	-3,499
231,416	-13	-3,47
233,576	-13	-3,312
235,736	-13	-3,275
237,896	-12,5	-3,194
240,055	-12,5	-3,168
242,221	-12	-3,076
244,381	-12	-3,052
246,547	-12	-2,983
248,713	-10,5	-2,898
250,879	-10	-2,828
253,039	-10	-2,729
255,199	-9	-2,63
257,359	-9,5	-2,56
259,518	-8	-2,446
261,684	-7,5	-2,359
263,85	-7	-2,344
266,022	-7	-2,26
268,182	-6,5	-2,205
270,342	-6	-2,086
272,508	-5	-1,98
274,673	-5	-1,931
276,839	-5	-1,862
279,011	-4,5	-1,774
281,177	-4,5	-1,745
283,337	-4	-1,711
285,497	-4	-1,678
287,657	-3,5	-1,616
289,823	-3,5	-1,532
291,989	-3	-1,43
294,148	-2,5	-1,338
296,308	-2,5	-1,362
298,48	-2	-1,188
300,64	-2	-1,138
302,812	-2	-1,08
304,972	-1,5	-1,052
307,138	-1,5	-0,966
309,303	-1	-0,897
311,463	-1	-0,857
313,635	-1	-0,822
315,801	-1	-0,726
317,961	-0,5	-0,602
320,127	0	-0,452
322,287	0	-0,396
324,447	0	-0,351
326,607	0	-0,365
328,766	0	-0,374
330,926	0	-0,43
333,086	0	-0,464
335,246	0	-0,531
337,406	0	-0,449
339,572	0	-0,396
341,744	0	-0,248
343,91	0,5	-0,167
346,069	0,5	-0,161
348,229	0,5	-0,136
350,395	0,5	-0,101
352,555	0,5	-0,116
354,721	0,5	-0,085
356,881	1	-0,058
359,041	1	-0,055
361,201	1	-0,053
363,366	1	-0,04
365,532	1,5	-0,038
367,698	1,5	-0,027
369,87	1,5	-0,024
372,036	1,5	-0,016
374,196	1,5	-0,012
376,362	1,5	-0,009
378,522	1,5	-0,007
380,687	1,5	-0,005
382,847	1,5	-0,004
385,013	1,5	-0,003
387,179	1,5	-0,002
389,339	1,5	-0,002
391,511	1,5	-0,001
393,677	1,5	-0,001
395,837	1,5	-0,001
397,996	1,5	0
400,156	1,5	0
402,322	1	-0,03
404,488	1,5	-0,045
406,654	1,5	-0,148
408,814	1,5	-0,185
410,986	1,5	-0,267
413,146	1	-0,382
415,311	0,5	-0,537
417,483	0	-0,7
419,649	-0,5	-0,807
421,815	-0,5	-0,91
423,981	-1,5	-1,058
426,147	-1,5	-1,207
428,313	-2	-1,298
430,479	-2,5	-1,394
432,644	-2,5	-1,474
434,81	-2,5	-1,544
436,97	-2,5	-1,669
439,136	-3	-1,77
441,302	-3,5	-1,983
443,468	-4	-2,1
445,634	-4	-2,217
447,794	-4,5	-2,262
449,959	-5	-2,406
452,131	-5	-2,464
454,297	-6	-2,607
456,457	-6,5	-2,716
458,629	-6,5	-2,809
460,789	-7	-2,887
462,961	-8	-2,996
465,127	-8	-3,061
467,292	-8,5	-3,141
469,452	-8,5	-3,206
471,618	-9,5	-3,28
473,784	-10	-3,317
475,95	-10	-3,362
478,11	-10	-3,384
480,282	-11	-3,424
482,448	-11	-3,445
484,607	-11,5	-3,466
486,773	-12	-3,481
488,933	-12	-3,483
491,093	-12	-3,485
493,253	-12	-3,487
495,413	-12	-3,491
497,585	-12	-3,495
499,745	-12	-3,496
501,91	-12	-3,498
504,07	-12	-3,498
506,242	-12	-3,499
508,414	-12	-3,5
510,574	-12	-3,489
512,74	-12	-3,316
514,906	-11,5	-3,169
517,072	-10	-2,928
519,243	-9,5	-2,797
521,409	-9	-2,727
523,569	-7,5	-2,485
525,729	-7	-2,35
527,889	-6	-2,231
530,061	-5	-2,058
532,227	-4,5	-1,928
534,393	-3,5	-1,812
536,553	-3,5	-1,757
538,724	-3	-1,534
540,89	-2	-1,412
543,062	-2	-1,334
545,222	-1,5	-1,262
547,382	-1	-1,094
549,548	-1	-0,913
551,72	-0,5	-0,772
553,88	0	-0,621
556,039	0	-0,592
558,205	0	-0,427
560,365	0	-0,303
562,531	0,5	-0,226
564,691	0,5	-0,228
566,851	0,5	-0,23
569,011	0,5	-0,164
571,188	1	-0,11
573,354	1	-0,118
575,52	1	-0,115
577,686	1	-0,079
579,852	1,5	-0,072
582,018	1,5	-0,06
584,184	1,5	-0,046
586,344	1,5	-0,04
588,504	1,5	-0,036
590,669	1,5	-0,022
592,835	1,5	-0,021
594,995	1,5	-0,023
597,155	1,5	-0,02
599,327	1,5	-0,018
601,493	1,5	-0,015
603,659	1,5	-0,012
605,831	1,5	-0,009
607,99	2	-0,006
610,156	1,5	-0,004
612,322	1,5	-0,002
614,482	1,5	-0,002
616,642	1,5	-0,002
618,808	1,5	-0,001
620,968	1,5	-0,001
623,134	1,5	-0,001
625,299	1,5	-0,001
627,465	1,5	-0,001
629,631	1,5	0
631,791	1,5	-0,021
633,963	1,5	-0,064
636,135	1,5	-0,163
638,307	1	-0,251
640,479	1	-0,427
642,644	0,5	-0,502
644,804	0,5	-0,531
646,964	0	-0,667
649,13	0	-0,779
651,296	-0,5	-0,876
653,456	-0,5	-0,882
655,622	-1	-0,936
657,782	-1	-1,024
659,941	-1,5	-1,015
662,113	-1	-1,077
664,279	-1,5	-1,247
666,445	-1,5	-1,323
668,617	-2	-1,433
670,777	-2	-1,557
672,943	-2,5	-1,642
675,109	-2,5	-1,712
677,268	-3	-1,752
679,434	-2,5	-1,8
681,606	-3	-1,926
683,766	-3,5	-2,082
685,932	-4	-2,247
688,092	-4,5	-2,308
690,258	-4,5	-2,441
692,424	-5,5	-2,549
694,589	-5,5	-2,649
696,749	-6	-2,747
698,921	-6,5	-2,852
701,087	-7	-2,932
703,253	-7	-3,013
705,413	-7,5	-3,042
707,585	-8	-3,162
709,763	-9	-3,24
711,929	-9	-3,287
714,1	-10	-3,39
716,272	-10	-3,418
718,432	-10,5	-3,424
720,592	-10,5	-3,443
722,758	-10,5	-3,45
724,924	-10,5	-3,46
727,096	-11	-3,47
729,261	-11	-3,477
731,439	-11	-3,485
733,611	-11	-3,489
735,771	-11	-3,491
737,937	-11,5	-3,494
740,097	-11	-3,496
742,263	-11	-3,496
744,423	-11,5	-3,497
746,583	-11	-3,497
748,742	-11	-3,497
750,908	-11,5	-3,498
753,068	-11	-3,498
755,228	-11	-3,498
757,388	-11	-3,498
759,566	-11	-3,499
761,732	-11	-3,499
763,904	-11,5	-3,5
766,069	-11	-3,461
768,235	-11	-3,426
770,401	-11	-3,262
772,561	-10,5	-3,188
774,727	-10,5	-3,09
776,887	-10,5	-3,061
779,047	-10	-3,044
781,213	-10	-2,995
783,372	-9,5	-2,955
785,544	-9	-2,872
787,71	-8,5	-2,775
789,87	-7,5	-2,672
792,036	-7	-2,597
794,22	-6	-2,417
796,392	-5,5	-2,273
798,564	-4,5	-2,17
800,735	-4	-2,018
802,901	-3,5	-1,878
805,073	-2,5	-1,742
807,245	-2,5	-1,616
809,417	-2	-1,464
811,589	-2	-1,39
813,761	-1,5	-1,296
815,927	-1,5	-1,206
818,098	-1	-1,048
820,264	-1	-1,053
822,43	-0,5	-0,898
824,59	-1	-0,917
826,75	-0,5	-0,867
828,922	-0,5	-0,757
831,088	0	-0,687
833,26	0	-0,582
835,425	0	-0,47
837,585	0	-0,442
839,751	0	-0,42
841,923	0	-0,358
844,089	0	-0,28
846,261	0,5	-0,178
848,427	0,5	-0,111
850,599	1	-0,066
852,758	1,5	-0,053
854,942	1,5	-0,031
857,108	1,5	-0,019
859,268	1,5	-0,019
861,434	1,5	-0,013
863,612	1,5	-0,01
865,778	1,5	-0,008
867,938	1,5	-0,007
870,103	1,5	-0,005
872,275	1,5	-0,004
874,441	1,5	-0,003
876,613	1,5	-0,002
878,785	1,5	-0,001
880,957	1,5	-0,001
883,123	1,5	-0,001
885,295	1,5	-0,001
887,46	1,5	0
889,632	1,5	0
891,798	1,5	-0,03
893,958	1,5	-0,153
896,118	1,5	-0,241
898,284	1,5	-0,36
900,456	1,5	-0,476
902,634	0,5	-0,595
904,799	0	-0,649
906,965	0	-0,697
909,131	0	-0,783
911,297	-0,5	-0,932
913,457	-0,5	-0,987
915,635	-1	-1,212
917,807	-1,5	-1,327
919,973	-2	-1,514
922,144	-2	-1,672
924,31	-2,5	-1,736
926,488	-3	-1,958
928,66	-3	-2,077
930,826	-3	-2,126
932,998	-3	-2,231
935,164	-3,5	-2,337
937,33	-4,5	-2,444
939,489	-4,5	-2,51
941,655	-4,5	-2,473
943,821	-4,5	-2,537
945,981	-4,5	-2,592
948,153	-5,5	-2,782
950,325	-6	-2,893
952,491	-7	-2,994
954,663	-7,5	-3,099
956,828	-8,5	-3,26
958,988	-8	-3,262
961,154	-8,5	-3,323
963,326	-9	-3,348
965,498	-9	-3,386
967,664	-10	-3,428
969,824	-10,5	-3,443
971,996	-10,5	-3,454
974,167	-10,5	-3,478
976,333	-10,5	-3,481
978,499	-10,5	-3,487
980,659	-10,5	-3,489
982,825	-10,5	-3,49
984,997	-10,5	-3,496
987,157	-10,5	-3,496
989,329	-11	-3,497
991,489	-10,5	-3,498
993,648	-10,5	-3,498
995,82	-10,5	-3,499
997,986	-10,5	-3,499
1000,152	-10,5	-3,5
1002,318	-10,5	-3,499
1004,478	-10,5	-3,499
1006,644	-10,5	-3,5
1008,81	-10,5	-3,5
1010,981	-10,5	-3,457
1013,153	-10,5	-3,346
1015,325	-10,5	-3,277
1017,491	-10,5	-3,189
1019,663	-9,5	-3,109
1021,829	-10	-3,088
1024,001	-9	-2,956
1026,161	-9	-2,938
1028,32	-8,5	-2,883
1030,486	-8	-2,806
1032,646	-7,5	-2,73
1034,83	-6,5	-2,513
1036,99	-6	-2,399
1039,162	-5	-2,24
1041,328	-4	-2,09
1043,494	-3,5	-1,919
1045,659	-3	-1,846
1047,825	-3	-1,739
1049,997	-2	-1,603
1052,163	-1,5	-1,421
1054,329	-1,5	-1,298
1056,489	-1	-1,201
1058,649	-1	-1,065
1060,815	-0,5	-0,905
1062,986	0	-0,7
1065,146	0	-0,613
1067,318	0	-0,412
1069,484	0	-0,294
1071,656	0,5	-0,198
1073,828	1	-0,11
1075,988	1	-0,081
1078,16	1,5	-0,054
1080,331	1,5	-0,035
1082,509	1,5	-0,023
1084,669	1,5	-0,016
1086,835	1,5	-0,012
1089,001	1,5	-0,007
1091,179	1,5	-0,004
1093,345	2	-0,004
1095,505	1,5	-0,003
1097,682	1,5	-0,002
1099,842	1,5	-0,002
1102,008	1,5	-0,001
1104,168	1,5	-0,001
1106,334	1,5	0
1108,494	1,5	0
1110,654	1,5	0
1112,826	1,5	-0,075
1115,003	1,5	-0,248
1117,175	1,5	-0,349
1119,341	1	-0,488
1121,513	0	-0,604
1123,673	0	-0,67
1125,839	0	-0,762
1128,011	-0,5	-0,87
1130,177	-1	-1,004
1132,342	-1	-1,1
1134,508	-1,5	-1,212
1136,674	-1,5	-1,314
1138,84	-1,5	-1,447
1141,006	-2	-1,64
1143,172	-2	-1,698
1145,338	-2,5	-1,804
1147,51	-2,5	-1,99
1149,675	-3	-2,107
1151,841	-3	-2,176
1154,013	-4	-2,312
1156,173	-3,5	-2,299
1158,339	-4,5	-2,422
1160,499	-4,5	-2,504
1162,671	-5	-2,656
1164,837	-5,5	-2,7
1166,996	-5,5	-2,796
1169,162	-5,5	-2,883
1171,328	-6	-2,962
1173,506	-6,5	-3,097
1175,666	-7	-3,158
1177,838	-8	-3,278
1180,004	-8,5	-3,349
1182,176	-9	-3,398
1184,341	-9,5	-3,412
1186,507	-9,5	-3,431
1188,667	-10	-3,456
1190,839	-10	-3,462
1192,999	-10,5	-3,472
1195,165	-10,5	-3,482
1197,325	-10,5	-3,484
1199,491	-10,5	-3,487
1201,656	-10,5	-3,493
1203,822	-10,5	-3,495
1205,982	-10,5	-3,496
1208,148	-10,5	-3,496
1210,308	-10,5	-3,497
1212,48	-10,5	-3,498
1214,652	-10,5	-3,498
1216,824	-10,5	-3,498
1218,99	-10,5	-3,499
1221,155	-10,5	-3,499
1223,327	-10,5	-3,499
1225,493	-10,5	-3,499
1227,659	-10,5	-3,499
1229,831	-10,5	-3,5
1231,997	-10,5	-3,439
1234,169	-10,5	-3,31
1236,335	-10,5	-3,243
1238,512	-10	-3,118
1240,678	-9	-2,984
1242,844	-9	-2,935
1245,016	-9	-2,852
1247,188	-7	-2,731
1249,36	-7	-2,621
1251,526	-6	-2,589
1253,698	-6	-2,526
1255,869	-5	-2,427
1258,035	-4,5	-2,262
1260,201	-4	-2,075
1262,367	-3,5	-2,023
1264,533	-3	-1,914
1266,705	-2,5	-1,8
1268,865	-2,5	-1,792
1271,025	-2,5	-1,778
1273,19	-2,5	-1,668
1275,362	-2	-1,551
1277,528	-1,5	-1,461
1279,694	-1,5	-1,374
1281,854	-1,5	-1,33
1284,026	-1	-1,183
1286,186	-1	-1,112
1288,352	-1	-1,016
1290,517	-0,5	-0,878
1292,683	-0,5	-0,844
1294,843	0	-0,822
1297,015	-0,5	-0,722
1299,181	0	-0,728
1301,353	0	-0,649
1303,519	0	-0,627
1305,691	0	-0,554
1307,862	0	-0,412
1310,028	0	-0,332
1312,2	0,5	-0,277
1314,366	0	-0,29
1316,532	0,5	-0,222
1318,698	0	-0,198
1320,864	0,5	-0,151
1323,03	1	-0,118
1325,201	1,5	-0,082
1327,361	1,5	-0,073
1329,527	1,5	-0,058
1331,693	1,5	-0,049
1333,865	1,5	-0,033
1336,031	1,5	-0,019
1338,203	1,5	-0,013
1340,375	1,5	-0,009
1342,54	1,5	-0,008
1344,7	1,5	-0,007
1346,866	1,5	-0,005
1349,038	1,5	-0,005
1351,204	1,5	-0,005
1353,376	1,5	-0,004
1355,542	1,5	-0,004
1357,714	1,5	-0,003
1359,879	2	-0,002
1362,051	2	-0,002
1364,217	2	-0,001
1366,395	1,5	-0,001
1368,555	1,5	-0,001
1370,721	1,5	0
1372,887	1,5	-0,046
1375,053	1,5	-0,108
1377,213	1,5	-0,118
1379,372	1,5	-0,22
1381,544	1,5	-0,343
1383,71	1	-0,386
1385,876	0,5	-0,557
1388,042	0,5	-0,6
1390,214	0	-0,752
1392,38	-0,5	-0,821
1394,552	-1	-0,959
1396,717	-1	-1,108
1398,889	-1	-1,202
1401,049	-1,5	-1,236
1403,215	-1,5	-1,327
1405,381	-1,5	-1,448
1407,547	-1,5	-1,476
1409,707	-1,5	-1,542
1411,872	-1,5	-1,601
1414,038	-2	-1,687
1416,198	-2,5	-1,748
1418,37	-2,5	-1,853
1420,536	-2,5	-1,911
1422,708	-3	-2,037
1424,874	-3	-2,14
1427,046	-3	-2,249
1429,212	-3	-2,302
1431,383	-4	-2,412
1433,549	-4	-2,477
1435,715	-4,5	-2,552
1437,875	-4,5	-2,612
1440,041	-5	-2,693
1442,213	-5,5	-2,802
1444,373	-5,5	-2,853
1446,539	-6	-2,944
1448,704	-5,5	-2,954
1450,87	-6	-3,051
1453,03	-6,5	-3,08
1455,202	-7	-3,179
1457,374	-8	-3,285
1459,54	-8,5	-3,356
1461,706	-8,5	-3,38
1463,878	-9,5	-3,419
1466,043	-9,5	-3,438
1468,209	-10	-3,461
1470,381	-10	-3,473
1472,541	-10	-3,481
1474,707	-10,5	-3,486
1476,873	-10,5	-3,49
1479,033	-10	-3,491
1481,205	-10	-3,494
1483,376	-10	-3,496
1485,542	-10,5	-3,497
1487,708	-10	-3,498
1489,874	-10	-3,498
1492,034	-10	-3,498
1494,2	-10	-3,499
1496,372	-10	-3,499
1498,538	-10	-3,5
1500,703	-10	-3,489
1502,869	-10	-3,246
1505,029	-9	-3,06
1507,195	-8,5	-2,931
1509,361	-7	-2,713
1511,521	-6,5	-2,652
1513,687	-6,5	-2,556
1515,853	-5,5	-2,424
1518,018	-5	-2,337
1520,184	-5	-2,252
1522,35	-5	-2,145
1524,516	-3,5	-2,011
1526,676	-3	-1,951
1528,842	-3	-1,796
1531,008	-2,5	-1,715
1533,174	-2	-1,545
1535,333	-1,5	-1,437
1537,505	-1	-1,22
1539,671	-1	-1,125
1541,837	-0,5	-1,023
1544,003	-0,5	-0,905
1546,169	0	-0,834
1548,329	0	-0,696
1550,495	0	-0,61
1552,66	0	-0,508
1554,832	0,5	-0,264
1557,004	0,5	-0,184
1559,17	1	-0,146
1561,336	1	-0,124
1563,502	1	-0,093
1565,662	1	-0,077
1567,828	1,5	-0,043
1569,999	1,5	-0,029
1572,165	1,5	-0,018
1574,337	1,5	-0,012
1576,503	1,5	-0,007
1578,663	1,5	-0,006
1580,829	1,5	-0,004
1582,995	1,5	-0,004
1585,167	1,5	-0,003
1587,332	1,5	-0,002
1589,498	1,5	-0,002
1591,664	1,5	-0,001
1593,83	1,5	-0,001
1595,99	1,5	-0,001
1598,156	1,5	0
1600,316	1,5	-0,031
1602,488	1,5	-0,164
1604,659	1,5	-0,298
1606,831	1	-0,504
1608,997	0	-0,621
1611,169	0	-0,742
1613,329	0	-0,85
1615,495	-0,5	-1,047
1617,661	-1	-1,191
1619,827	-1,5	-1,31
1621,999	-1,5	-1,414
1624,164	-2	-1,504
1626,33	-1,5	-1,644
1628,49	-2	-1,715
1630,662	-2,5	-1,926
1632,822	-3	-1,987
1634,988	-3	-2,072
1637,154	-3,5	-2,195
1639,326	-3,5	-2,331
1641,491	-4	-2,464
1643,657	-4,5	-2,626
1645,829	-5,5	-2,857
1647,989	-6	-2,944
1650,155	-6	-3,046
1652,327	-7,5	-3,258
1654,493	-8	-3,324
1656,658	-9	-3,385
1658,824	-9,5	-3,432
1660,99	-9,5	-3,461
1663,156	-10	-3,476
1665,322	-10	-3,48
1667,482	-10	-3,482
1669,642	-10	-3,486
1671,802	-10	-3,491
1673,98	-10	-3,495
1676,145	-10	-3,497
1678,311	-10	-3,498
1680,477	-10	-3,498
1682,643	-10	-3,498
1684,809	-10	-3,499
1686,969	-10	-3,499
1689,135	-10	-3,499
1691,301	-10	-3,5
1693,466	-10	-3,382
1695,638	-9,5	-3,18
1697,81	-9	-3,032
1699,97	-8	-2,913
1702,136	-6,5	-2,709
1704,302	-6	-2,57
1706,468	-5,5	-2,427
1708,64	-5	-2,301
1710,805	-4	-2,142
1712,971	-3,5	-2,066
1715,137	-3	-1,997
1717,309	-3	-1,908
1719,475	-2,5	-1,823
1721,647	-2,5	-1,691
1723,813	-2	-1,536
1725,985	-1,5	-1,438
1728,15	-1	-1,256
1730,322	-1	-1,209
1732,488	-1	-1,145
1734,648	-0,5	-1,101
1736,814	-0,5	-0,984
1738,986	0	-0,825
1741,146	0	-0,753
1743,312	0	-0,652
1745,483	0	-0,468
1747,649	0	-0,356
1749,815	0,5	-0,204
1751,975	1	-0,164
1754,153	1,5	-0,084
1756,319	1,5	-0,044
1758,479	1,5	-0,036
1760,651	1,5	-0,023
1762,822	1,5	-0,015
1764,988	1,5	-0,009
1767,154	1,5	-0,008
1769,314	1,5	-0,007
1771,474	1,5	-0,006
1773,64	1,5	-0,004
1775,806	1,5	-0,003
1777,972	1,5	-0,003
1780,137	1,5	-0,002
1782,303	1,5	-0,001
1784,469	1,5	-0,001
1786,629	1,5	0
1788,795	1,5	-0,018
1790,967	1,5	-0,223
1793,133	1	-0,327
1795,305	1	-0,438
1797,47	0	-0,582
1799,642	0	-0,735
1801,808	-0,5	-0,88
1803,974	-1	-1,049
1806,134	-1	-1,232
1808,306	-1	-1,412
1810,466	-1,5	-1,532
1812,632	-2	-1,739
1814,809	-2,5	-1,895
1816,975	-2,5	-2,039
1819,147	-2,5	-2,17
1821,307	-3	-2,247
1823,479	-3,5	-2,426
1825,646	-4	-2,564
1827,811	-4,5	-2,592
1829,983	-4,5	-2,707
1832,149	-5,5	-2,904
1834,314	-6	-3,069
1836,474	-6,5	-3,178
1838,646	-7	-3,285
1840,806	-7	-3,283
1842,978	-8	-3,36
1845,144	-8	-3,389
1847,31	-9	-3,416
1849,475	-9	-3,446
1851,641	-9,5	-3,471
1853,813	-10	-3,478
1855,979	-10	-3,483
1858,145	-10	-3,486
1860,311	-10	-3,49
1862,471	-10	-3,493
1864,637	-10	-3,494
1866,803	-10	-3,496
1868,974	-10	-3,498
1871,14	-10	-3,498
1873,306	-10	-3,499
1875,466	-10	-3,499
1877,638	-10	-3,499
1879,804	-10	-3,5
1881,97	-10	-3,461
1884,135	-10	-3,333
1886,301	-10	-3,254
1888,461	-10	-3,203
1890,633	-9,5	-3,087
1892,799	-9	-3,001
1894,965	-8,5	-2,942
1897,125	-7,5	-2,817
1899,291	-7	-2,737
1901,463	-6,5	-2,605
1903,628	-5,5	-2,498
1905,788	-4,5	-2,338
1907,954	-4	-2,167
1910,126	-3	-1,971
1912,292	-3	-1,897
1914,452	-2,5	-1,83
1916,624	-2	-1,656
1918,79	-1,5	-1,588
1920,955	-2	-1,571
1923,115	-1,5	-1,542
1925,287	-1,5	-1,4
1927,459	-1	-1,273
1929,631	-1	-1,104
1931,791	-0,5	-1,06
1933,963	-0,5	-0,982
1936,129	0	-0,796
1938,294	0	-0,769
1940,46	0	-0,668
1942,626	0	-0,582
1944,786	0	-0,478
1946,958	0	-0,314
1949,124	0	-0,319
1951,29	0	-0,346
1953,462	0,5	-0,187
1955,627	1	-0,12
1957,805	1,5	-0,055
1959,971	1,5	-0,034
1962,143	1,5	-0,026
1964,309	1,5	-0,017
1966,469	1,5	-0,01
1968,635	1,5	-0,006
1970,807	1,5	-0,004
1972,978	1,5	-0,002
1975,15	1,5	-0,002
1977,31	1,5	-0,001
1979,476	1,5	-0,001
1981,648	2	0
1983,808	1,5	-0,036
1985,974	1,5	-0,272
1988,14	1,5	-0,217
1990,311	1,5	-0,356
1992,471	1,5	-0,391
1994,637	1	-0,44
1996,803	0,5	-0,524
1998,969	0	-0,776
2001,135	0	-0,856
2003,301	-0,5	-0,951
2005,467	-1	-1,142
2007,632	-1	-1,25
2009,798	-1,5	-1,378
2011,964	-1,5	-1,533
2014,136	-1,5	-1,53
2016,308	-2	-1,667
2018,474	-2	-1,838
2020,64	-2,5	-1,956
2022,806	-2,5	-2,106
2024,971	-3	-2,249
2027,137	-3,5	-2,398
2029,297	-4,5	-2,57
2031,469	-5	-2,803
2033,635	-6	-2,98
2035,801	-6,5	-3,16
2037,967	-7,5	-3,34
2040,133	-8,5	-3,404
2042,298	-9,5	-3,455
2044,464	-9,5	-3,472
2046,642	-9,5	-3,488
2048,808	-10	-3,492
2050,974	-10	-3,496
2053,134	-9,5	-3,497
2055,294	-10	-3,498
2057,466	-10	-3,499
2059,632	-10	-3,5
2061,791	-10	-3,479
2063,957	-10	-3,407
2066,129	-9,5	-3,172
2068,295	-9	-3,101
2070,461	-8,5	-2,969
2072,621	-7	-2,805
2074,793	-6,5	-2,685
2076,952	-6	-2,678
2079,124	-6	-2,584
2081,29	-5,5	-2,46
2083,468	-4	-2,155
2085,628	-4	-2,127
2087,794	-3	-1,994
2089,966	-2,5	-1,815
2092,132	-2	-1,703
2094,303	-1,5	-1,518
2096,469	-1,5	-1,422
2098,629	-1,5	-1,387
2100,795	-1	-1,292
2102,967	-0,5	-1,08
2105,127	-0,5	-0,966
2107,293	-0,5	-0,881
2109,459	0	-0,79
2111,624	0	-0,699
2113,79	0	-0,565
2115,956	0	-0,486
2118,122	0	-0,384
2120,288	0	-0,369
2122,454	0	-0,367
2124,614	0	-0,307
2126,78	0,5	-0,233
2128,946	0,5	-0,185
2131,111	1	-0,131
2133,277	1	-0,116
2135,437	1	-0,105
2137,615	1,5	-0,065
2139,775	1,5	-0,054
2141,947	1,5	-0,039
2144,113	1,5	-0,032
2146,279	1,5	-0,024
2148,438	2	-0,017
2150,61	2	-0,011
2152,776	2	-0,009
2154,954	2	-0,008
2157,12	1,5	-0,007
2159,28	2	-0,007
2161,452	1,5	-0,006
2163,618	1,5	-0,005
2165,783	2	-0,004
2167,949	1,5	-0,003
2170,109	2	-0,002
2172,275	1,5	-0,002
2174,447	1,5	-0,002
2176,613	1,5	-0,002
2178,785	2	-0,001
2180,951	1,5	-0,001
2183,11	1,5	-0,001
2185,276	1,5	-0,001
2187,442	1,5	-0,001
2189,608	1,5	0
2191,774	1,5	0
2193,934	1,5	0
2196,1	1,5	-0,031
2198,266	1,5	-0,041
2200,425	1,5	-0,052
2202,597	1,5	-0,17
2204,763	1,5	-0,183
2206,929	1,5	-0,227
2209,101	1,5	-0,313
2211,273	1	-0,37
2213,445	1	-0,486
2215,605	1	-0,44
2217,77	0,5	-0,521
2219,936	1	-0,516
2222,102	0,5	-0,575
2224,262	0,5	-0,63
2226,434	0	-0,767
2228,6	0	-0,8
2230,76	0	-0,812
2232,926	-0,5	-0,866
2235,097	-0,5	-0,907
2237,263	-0,5	-0,944
2239,429	-0,5	-0,961
2241,589	-0,5	-0,99
2243,755	-1	-1,12
2245,927	-1	-1,263
2248,099	-1	-1,327
2250,271	-1	-1,416
2252,437	-1,5	-1,444
2254,602	-1,5	-1,438
2256,762	-1,5	-1,466
2258,934	-1,5	-1,684
2261,094	-2	-1,771
2263,266	-2	-1,892
2265,432	-2	-1,95
2267,592	-2,5	-2,006
2269,763	-3	-2,132
2271,923	-2,5	-2,129
2274,089	-3	-2,23
2276,255	-3	-2,326
2278,421	-3,5	-2,427
2280,587	-3,5	-2,454
2282,747	-3,5	-2,531
2284,913	-4	-2,596
2287,078	-4,5	-2,719
2289,244	-4,5	-2,751
2291,41	-4,5	-2,751
2293,582	-5	-2,84
2295,748	-5	-2,969
2297,914	-5,5	-3,043
2300,08	-6,5	-3,213
2302,246	-7	-3,324
2304,417	-7,5	-3,372
2306,583	-8	-3,399
2308,749	-8	-3,42
2310,909	-8	-3,422
2313,075	-8	-3,444
2315,235	-8,5	-3,45
2317,395	-8,5	-3,452
2319,561	-8,5	-3,457
2321,721	-9	-3,465
2323,886	-8,5	-3,47
2326,052	-8,5	-3,478
2328,218	-8,5	-3,483
2330,384	-9	-3,487
2332,55	-9	-3,488
2334,716	-9	-3,492
2336,882	-9	-3,493
2339,042	-9	-3,495
2341,207	-9	-3,497
2343,379	-9	-3,498
2345,545	-9	-3,498
2347,711	-9	-3,498
2349,877	-9	-3,499
2352,043	-9	-3,499
2354,203	-9	-3,5
2356,363	-9	-3,5
2358,528	-9	-3,49
2360,694	-9	-3,401
2362,86	-9	-3,325
2365,026	-8,5	-3,235
2367,192	-8,5	-3,153
2369,358	-8	-3,067
2371,524	-7,5	-2,96
2373,684	-7,5	-2,926
2375,843	-7	-2,87
2378,015	-6	-2,776
2380,175	-6	-2,811
2382,341	-6	-2,779
2384,507	-6	-2,746
2386,673	-5	-2,598
2388,839	-4,5	-2,501
2391,017	-3,5	-2,264
2393,182	-3	-2,196
2395,348	-2,5	-1,988
2397,508	-2	-1,832
2399,68	-1,5	-1,55
2401,846	-1	-1,429
2404,012	-0,5	-1,077
2406,178	0	-0,795
2408,344	0	-0,656
2410,521	0,5	-0,346
2412,681	0,5	-0,179
2414,853	1,5	-0,083
2417,013	1,5	-0,07
2419,185	1,5	-0,054
2421,351	1,5	-0,044
2423,517	1,5	-0,033
2425,689	1,5	-0,026
2427,848	1,5	-0,023
2430,014	1,5	-0,02
2432,18	1,5	-0,016
2434,346	1,5	-0,012
2436,506	1,5	-0,012
2438,672	1,5	-0,008
2440,838	1,5	-0,006
2443,004	1,5	-0,004
2445,169	1,5	-0,003
2447,335	1,5	-0,003
2449,513	1,5	-0,002
2451,679	1,5	-0,001
2453,851	1,5	-0,001
2456,011	1,5	-0,001
2458,183	1,5	-0,001
2460,349	1,5	0
2462,514	2	0
2464,68	1,5	0
2466,846	1,5	0
2469,006	1,5	0
2471,172	2	0
2473,332	1,5	-0,015
2475,492	1,5	-0,001
2477,652	1,5	0
2479,818	1,5	-0,003
2481,983	1,5	-0,106
2484,149	1,5	-0,124
2486,321	2	-0,186
2488,487	1,5	-0,236
2490,653	1,5	-0,258
2492,813	1,5	-0,256
2494,973	1,5	-0,236
2497,144	1,5	-0,412
2499,31	1	-0,508
2501,47	0,5	-0,574
2503,636	0	-0,671
2505,802	0	-0,762
2507,974	0	-0,872
2510,134	0	-0,89
2512,3	0	-0,869
2514,466	0	-0,896
2516,631	-0,5	-0,949
2518,797	-0,5	-1,056
2520,963	-0,5	-1,152
2523,135	-0,5	-1,176
2525,301	-0,5	-1,252
2527,473	-1	-1,292
2529,633	-1	-1,36
2531,793	-1	-1,451
2533,958	-1	-1,564
2536,124	-1,5	-1,639
2538,29	-1,5	-1,724
2540,456	-1,5	-1,852
2542,616	-1,5	-1,886
2544,782	-1,5	-1,966
2546,948	-2	-2,03
2549,12	-2	-2,146
2551,285	-2,5	-2,3
2553,457	-3	-2,405
2555,617	-3	-2,514
2557,783	-3,5	-2,642
2559,955	-3	-2,694
2562,121	-3,5	-2,806
2564,281	-4	-2,909
2566,447	-4,5	-3,048
2568,606	-5	-3,114
2570,778	-5	-3,227
2572,944	-5,5	-3,321
2575,104	-6	-3,331
2577,27	-6	-3,372
2579,442	-6,5	-3,423
2581,614	-7	-3,433
2583,78	-6,5	-3,434
2585,945	-7	-3,45
2588,111	-7,5	-3,466
2590,277	-7,5	-3,474
2592,443	-7,5	-3,479
2594,615	-7,5	-3,487
2596,781	-7,5	-3,49
2598,947	-7,5	-3,491
2601,113	-7,5	-3,494
2603,278	-7,5	-3,495
2605,444	-7,5	-3,496
2607,616	-7,5	-3,497
2609,776	-7	-3,497
2611,936	-7,5	-3,497
2614,102	-7,5	-3,497
2616,268	-7	-3,497
2618,434	-7,5	-3,498
2620,599	-7,5	-3,498
2622,765	-7,5	-3,498
2624,925	-7,5	-3,498
2627,091	-7,5	-3,498
2629,263	-7	-3,499
2631,435	-7,5	-3,499
2633,595	-7	-3,499
2635,761	-7,5	-3,499
2637,926	-7	-3,499
2640,092	-7,5	-3,499
2642,258	-7	-3,5
2644,418	-7,5	-3,5
2646,578	-7,5	-3,499
2648,744	-7,5	-3,5
2650,904	-7	-3,499
2653,07	-7	-3,472
2655,229	-7	-3,439
2657,395	-7,5	-3,439
2659,567	-7,5	-3,326
2661,733	-7	-3,354
2663,899	-7	-3,395
2666,065	-7	-3,348
2668,231	-7	-3,262
2670,415	-6	-3,116
2672,58	-6	-3,079
2674,746	-6	-2,993
2676,906	-6	-3,034
2679,078	-5	-2,912
2681,244	-5	-2,859
2683,404	-5	-2,798
2685,57	-4,5	-2,723
2687,736	-4	-2,632
2689,907	-3,5	-2,564
2692,073	-3,5	-2,548
2694,239	-3,5	-2,538
2696,405	-3,5	-2,494
2698,571	-3,5	-2,424
2700,737	-3	-2,398
2702,903	-3	-2,343
2705,069	-3	-2,328
2707,24	-2	-2,206
2709,406	-2	-2,133
2711,578	-1,5	-2,064
2713,75	-1,5	-1,918
2715,91	-1	-1,788
2718,082	-1	-1,672
2720,254	-0,5	-1,567
2722,414	-1	-1,548
2724,579	-0,5	-1,522
2726,751	0	-1,433
2728,917	-0,5	-1,342
2731,083	0	-1,279
2733,249	0	-1,209
2735,415	0	-1,086
2737,587	0	-1,042
2739,753	0	-1,07
2741,919	0	-1,039
2744,078	0	-0,968
2746,244	0	-0,908
2748,404	0	-0,854
2750,57	0	-0,837
2752,736	0	-0,794
2754,902	0	-0,73
2757,068	0	-0,618
2759,234	0	-0,623
2761,405	0	-0,587
2763,565	0	-0,537
2765,725	0	-0,492
2767,885	0	-0,484
2770,045	0	-0,408
2772,217	0,5	-0,298
2774,383	0,5	-0,215
2776,543	1	-0,181
2778,708	1	-0,141
2780,874	1,5	-0,106
2783,046	1	-0,085
2785,206	1,5	-0,074
2787,378	1,5	-0,053
2789,538	1,5	-0,049
2791,704	1,5	-0,043
2793,87	1,5	-0,034
2796,029	1,5	-0,034
2798,201	1,5	-0,024
2800,367	1,5	-0,018
2802,533	1,5	-0,014
2804,699	1,5	-0,012
2806,859	1,5	-0,01
2809,025	1,5	-0,009
2811,185	1,5	-0,011
2813,351	1,5	-0,007
2815,516	2	-0,005
2817,676	2	-0,004
2819,842	1,5	-0,003
2822,014	1,5	-0,002
2824,18	1,5	-0,002
2826,346	1,5	-0,001
2828,512	1,5	-0,001
2830,677	1,5	-0,001
2832,837	2	-0,001
2835,003	2	0
2837,169	1,5	0
2839,335	1,5	-0,04
2841,501	1,5	-0,129
2843,667	2	-0,231
2845,839	2	-0,332
2848,004	1	-0,397
2850,164	1,5	-0,414
2852,33	1	-0,443
2854,496	1	-0,555
2856,662	0,5	-0,629
2858,828	0	-0,757
2861	0	-0,862
2863,166	0	-0,916
2865,337	0	-1,058
2867,509	-0,5	-1,115
2869,675	-0,5	-1,141
2871,841	-0,5	-1,227
2874,007	-0,5	-1,28
2876,173	-0,5	-1,313
2878,351	-1	-1,463
2880,511	-1	-1,471
2882,682	-1	-1,571
2884,848	-1	-1,65
2887,02	-1	-1,735
2889,186	-1	-1,692
2891,346	-1,5	-1,843
2893,512	-1	-1,912
2895,672	-1	-1,889
2897,844	-1,5	-2,005
2900,015	-1,5	-2,184
2902,181	-2	-2,236
2904,347	-2	-2,312
2906,513	-2	-2,376
2908,679	-2,5	-2,477
2910,845	-2,5	-2,498
2913,005	-2,5	-2,549
2915,171	-2,5	-2,618
2917,336	-2,5	-2,677
2919,502	-3,5	-2,87
2921,668	-3,5	-2,938
2923,84	-4	-3,038
2926,006	-4	-3,13
2928,172	-4,5	-3,198
2930,338	-4,5	-3,25
2932,504	-5	-3,316
2934,669	-5	-3,33
2936,835	-5	-3,366
2939,001	-5	-3,372
2941,167	-5	-3,403
2943,333	-5	-3,397
2945,499	-5	-3,397
2947,659	-5,5	-3,398
2949,825	-5,5	-3,418
2951,991	-5,5	-3,434
2954,162	-6	-3,456
2956,328	-5,5	-3,458
2958,488	-6	-3,465
2960,654	-6	-3,472
2962,82	-6	-3,48
2964,986	-6	-3,486
2967,152	-6	-3,488
2969,311	-6	-3,492
2971,489	-6	-3,495
2973,655	-6	-3,497
2975,821	-6	-3,498
2977,993	-6	-3,498
2980,159	-6	-3,498
2982,331	-6	-3,498
2984,497	-6	-3,498
2986,662	-6	-3,499
2988,822	-6	-3,499
2990,988	-6	-3,499
2993,148	-6	-3,5
2995,32	-6	-3,497
2997,48	-6	-3,472
2999,64	-6	-3,402
3001,818	-5,5	-3,19
3003,978	-5	-3,165
3006,149	-5	-3,018
3008,315	-4	-2,868
3010,481	-3,5	-2,83
3012,647	-3,5	-2,697
3014,819	-2,5	-2,539
3016,985	-2,5	-2,438
3019,145	-2	-2,372
3021,317	-2	-2,346
3023,482	-1,5	-2,271
3025,642	-1,5	-2,233
3027,808	-1,5	-2,094
3029,974	-1	-1,965
3032,14	-0,5	-1,87
3034,306	-0,5	-1,731
3036,466	-0,5	-1,596
3038,632	0	-1,452
3040,797	0	-1,34
3042,969	0	-1,203
3045,135	0	-1,128
3047,301	0	-1,054
3049,467	0	-0,872
3051,633	0	-0,775
3053,799	0	-0,621
3055,959	0	-0,593
3058,118	0	-0,569
3060,284	0	-0,468
3062,45	0,5	-0,366
3064,616	0,5	-0,277
3066,782	0,5	-0,164
3068,954	0,5	-0,101
3071,114	1,5	-0,075
3073,28	1,5	-0,052
3075,451	1,5	-0,034
3077,629	1,5	-0,023
3079,819	1,5	-0,01
3081,985	1,5	-0,008
3084,145	2	-0,008
3086,311	1,5	-0,007
3088,471	1,5	-0,005
3090,643	2	-0,004
3092,808	1,5	-0,003
3094,968	1,5	-0,003
3097,128	1,5	-0,002
3099,294	1,5	-0,002
3101,466	1,5	-0,001
3103,632	2	-0,001
3105,792	1,5	-0,001
3107,958	1,5	-0,001
3110,123	2	0
3112,295	2	0
3114,455	1,5	-0,004
3116,615	2	0
3118,775	2	-0,009
3120,941	2	-0,021
3123,107	2	-0,1
3125,273	1,5	-0,146
3127,438	2	-0,262
3129,604	1,5	-0,392
3131,77	1	-0,478
3133,942	1	-0,576
3136,114	0	-0,676
3138,274	0	-0,695
3140,44	0	-0,812
3142,606	0	-0,945
3144,771	0	-1,068
3146,943	-0,5	-1,195
3149,109	-0,5	-1,254
3151,269	-0,5	-1,282
3153,435	-0,5	-1,314
3155,601	-0,5	-1,374
3157,767	-0,5	-1,438
3159,939	-0,5	-1,564
3162,105	-1	-1,707
3164,27	-1	-1,793
3166,43	-1	-1,795
3168,596	-1	-1,826
3170,762	-1	-1,838
3172,922	-1	-1,926
3175,094	-1,5	-2,079
3177,254	-1,5	-2,123
3179,414	-1,5	-2,168
3181,579	-1,5	-2,232
3183,745	-1,5	-2,318
3185,911	-1,5	-2,41
3188,077	-2	-2,44
3190,243	-2,5	-2,51
3192,409	-2,5	-2,628
3194,581	-2,5	-2,68
3196,747	-2,5	-2,765
3198,912	-3	-2,856
3201,072	-3	-2,895
3203,238	-3	-3,044
3205,41	-3,5	-3,116
3207,57	-3,5	-3,152
3209,736	-4	-3,268
3211,902	-4,5	-3,308
3214,068	-4,5	-3,344
3216,227	-4,5	-3,375
3218,393	-4,5	-3,398
3220,553	-5	-3,414
3221,957	1,5	0