File: ensaios_Ciclicos/_60perc/_2gap/entrada/_3.txt
Time (s)	Load (N)	Displacement (mm)
0	0	-0,04
2,045	0	-0,001
4,157	0,5	-0,002
6,197	1	-0,011
8,237	0	-0,063
10,277	-0,5	-0,227
12,317	-2,5	-0,773
14,357	-4,5	-1,264
16,396	-7,5	-1,824
18,436	-10,5	-2,358
20,476	-13,5	-2,786
22,522	-16	-3,217
24,568	-16	-3,5
26,608	-16	-3,498
28,648	-16	-3,49
30,688	-15	-3,45
32,728	-12,5	-3,238
34,767	-9	-2,666
36,807	-6	-2,132
38,847	-4,5	-1,625
40,887	-2	-1,08
42,927	0	-0,6
44,973	1	-0,186
47,013	1	-0,001
49,058	1	-0,004
51,104	1	-0,018
53,15	0,5	-0,077
55,196	-0,5	-0,282
57,242	-2	-0,833
59,288	-3,5	-1,308
61,334	-6,5	-1,862
63,374	-9,5	-2,384
65,426	-14	-2,944
67,466	-15	-3,354
69,505	-15	-3,499
71,545	-15	-3,494
73,585	-15	-3,476
75,631	-14	-3,425
77,671	-12	-3,267
79,711	-8,5	-2,649
81,757	-5,5	-2,091
83,803	-4,5	-1,768
85,848	-3	-1,348
87,888	-1,5	-0,911
89,928	0,5	-0,477
91,968	1,5	0
94,008	1,5	-0,002
96,06	1,5	-0,007
98,1	1,5	-0,03
100,146	1	-0,074
102,186	0	-0,324
104,225	-0,5	-0,598
106,265	-2	-1,094
108,305	-3,5	-1,454
110,345	-6	-1,938
112,391	-9,5	-2,459
114,431	-11,5	-2,833
116,477	-14,5	-3,2
118,523	-15	-3,5
120,562	-14,5	-3,497
122,602	-14,5	-3,486
124,648	-13,5	-3,45
126,7	-12,5	-3,382
128,758	-10,5	-3,176
130,81	-8,5	-2,804
132,856	-6	-2,39
134,896	-5	-2,015
136,936	-3	-1,54
138,981	-2,5	-1,121
141,027	-0,5	-0,724
143,073	0,5	-0,416
145,125	1,5	-0,031
147,165	1,5	-0,001
149,205	1,5	-0,004
151,251	1,5	-0,009
153,303	1,5	-0,034
155,348	1	-0,104
157,394	0	-0,326
159,44	-1	-0,762
161,486	-2	-1,138
163,538	-4	-1,532
165,584	-5,5	-1,882
167,624	-7,5	-2,324
169,682	-9,5	-2,646
171,727	-13	-3,03
173,767	-14	-3,486
175,807	-14,5	-3,499
177,853	-14	-3,496
179,905	-14	-3,488
218,117	-13,5	-3,479
220,169	-13	-3,419
222,209	-10	-3,156
224,266	-8	-2,814
226,318	-6	-2,364
228,37	-4	-1,891
230,422	-3	-1,45
232,468	-1	-0,951
234,514	0	-0,62
236,566	1,5	-0,202
238,612	1,5	-0,001
240,663	1,5	-0,002
242,709	1,5	-0,006
244,761	1,5	-0,018
246,807	1	-0,075
248,853	0	-0,291
250,899	-0,5	-0,651
252,945	-2	-1,139
254,991	-3,5	-1,521
257,043	-5,5	-1,989
259,088	-8	-2,466
261,134	-10,5	-2,907
263,18	-13,5	-3,344
265,22	-13,5	-3,499
267,266	-13,5	-3,495
269,306	-13	-3,478
271,352	-12	-3,412
273,398	-9	-3,059
275,438	-7	-2,641
277,483	-5	-2,181
279,523	-3	-1,695
281,581	-2,5	-1,299
283,621	-0,5	-0,84
285,667	1,5	-0,345
287,719	1,5	-0,001
289,765	1,5	-0,001
291,811	1,5	-0,005
293,857	1,5	-0,021
295,902	1	-0,073
297,942	0	-0,267
299,994	-0,5	-0,702
302,046	-2	-1,159
304,098	-3	-1,5
306,144	-5	-1,893
308,19	-7	-2,227
310,248	-9	-2,532
312,293	-11	-2,882
314,333	-13,5	-3,3
316,379	-13,5	-3,5
318,431	-13	-3,498
320,471	-13,5	-3,492
322,511	-13	-3,476
324,563	-12,5	-3,429
326,615	-10	-3,267
328,666	-7,5	-2,899
330,712	-5,5	-2,46
332,758	-3,5	-1,924
334,81	-3	-1,578
336,868	-2	-1,24
338,914	0	-0,714
340,966	1	-0,432
343,012	1,5	-0,094
345,064	1,5	-0,001
347,115	1,5	-0,003
349,167	1,5	-0,012
351,213	1	-0,052
353,259	0	-0,272
355,305	-1	-0,748
357,351	-1,5	-1,16
359,403	-3,5	-1,619
361,449	-5,5	-2,054
363,494	-8	-2,435
365,546	-10	-2,685
367,592	-12,5	-3,143
369,644	-13	-3,5
371,69	-13	-3,497
373,736	-13	-3,482
375,794	-12,5	-3,442
377,846	-10,5	-3,342
379,898	-8,5	-3,051
381,943	-6,5	-2,732
384,001	-5	-2,411
386,047	-4	-1,923
388,099	-3	-1,656
390,145	-2	-1,275
392,191	-1,5	-1
394,237	0	-0,623
396,289	1	-0,334
434,5	-1	-0,949
436,552	0	-0,57
438,604	1,5	-0,226
440,656	1,5	0
442,708	1,5	-0,002
444,76	1,5	-0,005
446,8	1,5	-0,019
448,852	1	-0,094
450,903	0	-0,358
452,955	-0,5	-0,735
455,007	-1,5	-1,15
457,065	-3	-1,532
459,111	-5	-1,977
461,157	-7,5	-2,401
463,203	-9,5	-2,819
465,255	-12	-3,156
467,307	-12,5	-3,5
469,364	-12,5	-3,498
471,416	-12,5	-3,495
473,474	-12,5	-3,49
475,514	-12	-3,472
477,56	-11	-3,424
479,612	-9,5	-3,279
481,664	-8,5	-3,076
483,716	-6	-2,7
485,79	-5	-2,494
487,836	-4	-2,212
489,882	-3	-1,805
491,94	-2,5	-1,504
493,986	-2	-1,304
496,038	-1	-1,064
498,084	0	-0,772
500,136	1,5	-0,405
502,182	1,5	-0,005
504,227	1,5	-0,001
506,279	1,5	-0,003
508,325	2	-0,006
510,377	1,5	-0,013
512,429	1,5	-0,028
514,481	1,5	-0,078
516,527	0,5	-0,164
518,579	0	-0,365
520,63	0	-0,628
522,682	-1	-0,974
524,746	-3	-1,542
526,792	-4,5	-1,876
528,838	-5	-2,146
530,884	-7	-2,453
532,936	-9	-2,73
534,988	-11	-3,008
537,034	-12	-3,349
539,085	-12,5	-3,499
541,143	-12	-3,498
543,189	-12	-3,49
545,247	-12	-3,477
547,299	-12	-3,455
549,351	-10,5	-3,404
551,397	-9	-3,183
553,443	-6,5	-2,85
555,488	-5	-2,531
557,546	-4	-2,146
559,598	-2,5	-1,63
561,65	-2	-1,294
563,708	-0,5	-0,935
565,754	1	-0,531
567,806	1,5	-0,186
569,846	1,5	-0,001
571,904	1,5	-0,003
573,955	1,5	-0,007
576,007	2	-0,018
578,059	1,5	-0,06
580,117	0,5	-0,217
582,163	0	-0,43
584,215	0	-0,686
586,267	-1	-1,068
588,319	-2	-1,448
590,37	-4	-1,826
592,416	-5	-2,192
594,462	-7,5	-2,504
596,52	-10	-2,916
598,566	-12	-3,349
600,612	-12	-3,499
602,664	-12,5	-3,498
604,71	-12	-3,49
606,756	-12	-3,464
608,801	-9,5	-3,309
610,85	-7	-2,902
612,893	-6	-2,58
687,295	-4,5	-2,414
689,347	-3,5	-1,988
691,399	-2,5	-1,562
693,457	-1,5	-1,187
695,508	-0,5	-0,772
697,554	1	-0,4
699,6	1,5	0
701,646	1,5	-0,002
703,692	1,5	-0,004
705,744	1,5	-0,014
707,796	1,5	-0,036
709,842	0,5	-0,146
711,888	0	-0,495
713,945	-0,5	-0,874
715,997	-1,5	-1,248
718,049	-3	-1,631
720,095	-4,5	-2,077
722,141	-7,5	-2,512
724,193	-9,5	-2,868
726,233	-12	-3,29
728,285	-12	-3,499
730,33	-12	-3,497
732,382	-12	-3,488
734,428	-11,5	-3,472
736,486	-10,5	-3,418
738,532	-8	-3,12
740,584	-6	-2,737
742,63	-4,5	-2,324
744,676	-3	-1,889
746,722	-2	-1,564
748,779	-1,5	-1,25
750,831	-1	-0,892
752,877	0,5	-0,521
754,929	1,5	-0,152
756,981	1,5	-0,001
759,033	1,5	-0,002
761,091	1,5	-0,005
763,137	1,5	-0,015
765,195	1,5	-0,042
767,24	0,5	-0,14
769,304	0	-0,345
771,356	0	-0,754
773,408	-1	-1,102
775,46	-2	-1,431
777,5	-4	-1,881
779,552	-5,5	-2,285
781,598	-8	-2,673
783,655	-9,5	-2,935
785,701	-11,5	-3,326
787,759	-12	-3,499
789,805	-12	-3,498
791,863	-12	-3,494
793,915	-11,5	-3,477
795,961	-11	-3,438
798,007	-9,5	-3,293
800,053	-7,5	-3,036
802,098	-5,5	-2,643
804,138	-4	-2,236
806,19	-3	-1,858
808,242	-2	-1,522
810,294	-1,5	-1,165
812,34	-0,5	-0,801
814,392	1	-0,46
816,438	1,5	-0,069
818,483	1,5	-0,001
820,529	2	-0,004
822,587	1,5	-0,012
824,633	1,5	-0,04
826,679	1	-0,141
828,731	0	-0,448
830,771	-0,5	-0,882
832,817	-1,5	-1,318
834,869	-3	-1,711
836,92	-4,5	-2,052
838,966	-6	-2,418
841,018	-8,5	-2,806
843,064	-11,5	-3,278
845,11	-11,5	-3,5
847,156	-12	-3,498
849,208	-11,5	-3,493
851,26	-11,5	-3,481
853,312	-10,5	-3,443
855,357	-9,5	-3,356
857,409	-6,5	-3,016
859,456	-5	-2,609
861,507	-3,5	-2,29
863,553	-3	-1,886
865,611	-2	-1,55
867,651	-1	-1,084
869,703	0	-0,776
871,748	1,5	-0,371
873,794	1,5	0
875,84	1,5	-0,002
877,892	1,5	-0,005
879,944	1,5	-0,014
881,996	1,5	-0,046
884,042	1	-0,127
886,094	0	-0,414
888,14	0	-0,76
890,185	-1	-1,194
892,243	-2	-1,505
894,283	-3,5	-1,901
896,335	-5	-2,264
898,375	-8	-2,718
900,427	-11,5	-3,194
902,473	-11,5	-3,5
904,525	-11,5	-3,498
906,57	-11,5	-3,492
908,622	-11	-3,481
910,662	-10	-3,424
912,721	-8,5	-3,294
914,766	-5,5	-2,872
916,818	-4,5	-2,488
918,864	-3	-2,071
920,91	-2,5	-1,732
922,956	-2	-1,402
925,001	-1	-0,994
927,059	0	-0,736
929,105	1,5	-0,407
931,157	1,5	-0,064
933,203	1,5	-0,001
935,249	1,5	-0,003
937,295	1,5	-0,009
939,347	1,5	-0,027
941,392	1	-0,087
943,444	0	-0,299
945,49	0	-0,663
947,542	-1	-1,038
949,594	-1,5	-1,415
951,646	-3,5	-1,857
953,692	-5	-2,292
955,738	-7,5	-2,606
957,789	-9,5	-2,978
959,841	-11,5	-3,494
961,887	-11,5	-3,499
963,933	-11,5	-3,496
965,985	-11	-3,483
968,037	-10,5	-3,428
970,089	-7,5	-3,163
972,135	-5,5	-2,766
974,199	-4,5	-2,426
976,244	-3	-2,007
978,29	-2,5	-1,6
980,336	-2	-1,272
982,382	0	-0,799
984,434	1,5	-0,345
986,48	1,5	0
988,532	1,5	-0,002
990,578	1,5	-0,007
992,624	1,5	-0,022
994,675	1,5	-0,068
996,733	0,5	-0,22
998,779	0	-0,612
1000,831	-0,5	-0,995
1002,883	-2	-1,395
1004,929	-3	-1,813
1006,981	-5,5	-2,272
1009,027	-7,5	-2,754
1011,073	-10,5	-3,159
1013,124	-11	-3,5
1015,17	-11,5	-3,499
1017,222	-11,5	-3,494
1019,268	-11	-3,482
1021,32	-10,5	-3,443
1023,366	-9	-3,279
1025,412	-5,5	-2,832
1027,464	-4,5	-2,455
1029,509	-3	-2,061
1031,561	-2,5	-1,706
1033,607	-1,5	-1,27
1035,671	-0,5	-0,91
1037,717	1	-0,453
1039,769	1,5	-0,096
1041,821	1,5	-0,001
1043,861	1,5	-0,004
1045,913	1,5	-0,017
1047,958	1,5	-0,056
1050,01	1	-0,14
1052,056	0	-0,492
1054,102	-0,5	-0,943
1056,148	-1,5	-1,368
1058,2	-3	-1,772
1060,252	-4,5	-2,166
1062,298	-7,5	-2,617
1064,349	-10	-3,006
1066,395	-11,5	-3,37
1068,441	-11,5	-3,499
1070,487	-11,5	-3,497
1072,533	-11	-3,487
1074,585	-10,5	-3,471
1076,631	-10	-3,418
1078,683	-8,5	-3,264
1080,729	-5,5	-2,806
1082,774	-4	-2,4
1084,826	-3	-1,983
1086,866	-2	-1,608
1088,918	-1,5	-1,267
1090,964	-0,5	-0,822
1093,016	1	-0,438
1095,062	1,5	0
1097,12	1,5	-0,002
1099,165	1,5	-0,006
1101,217	1,5	-0,013
1103,269	1,5	-0,045
1105,321	1	-0,148
1107,367	0	-0,463
1109,419	-0,5	-0,862
1111,465	-1	-1,27
1113,517	-2	-1,564
1115,562	-3	-1,96
1117,608	-5,5	-2,379
1119,655	-8,5	-2,793
1121,7	-10,5	-3,21
1123,74	-11	-3,499
1125,786	-11	-3,496
1127,832	-11	-3,487
1129,884	-10,5	-3,462
1131,936	-9	-3,346
1133,987	-7	-3,054
1136,033	-5	-2,679
1138,079	-3,5	-2,205
1140,137	-2,5	-1,82
1142,183	-1,5	-1,439
1144,235	-1	-1,071
1146,281	0	-0,647
1148,321	1,5	-0,233
1150,373	1,5	-0,001
1152,418	1,5	-0,003
1154,464	1,5	-0,009
1156,522	1,5	-0,029
1158,568	1	-0,119
1160,614	0	-0,335
1162,666	-0,5	-0,754
1164,718	-0,5	-1,031
1166,764	-1,5	-1,381
1168,803	-3	-1,835
1170,849	-5	-2,319
1172,901	-7	-2,691
1174,947	-10	-3,046
1176,999	-11	-3,401
1179,045	-11	-3,499
1181,091	-11	-3,497
1183,143	-11	-3,488
1185,189	-10,5	-3,458
1187,234	-9	-3,354
1189,286	-6,5	-3,05
1191,326	-5	-2,65
1193,378	-4	-2,281
1195,424	-2,5	-1,879
1197,47	-1,5	-1,46
1199,516	-1	-1,12
1201,556	0	-0,634
1203,607	1,5	-0,259
1205,647	1,5	-0,001
1207,693	1,5	-0,003
1209,739	1,5	-0,008
1211,791	1,5	-0,028
1213,837	1	-0,12
1215,883	0	-0,397
1217,935	0	-0,706
1219,98	-0,5	-1,148
1222,026	-2,5	-1,565
1224,072	-3,5	-2
1226,118	-5,5	-2,446
1228,164	-8,5	-2,828
1230,21	-10,5	-3,156
1232,262	-11	-3,5
1234,314	-11	-3,499
1236,36	-11	-3,495
1238,405	-10,5	-3,48
1240,463	-10,5	-3,45
1242,509	-8,5	-3,315
1244,555	-6,5	-2,934
1246,595	-5	-2,537
1248,653	-3,5	-2,195
1250,693	-2,5	-1,809
1252,745	-1,5	-1,362
1254,791	-1	-1,048
1256,836	0	-0,63
1258,882	1,5	-0,212
1260,934	1,5	0
1262,98	1,5	-0,002
1265,032	1,5	-0,005
1267,084	1,5	-0,014
1269,13	1,5	-0,054
1271,176	0,5	-0,202
1273,227	0	-0,57
1275,273	-0,5	-1,005
1277,319	-1,5	-1,37
1279,365	-2,5	-1,784
1281,411	-4	-2,16
1283,463	-5,5	-2,453
1285,509	-8	-2,788
1287,555	-10,5	-3,22
1289,613	-11	-3,5
1291,658	-11	-3,498
1293,704	-11	-3,493
1295,75	-11	-3,479
1297,796	-10	-3,438
1299,848	-9	-3,33
1301,894	-6,5	-2,98
1303,94	-4,5	-2,588
1305,992	-3,5	-2,194
1308,044	-2,5	-1,874
1310,089	-2	-1,556
1312,135	-1,5	-1,18
1314,187	-1	-0,896
1316,233	0	-0,557
1318,279	1,5	-0,136
1320,331	1,5	-0,001
1322,377	1,5	-0,003
1324,423	1,5	-0,008
1326,468	1,5	-0,024
1328,508	1	-0,095
1330,554	0	-0,303
1332,606	0	-0,616
1334,652	-0,5	-0,972
1336,698	-1,5	-1,38
1338,75	-2,5	-1,736
1340,796	-4,5	-2,155
1342,841	-6,5	-2,522
1344,893	-9	-2,884
1346,939	-11	-3,231
1348,991	-11	-3,5
1351,037	-11	-3,498
1353,083	-11	-3,493
1355,129	-10,5	-3,476
1357,181	-9,5	-3,399
1359,227	-7,5	-3,194
1361,278	-5,5	-2,773
1363,33	-3,5	-2,309
1365,376	-3	-1,975
1367,422	-2	-1,525
1369,48	-1,5	-1,245
1371,526	-0,5	-0,875
1373,572	0,5	-0,53
1375,624	1,5	-0,212
1377,67	1,5	-0,001
1379,721	1,5	-0,002
1381,774	1,5	-0,005
1383,813	1,5	-0,014
1385,859	1,5	-0,046
1387,911	0,5	-0,119
1389,957	0	-0,414
1392,003	-0,5	-0,838
1394,055	-1	-1,18
1396,106	-1,5	-1,409
1398,152	-3	-1,727
1400,198	-3,5	-2,003
1402,244	-5	-2,341
1404,296	-8	-2,667
1406,342	-10	-3,064
1408,394	-11	-3,45
1410,44	-11	-3,499
1412,486	-10,5	-3,498
1414,531	-10,5	-3,492
1416,577	-10,5	-3,472
1418,623	-9	-3,402
1420,675	-7,5	-3,233
1422,721	-6	-2,892
1424,767	-4,5	-2,542
1426,819	-3	-2,164
1428,865	-2,5	-1,825
1430,91	-2	-1,523
1432,962	-1,5	-1,203
1435,008	0	-0,842
1437,054	1	-0,46
1439,1	1,5	-0,118
1441,146	1,5	-0,001
1443,192	1,5	-0,004
1445,244	1,5	-0,009
1447,296	1,5	-0,032
1449,341	0,5	-0,115
1451,387	0	-0,344
1453,439	0	-0,717
1455,479	-1	-1,102
1457,519	-2	-1,524
1459,571	-3,5	-1,913
1461,617	-5	-2,283
1463,669	-7	-2,634
1465,714	-10	-3,04
1467,76	-11	-3,466
1469,806	-11	-3,499
1471,846	-11	-3,495
1473,898	-11	-3,483
1475,95	-10,5	-3,453
1477,996	-8,5	-3,336
1480,048	-6,5	-3,075
1482,094	-4,5	-2,646
1484,139	-3,5	-2,205
1486,185	-2,5	-1,802
1488,237	-2	-1,526
1490,283	-1	-1,122
1492,329	0	-0,731
1494,381	1	-0,351
1496,427	1,5	0
1498,473	1,5	-0,002
1500,518	1,5	-0,004
1502,57	1,5	-0,015
1504,616	1,5	-0,054
1506,662	0,5	-0,188
1508,708	0	-0,547
1510,76	-0,5	-0,883
1512,8	-1,5	-1,358
1514,846	-3	-1,761
1516,898	-4	-2,154
1518,943	-6,5	-2,606
1520,989	-9,5	-3,004
1523,029	-10,5	-3,438
1525,081	-10,5	-3,499
1527,127	-10,5	-3,497
1529,167	-10,5	-3,486
1531,219	-10	-3,452
1533,265	-8	-3,33
1535,317	-7	-3,107
1537,362	-4,5	-2,699
1539,414	-4	-2,363
1541,466	-2,5	-1,974
1543,512	-1,5	-1,63
1545,558	-1,5	-1,269
1547,61	-0,5	-0,918
1549,656	0,5	-0,546
1551,696	1,5	-0,101
1553,741	1,5	-0,001
1555,787	1,5	-0,002
1557,833	1,5	-0,005
1559,885	1,5	-0,01
1561,937	1,5	-0,025
1563,995	1,5	-0,06
1566,041	0,5	-0,204
1568,093	0	-0,541
1570,139	-0,5	-0,875
1572,19	-1	-1,194
1574,242	-1,5	-1,478
1576,3	-2,5	-1,814
1578,346	-3,5	-2,095
1580,392	-4,5	-2,35
1582,438	-7	-2,664
1584,49	-9	-2,934
1586,53	-10,5	-3,343
1588,575	-10,5	-3,499
1590,615	-11	-3,498
1592,661	-10,5	-3,493
1594,707	-10,5	-3,482
1596,753	-10,5	-3,465
1598,799	-9,5	-3,413
1600,845	-7,5	-3,251
1602,891	-5,5	-2,913
1604,937	-4,5	-2,588
1606,988	-3	-2,276
1609,028	-2,5	-1,842
1611,074	-1,5	-1,562
1613,126	-1	-1,317
1615,172	-0,5	-0,94
1617,218	0	-0,638
1619,264	1,5	-0,314
1621,31	1,5	-0,036
1623,355	2	-0,001
1625,407	2	-0,003
1627,453	2	-0,008
1629,505	1,5	-0,027
1631,557	1,5	-0,058
1633,603	0,5	-0,185
1635,655	0	-0,456
1637,695	-0,5	-0,84
1639,741	-1	-1,138
1641,787	-1,5	-1,497
1643,832	-2	-1,752
1645,878	-4	-2,133
1647,924	-5,5	-2,494
1649,968	-7,5	-2,848
1652,016	-10,5	-3,31
1654,062	-10,5	-3,499
1656,108	-10,5	-3,498
1658,159	-10,5	-3,492
1660,199	-10,5	-3,478
1662,245	-10	-3,426
1664,291	-7,5	-3,26
1666,337	-6	-2,956
1668,383	-4,5	-2,634
1670,429	-3,5	-2,246
1672,475	-3	-1,925
1674,515	-1,5	-1,464
1676,566	-1	-1,202
1678,612	-0,5	-0,831
1680,658	1,5	-0,395
1682,698	1,5	-0,001
1684,75	1,5	-0,001
1686,796	1,5	-0,004
1688,842	2	-0,009
1690,888	1,5	-0,028
1692,939	1	-0,072
1694,985	0,5	-0,237
1697,031	0	-0,57
1699,077	-0,5	-0,952
1701,129	-1,5	-1,33
1703,175	-2	-1,674
1705,221	-3	-1,96
1707,273	-4,5	-2,291
1709,319	-6,5	-2,603
1711,364	-9	-3,024
1713,41	-10,5	-3,381
1715,462	-10,5	-3,499
1717,508	-10,5	-3,498
1719,554	-10,5	-3,491
1721,6	-10	-3,474
1723,646	-9,5	-3,418
1725,698	-7	-3,224
1727,743	-5,5	-2,837
1729,79	-4	-2,461
1731,835	-2,5	-2,031
1733,887	-2	-1,691
1735,933	-1,5	-1,304
1737,979	-0,5	-0,949
1740,031	0,5	-0,575
1742,077	1,5	-0,2
1744,123	1,5	-0,001
1746,168	2	-0,003
1748,214	1,5	-0,006
1750,266	1,5	-0,021
1752,312	1	-0,061
1754,358	0	-0,222
1756,404	0	-0,55
1758,456	-0,5	-0,923
1760,502	-1	-1,235
1762,548	-2,5	-1,728
1764,593	-3,5	-2,111
1766,639	-5	-2,513
1768,691	-7,5	-2,803
1770,737	-10	-3,164
1772,783	-10,5	-3,499
1774,829	-10,5	-3,499
1776,875	-10,5	-3,496
1778,921	-10,5	-3,484
1780,966	-10	-3,45
1783,012	-8	-3,338
1785,058	-6,5	-3,04
1787,11	-4,5	-2,678
1789,156	-3	-2,226
1791,202	-2	-1,82
1793,248	-1,5	-1,497
1795,294	-1	-1,136
1797,34	0	-0,764
1799,385	1,5	-0,446
1801,431	1,5	-0,002
1803,477	1,5	-0,002
1805,523	1,5	-0,005
1807,569	1,5	-0,014
1809,609	1,5	-0,064
1811,661	0,5	-0,243
1813,713	0	-0,707
1815,752	-1	-1,157
1817,792	-2	-1,668
1819,844	-4	-2,11
1821,89	-5,5	-2,46
1823,936	-7,5	-2,858
1825,982	-10,5	-3,242
1828,028	-10,5	-3,5
1830,074	-10,5	-3,498
1832,12	-10,5	-3,492
1834,166	-10	-3,478
1836,211	-9	-3,435
1838,263	-7,5	-3,26
1840,303	-4,5	-2,798
1842,349	-3,5	-2,437
1844,395	-2,5	-2,008
1846,447	-1,5	-1,646
1848,493	-1	-1,164
1850,539	0	-0,761
1852,584	1	-0,431
1854,624	1,5	0
1856,676	1,5	-0,002
1858,722	1,5	-0,004
1860,763	1,5	-0,014
1862,808	1	-0,067
1864,854	0,5	-0,192
1866,906	0	-0,572
1868,951	-1	-1,139
1870,997	-1,5	-1,452
1873,043	-3	-1,892
1875,095	-4	-2,259
1877,141	-7	-2,719
1879,187	-9,5	-3,07
1881,233	-10,5	-3,482
1883,28	-10,5	-3,499
1885,324	-10,5	-3,493
1887,376	-10	-3,474
1889,416	-9	-3,412
1891,462	-5,5	-3,046
1893,514	-4	-2,61
1895,554	-2,5	-2,065
1897,6	-2	-1,677
1899,646	-1	-1,317
1901,698	-0,5	-0,898
1903,743	1	-0,541
1905,789	1,5	-0,181
1907,835	1,5	-0,001
1909,881	1,5	-0,004
1911,927	1,5	-0,016
1913,979	1,5	-0,058
1916,025	0	-0,359
1918,065	0	-0,797
1920,111	-1	-1,253
1922,162	-2,5	-1,668
1924,208	-3	-2,065
1926,254	-5,5	-2,538
1928,3	-9	-2,978
1930,346	-10,5	-3,497
1932,392	-10,5	-3,498
1934,432	-10,5	-3,492
1936,478	-10	-3,461
1938,523	-8,5	-3,38
1940,569	-6,5	-3,087
1942,609	-4	-2,469
1944,655	-3	-2,114
1946,695	-2	-1,644
1948,741	-1	-1,209
1950,793	0	-0,862
1952,833	1,5	-0,333
1954,879	1,5	0
1956,924	1,5	-0,002
1958,964	1,5	-0,01
1961,016	1,5	-0,031
1963,062	0,5	-0,152
1965,108	0	-0,485
1967,154	-0,5	-1,033
1969,206	-1,5	-1,522
1971,252	-2,5	-1,881
1973,297	-4,5	-2,252
1975,337	-6,5	-2,632
1977,377	-9	-3,008
1979,423	-10,5	-3,5
1981,469	-10,5	-3,499
1983,515	-10,5	-3,496
1985,561	-10,5	-3,491
1987,607	-10	-3,472
1989,653	-9	-3,408
1991,698	-7	-3,272
1993,744	-5,5	-2,932
1995,784	-4	-2,52
1997,83	-3	-2,138
1999,876	-2	-1,697
2001,922	-1,5	-1,348
2003,968	-0,5	-0,849
2006,014	1	-0,398
2008,065	1,5	-0,002
2010,112	1,5	-0,002
2012,151	1,5	-0,006
2014,197	1,5	-0,025
2016,243	1	-0,09
2018,289	0	-0,352
2020,335	0	-0,818
2022,381	-1	-1,187
2024,427	-2	-1,628
2026,472	-3	-1,993
2028,524	-4	-2,287
2030,57	-6	-2,643
2032,61	-9,5	-3,064
2034,65	-10,5	-3,461
2036,702	-10,5	-3,499
2038,742	-10,5	-3,496
2040,788	-10	-3,479
2042,834	-9,5	-3,431
2044,879	-7,5	-3,329
2046,931	-5,5	-2,947
2048,971	-3,5	-2,519
2051,017	-2,5	-2,037
2053,057	-1,5	-1,625
2055,103	-1	-1,067
2057,143	0,5	-0,613
2059,189	2	-0,251
2061,228	1,5	-0,001
2063,274	1,5	-0,004
2065,314	1,5	-0,014
2067,366	1,5	-0,047
2069,412	0,5	-0,193
2071,458	0	-0,53
2073,504	0	-0,923
2075,55	-1	-1,374
2077,602	-1,5	-1,63
2079,641	-3	-2,043
2081,687	-4,5	-2,413
2083,733	-7,5	-2,822
2085,773	-10	-3,382
2087,825	-10	-3,499
2089,877	-10	-3,497
2091,923	-10	-3,488
2093,969	-8,5	-3,394
2096,014	-6	-3,134
2098,066	-4,5	-2,707
2100,112	-3	-2,358
2102,158	-2,5	-1,982
2104,198	-1,5	-1,566
2106,244	-1	-1,216
2108,29	-0,5	-0,861
2110,33	1	-0,442
2112,376	1,5	0
2114,415	1,5	-0,002
2116,461	1,5	-0,006
2118,507	1,5	-0,025
2120,559	1,5	-0,064
2122,605	0	-0,234
2124,645	0	-0,579
2126,685	-0,5	-1,007
2128,731	-1,5	-1,437
2130,777	-2	-1,786
2132,828	-3,5	-2,102
2134,874	-5	-2,445
2136,92	-7,5	-2,821
2138,966	-9	-3,06
2141,012	-10,5	-3,483
2143,058	-10	-3,499
2145,104	-10,5	-3,494
2147,15	-10	-3,486
2149,195	-10	-3,458
2151,247	-8	-3,358
2153,293	-5,5	-3,029
2155,333	-3,5	-2,436
2157,373	-2,5	-2,026
2159,419	-1,5	-1,586
2161,465	-1	-1,209
2163,517	-1	-1
2165,556	0	-0,578
2167,596	1,5	-0,165
2169,642	1,5	-0,001
2171,688	1,5	-0,003
2173,734	1,5	-0,008
2175,78	1,5	-0,023
2177,826	1	-0,062
2179,872	0,5	-0,16
2181,918	0	-0,533
2183,963	-0,5	-0,912
2186,015	-1	-1,239
2188,061	-2	-1,616
2190,101	-3	-2,102
2192,147	-6,5	-2,714
2194,193	-9	-3,095
2196,239	-10	-3,499
2198,291	-10	-3,499
2200,336	-10	-3,494
2202,382	-10	-3,484
2204,434	-9,5	-3,456
2206,474	-8	-3,354
2208,526	-6	-3,02
2210,572	-4,5	-2,638
2212,618	-3	-2,181
2214,664	-1,5	-1,555
2216,71	-1	-1,168
2218,761	0	-0,801
2220,807	1	-0,451
2222,853	1,5	-0,026
2224,899	1,5	-0,001
2226,945	1,5	-0,004
2228,997	1,5	-0,016
2231,043	1,5	-0,066
2233,089	0	-0,305
2235,129	0	-0,691
2237,174	-1	-1,206
2239,214	-2,5	-1,845
2241,266	-4	-2,208
2243,312	-7	-2,824
2245,358	-10	-3,278
2247,398	-10	-3,499
2249,444	-10	-3,495
2251,49	-10	-3,483
2253,535	-9,5	-3,444
2255,581	-7	-3,325
2257,621	-5,5	-2,953
2259,667	-3,5	-2,4
2261,707	-2	-1,926
2263,759	-1,5	-1,58
2265,805	-1	-1,224
2267,851	-0,5	-0,869
2269,897	1	-0,471
2271,936	1,5	-0,085
2273,982	2	-0,001
2276,028	1,5	-0,004
2278,074	1,5	-0,01
2280,114	1,5	-0,041
2282,154	0,5	-0,232
2284,2	0	-0,547
2286,246	0	-0,908
2288,297	-0,5	-1,239
2290,337	-1,5	-1,57
2292,383	-3	-2,005
2294,429	-4	-2,29
2296,475	-6	-2,72
2298,527	-8,5	-3,068
2300,573	-10	-3,499
2302,613	-10	-3,496
2304,659	-10	-3,49
2306,704	-10	-3,472
2308,75	-9	-3,408
2310,802	-6,5	-3,2
2312,848	-5	-2,844
2314,894	-3,5	-2,478
2316,94	-2,5	-2,06
2318,986	-2	-1,72
2321,038	-1	-1,352
2323,078	-0,5	-1
2325,123	0	-0,575
2327,169	1,5	-0,206
2329,215	1,5	-0,001
2331,255	2	-0,002
2333,307	2	-0,006
2335,353	2	-0,019
2337,393	1,5	-0,058
2339,439	0,5	-0,2
2341,484	0	-0,532
2343,53	0	-0,876
2345,582	-1	-1,264
2347,628	-2	-1,652
2349,668	-3	-2,004
2351,714	-4,5	-2,365
2353,76	-7,5	-2,732
2355,812	-9,5	-3,115
2357,851	-10	-3,5
2359,897	-10	-3,499
2361,943	-10	-3,494
2363,989	-10	-3,484
2366,029	-9	-3,45
2368,075	-7,5	-3,355
2370,127	-5,5	-3,048
2372,173	-3,5	-2,661
2374,213	-2,5	-2,206
2376,258	-1,5	-1,804
2378,304	-1	-1,464
2380,35	-0,5	-1,046
2382,408	0	-0,666
2384,448	1,5	-0,155
2386,494	1,5	-0,001
2388,54	1,5	-0,004
2390,586	1,5	-0,014
2392,632	1,5	-0,054
2394,683	1	-0,16
2396,729	0	-0,531
2398,775	-0,5	-0,958
2400,821	-1	-1,43
2402,867	-2	-1,829
2404,913	-3,5	-2,263
2406,953	-6	-2,675
2408,999	-8	-3,062
2411,044	-9	-3,413
2413,09	-9	-3,499
2415,136	-9,5	-3,495
2417,182	-9	-3,482
2419,228	-8	-3,432
2421,274	-6	-3,237
2423,32	-4,5	-2,876
2425,366	-3	-2,43
2427,412	-2	-1,98
2429,451	-1	-1,578
2431,491	-0,5	-1,124
2433,537	0	-0,763
2435,583	2	-0,339
2437,623	2	-0,001
2439,669	2	-0,002
2441,715	2	-0,006
2443,761	2	-0,023
2445,806	1,5	-0,077
2447,858	0,5	-0,265
2449,898	0	-0,619
2451,944	0	-1,007
2453,99	-0,5	-1,363
2456,048	-1,5	-1,71
2458,094	-3	-2,07
2460,14	-4,5	-2,543
2462,186	-8	-3,036
2464,225	-9	-3,499
2466,271	-9	-3,499
2468,317	-9	-3,494
2470,357	-9	-3,48
2472,403	-8	-3,421
2474,449	-5	-3,181
2476,495	-4	-2,751
2478,541	-3	-2,39
2480,586	-2	-1,957
2482,632	-1	-1,552
2484,678	-1	-1,14
2486,718	0,5	-0,59
2488,764	1,5	-0,208
2490,81	1,5	-0,001
2492,856	1,5	-0,003
2494,908	2	-0,011
2496,954	2	-0,032
2498,999	1	-0,134
2501,045	0	-0,528
2503,091	0	-0,873
2505,143	-0,5	-1,278
2507,189	-1,5	-1,69
2509,241	-2,5	-2,037
2511,287	-4,5	-2,455
2513,333	-6,5	-2,886
2515,385	-9	-3,246
2517,431	-9	-3,499
2519,476	-9	-3,498
2521,528	-9	-3,492
2523,574	-9	-3,477
2525,614	-7,5	-3,409
2527,66	-6	-3,215
2529,706	-4	-2,833
2531,752	-3	-2,409
2533,803	-2	-2,047
2535,849	-1	-1,702
2537,895	-0,5	-1,22
2539,941	0	-0,822
2541,981	1,5	-0,415
2544,027	2	-0,006
2546,073	2	-0,001
2548,125	2	-0,003
2550,171	2	-0,01
2552,216	1,5	-0,037
2554,262	1	-0,117
2556,308	0	-0,488
2558,354	0	-0,891
2560,4	-0,5	-1,3
2562,452	-1	-1,774
2564,498	-3	-2,198
2566,544	-5,5	-2,638
2568,589	-6,5	-2,978
2570,635	-8,5	-3,336
2572,681	-9	-3,499
2574,727	-9	-3,498
2576,773	-9	-3,491
2578,819	-8,5	-3,472
2580,865	-7	-3,39
2582,911	-5	-2,997
2584,957	-3,5	-2,627
2587,002	-2,5	-2,27
2589,048	-1,5	-1,852
2591,094	-1	-1,444
2593,134	-1	-1,081
2595,18	0	-0,762
2597,226	1,5	-0,32
2599,272	1,5	0
2601,324	1,5	-0,002
2603,363	2	-0,004
2605,403	2	-0,012
2607,443	1,5	-0,052
2609,489	1	-0,17
2611,543	0	-0,483
2613,581	0	-0,979
2615,627	-0,5	-1,361
2617,673	-1	-1,789
2619,719	-3	-2,22
2621,764	-4,5	-2,632
2623,81	-7	-3,037
2625,856	-8,5	-3,444
2627,902	-8,5	-3,499
2629,954	-8,5	-3,494
2632	-8,5	-3,482
2634,046	-8	-3,454
2636,092	-5,5	-3,256
2638,137	-3,5	-2,826
2640,183	-3	-2,447
2642,235	-2	-2,16
2644,281	-1	-1,688
2646,327	-0,5	-1,253
2648,373	0	-0,839
2650,419	1,5	-0,516
2652,465	2	-0,095
2654,511	2	-0,001
2656,556	2	-0,004
2658,608	2	-0,022
2660,654	1,5	-0,079
2662,7	0,5	-0,326
2664,752	0	-0,682
2666,798	0	-1,118
2668,844	-0,5	-1,562
2670,89	-1,5	-1,975
2672,936	-3	-2,397
2674,987	-5,5	-2,859
2677,033	-8	-3,294
2679,073	-8,5	-3,499
2681,119	-8	-3,496
2683,165	-8	-3,488
2685,217	-7,5	-3,46
2687,263	-7	-3,366
2689,309	-4,5	-3,036
2691,354	-3	-2,634
2693,4	-2,5	-2,301
2695,446	-1,5	-1,843
2697,486	-0,5	-1,368
2699,538	0	-0,926
2701,584	0,5	-0,544
2703,63	1,5	-0,077
2705,688	1,5	-0,001
2707,727	1,5	-0,004
2709,774	1,5	-0,021
2711,819	1,5	-0,097
2713,871	0	-0,374
2715,917	0	-0,883
2717,963	-0,5	-1,45
2720,009	-1,5	-1,88
2722,055	-3,5	-2,325
2724,101	-5,5	-2,888
2726,146	-8	-3,32
2728,186	-8	-3,499
2730,226	-8	-3,495
2732,266	-8	-3,478
2734,312	-7	-3,402
2736,358	-5,5	-3,207
2738,404	-4	-2,811
2740,456	-2,5	-2,442
2742,502	-2	-2,035
2744,547	-1	-1,573
2746,593	-0,5	-1,122
2748,639	0	-0,683
2750,685	1,5	-0,261
2752,731	1,5	-0,001
2754,783	2	-0,002
2756,829	2	-0,007
2758,869	1,5	-0,027
2760,914	1	-0,106
2762,96	0,5	-0,326
2765,006	0	-0,692
2767,058	0	-1,172
2769,104	-1	-1,543
2771,15	-1,5	-1,919
2773,196	-2,5	-2,31
2775,242	-5	-2,767
2777,282	-8	-3,278
2779,327	-8	-3,499
2781,367	-8	-3,497
2783,419	-8	-3,488
2785,465	-7,5	-3,462
2787,511	-6,5	-3,381
2789,557	-5	-3,13
2791,603	-3	-2,71
2793,649	-2,5	-2,334
2795,695	-1,5	-1,873
2797,746	-1	-1,511
2799,792	-0,5	-1,145
2801,838	0	-0,742
2803,884	1,5	-0,37
2805,93	1,5	0
2807,97	1,5	-0,002
2810,016	2	-0,004
2812,062	1,5	-0,016
2814,107	1,5	-0,053
2816,153	1	-0,224
2818,199	0	-0,669
2820,245	-0,5	-1,093
2822,291	-0,5	-1,474
2824,343	-1,5	-1,938
2826,389	-3	-2,287
2828,435	-4	-2,706
2830,481	-6,5	-3,094
2832,526	-7,5	-3,5
2834,572	-7,5	-3,498
2836,618	-7,5	-3,491
2838,664	-7	-3,47
2840,716	-6	-3,379
2842,762	-3,5	-2,959
2844,808	-2,5	-2,46
2846,854	-1,5	-1,982
2848,899	-1	-1,473
2850,945	-0,5	-1,107
2852,985	0,5	-0,632
2855,031	1,5	-0,175
2857,077	2	-0,001
2859,123	2	-0,003
2861,169	1,5	-0,008
2863,215	1,5	-0,026
2865,26	1,5	-0,108
2867,306	0,5	-0,339
2869,358	0	-0,611
2871,404	0	-0,967
2873,45	0	-1,343
2875,496	-1	-1,724
2877,548	-2	-2,103
2879,594	-3	-2,505
2881,64	-6	-3,004
2883,691	-7	-3,354
2885,737	-7	-3,499
2887,783	-7,5	-3,497
2889,829	-7	-3,487
2891,875	-6	-3,452
2893,921	-5	-3,322
2895,967	-3	-2,91
2898,019	-2,5	-2,52
2900,065	-1,5	-2,049
2902,11	-1	-1,667
2904,156	-0,5	-1,286
2906,202	0	-0,892
2908,248	1,5	-0,452
2910,294	2	-0,007
2912,34	2	-0,001
2914,392	2	-0,004
2916,438	2	-0,016
2918,483	1,5	-0,053
2920,529	1	-0,172
2922,575	0	-0,552
2924,621	0	-0,993
2926,667	0	-1,412
2928,713	-1	-1,803
2930,759	-2,5	-2,212
2932,805	-3	-2,594
2934,851	-5,5	-3,003
2936,89	-6,5	-3,388
2938,936	-6,5	-3,499
2940,994	-6,5	-3,498
2943,046	-6	-3,492
2945,092	-6	-3,468
2947,138	-5	-3,4
2949,178	-3,5	-3,088
2951,224	-2,5	-2,717
2953,269	-1,5	-2,336
2955,315	-1	-1,846
2957,367	-0,5	-1,458
2959,413	0	-1,012
2961,459	0,5	-0,678
2963,505	1,5	-0,323
2965,551	2	0
2967,597	2	-0,002
2969,643	2	-0,006
2971,688	1,5	-0,019
2973,728	1,5	-0,076
2975,774	0,5	-0,246
2977,82	0	-0,608
2979,866	0	-1,148
2981,912	-0,5	-1,548
2983,958	-1,5	-2,014
2986,01	-2	-2,334
2988,055	-3,5	-2,704
2990,101	-5,5	-3,174
2992,147	-6	-3,5
2994,187	-6	-3,498
2996,233	-6	-3,491
2998,279	-6	-3,47
3000,331	-5	-3,406
3002,371	-3,5	-3,17
3004,417	-2,5	-2,726
3006,456	-1,5	-2,297
3008,502	-1	-1,896
3010,542	-1	-1,446
3012,582	0	-1,05
3014,628	0,5	-0,625
3016,68	1,5	-0,278
3018,72	2	-0,001
3020,766	1,5	-0,002
3022,811	2	-0,008
3024,857	2	-0,027
3026,903	1	-0,108
3028,955	0,5	-0,39
3030,995	0	-0,787
3033,047	0	-1,073
3035,087	-0,5	-1,501
3037,133	-1	-1,93
3039,179	-1,5	-2,281
3041,224	-3	-2,608
3043,264	-5,5	-3,106
3045,304	-6	-3,5
3047,356	-6	-3,498
3049,402	-6	-3,494
3051,448	-6	-3,478
3053,494	-5,5	-3,431
3055,534	-4	-3,254
3057,58	-2,5	-2,833
3059,625	-1,5	-2,41
3061,671	-1	-1,937
3063,717	-1	-1,561
3065,763	-0,5	-1,174
3067,809	0	-0,776
3069,855	1,5	-0,361
3071,901	1,5	0
3073,947	2	-0,002
3075,992	2	-0,006
3078,038	1,5	-0,023
3080,09	1,5	-0,075
3082,136	0	-0,527
3084,176	0	-0,938
3086,222	0	-1,384
3088,262	-0,5	-1,838
3090,308	-1,5	-2,236
3092,354	-3	-2,612
3094,393	-5	-3,008
3096,439	-6	-3,426
3098,485	-6	-3,499
3100,531	-6	-3,494
3102,577	-5,5	-3,477
3104,629	-5	-3,42
3106,669	-3	-3,157
3108,709	-2	-2,66
3110,754	-1,5	-2,177
3112,8	-1	-1,726
3114,84	-0,5	-1,277
3116,886	0	-0,907
3118,926	1,5	-0,441
3120,972	1,5	-0,047
3123,018	2	-0,001
3125,064	2	-0,003
3127,11	1,5	-0,011
3129,155	1,5	-0,051
3131,201	1	-0,169
3133,247	0	-0,535
3135,293	0	-0,997
3137,339	0	-1,421
3139,385	-0,5	-1,872
3141,425	-1,5	-2,244
3143,477	-2,5	-2,571
3145,523	-4,5	-2,968
3147,562	-6	-3,419
3149,608	-6	-3,499
3151,654	-6	-3,495
3153,7	-6	-3,482
3155,752	-5,5	-3,446
3157,798	-4,5	-3,334
3159,844	-3	-3,032
3161,89	-2	-2,635
3163,935	-1,5	-2,189
3165,975	-1	-1,778
3168,021	-0,5	-1,401
3170,067	0	-1,009
3172,113	0,5	-0,558
3174,153	1,5	-0,154
3176,199	2	-0,001
3178,245	2	-0,003
3180,291	2	-0,011
3182,33	1,5	-0,049
3184,376	0,5	-0,211
3186,416	0	-0,658
3188,462	0	-1,044
3189,02	2	0