File: ensaios_Ciclicos/_60perc/_2gap/entrada/_4.txt
Time (s)	Load (N)	Displacement (mm)
36,099	-8,5	-2,165
38,067	-15	-3,5
40,035	-15	-3,49
42,003	-12	-3,25
43,977	-6,5	-2,275
45,957	-2,5	-1,255
47,925	1	0
49,893	1,5	-0,01
51,86	-1	-0,549
53,834	-9	-2,308
55,808	-14,5	-3,498
57,776	-14,5	-3,483
59,75	-12	-3,307
61,724	-8	-2,587
63,692	-4,5	-1,816
65,66	0,5	-0,399
67,628	1	-0,002
69,608	1,5	-0,012
71,581	0,5	-0,142
73,549	-1,5	-0,79
75,523	-5	-1,713
77,497	-12	-2,913
79,465	-14	-3,499
81,433	-14	-3,482
83,401	-11	-3,201
85,368	-6	-2,245
87,336	-3	-1,28
89,31	0,5	-0,405
91,284	1,5	-0,002
93,264	1,5	-0,013
95,238	-1	-0,705
97,212	-6,5	-2,022
99,192	-11,5	-2,888
101,16	-14	-3,499
103,139	-14	-3,491
105,113	-12	-3,363
107,093	-7	-2,46
109,067	-3,5	-1,542
111,041	0,5	-0,46
113,015	1,5	-0,001
114,995	1,5	-0,012
116,969	-1	-0,773
118,943	-5,5	-1,923
120,91	-13,5	-3,478
122,884	-13,5	-3,497
124,852	-12	-3,402
126,832	-7,5	-2,726
128,8	-3,5	-1,699
130,78	-1,5	-0,902
132,754	1,5	-0,051
134,722	1,5	-0,004
136,695	1	-0,05
138,669	-2,5	-1,118
140,637	-8,5	-2,424
142,611	-13,5	-3,406
144,579	-13	-3,49
146,547	-8	-2,86
148,527	-3,5	-1,664
150,495	0	-0,772
152,463	1,5	-0,001
154,443	1,5	-0,007
156,41	0	-0,347
158,384	-3,5	-1,471
160,358	-7	-2,185
162,338	-13,5	-3,32
164,312	-13	-3,496
166,286	-12	-3,431
168,254	-7,5	-2,813
170,222	-4,5	-2,041
172,196	-2,5	-1,332
174,169	1,5	-0,3
176,143	1,5	-0,002
178,117	1,5	-0,013
180,085	0,5	-0,146
254,259	-5	-1,96
256,239	-9,5	-2,763
258,213	-12,5	-3,5
260,192	-12,5	-3,487
262,172	-10	-3,305
264,158	-5,5	-2,387
266,132	-1,5	-1,071
268,106	1,5	-0,222
270,074	1,5	-0,002
272,048	1	-0,069
274,028	-0,5	-0,879
276,002	-5,5	-2,026
277,975	-10	-2,826
279,955	-12,5	-3,5
281,923	-12,5	-3,493
283,891	-10,5	-3,389
285,871	-7	-2,774
287,839	-3,5	-2,008
289,819	-2	-1,269
291,805	1	-0,529
293,778	1,5	-0,001
295,752	1,5	-0,069
297,732	-0,5	-0,669
299,7	-3	-1,509
301,68	-8,5	-2,603
303,66	-12	-3,321
305,628	-12,5	-3,495
307,602	-8,5	-3,137
309,57	-4,5	-2,248
311,549	-2,5	-1,372
313,523	1	-0,551
315,509	1,5	-0,001
317,489	1,5	-0,043
319,469	-0,5	-0,806
321,437	-3,5	-1,648
323,417	-7,5	-2,454
325,385	-12	-3,24
327,359	-12	-3,498
329,332	-12	-3,48
331,312	-9	-3,254
333,292	-5,5	-2,53
335,266	-3	-1,746
337,246	-1	-0,943
339,226	1,5	-0,148
341,2	1,5	-0,003
343,186	1,5	-0,028
345,16	0	-0,361
347,133	-1,5	-1,039
349,113	-5	-2,07
351,093	-9,5	-2,786
353,067	-12	-3,499
355,047	-12	-3,494
357,021	-11	-3,43
358,995	-7,5	-2,918
360,975	-4,5	-2,19
362,949	-2	-1,41
364,922	0	-0,642
366,896	1,5	-0,001
368,876	1,5	-0,009
370,856	1	-0,109
372,83	-0,5	-0,724
374,81	-2	-1,398
376,784	-6	-2,278
378,764	-11	-3,124
380,732	-12	-3,498
382,711	-12	-3,483
384,691	-9,5	-3,308
386,665	-6	-2,603
388,645	-3	-1,843
390,619	-1	-1,033
392,599	1,5	-0,015
394,573	1,5	-0,005
396,553	1,5	-0,058
470,828	-11	-3,475
472,802	-8	-3,073
474,776	-3,5	-1,986
476,756	-2	-1,211
478,73	1,5	-0,349
480,71	1,5	-0,002
482,684	1,5	-0,023
484,664	0	-0,321
486,637	-1	-1,131
488,611	-4	-1,883
490,591	-10,5	-3,074
492,571	-11,5	-3,499
494,557	-11,5	-3,491
496,537	-10	-3,392
498,511	-5,5	-2,662
500,491	-2,5	-1,668
502,471	-0,5	-0,898
504,45	1,5	-0,026
506,43	2	-0,004
508,404	0,5	-0,258
510,384	-1	-1,034
512,364	-5,5	-2,213
514,338	-9,5	-2,948
516,318	-11,5	-3,499
518,292	-11,5	-3,489
520,266	-9,5	-3,351
522,245	-5,5	-2,62
524,225	-3	-1,76
526,199	-1	-0,933
528,179	1,5	-0,173
530,165	1,5	-0,002
532,145	1,5	-0,032
534,125	0	-0,338
536,099	-1	-1,106
538,073	-4	-1,874
540,052	-6,5	-2,544
542,032	-11	-3,282
544,006	-11,5	-3,498
545,986	-11	-3,484
547,966	-9	-3,319
549,94	-5,5	-2,613
551,914	-3	-1,855
553,894	-1,5	-1,057
555,873	1,5	0
557,847	1,5	-0,016
559,827	0	-0,592
561,801	-3	-1,723
563,775	-7	-2,592
565,755	-11	-3,499
567,735	-11	-3,484
569,709	-9	-3,277
571,695	-5,5	-2,575
573,674	-3	-1,783
575,648	-1	-0,977
577,628	1,5	-0,167
579,608	1,5	-0,003
581,588	1,5	-0,024
583,568	0,5	-0,254
585,542	-1	-1,166
587,522	-4	-1,93
589,502	-8	-2,722
591,475	-11,5	-3,5
593,461	-11,5	-3,488
595,435	-6,5	-2,812
597,415	-3,5	-2,085
599,389	-1,5	-1,156
601,369	1,5	-0,001
603,337	1,5	-0,008
605,317	1	-0,084
607,291	0	-0,728
609,27	-2,5	-1,562
611,244	-5,5	-2,272
613,218	-10,5	-3,141
615,192	-11,5	-3,495
617,166	-10,5	-3,419
619,14	-5	-2,492
621,114	-3	-1,651
623,094	1	-0,287
625,074	1,5	-0,002
627,041	0	-0,238
629,021	-1,5	-1,348
631,001	-5	-2,188
632,975	-10	-3,046
634,955	-11	-3,497
636,929	-10,5	-3,462
638,915	-7,5	-3,109
640,895	-4,5	-2,339
642,869	-1,5	-1,187
644,842	1,5	-0,328
646,816	1,5	-0,002
648,796	1,5	-0,026
650,776	0	-0,322
652,744	-1	-1,153
654,718	-4	-1,953
656,692	-8,5	-2,763
658,666	-11	-3,499
660,64	-10,5	-3,452
662,619	-6,5	-2,939
664,599	-2	-1,604
666,573	0	-0,8
668,553	1,5	0
670,527	1,5	-0,044
672,507	0	-0,363
674,475	-1,5	-1,149
676,461	-7,5	-2,613
678,434	-10,5	-3,491
680,414	-11	-3,497
682,4	-10,5	-3,466
684,374	-7	-3,05
686,354	-2,5	-1,88
760,696	-1,5	-1,221
762,676	-4,5	-2,033
764,65	-9	-2,878
766,618	-10,5	-3,497
768,585	-10,5	-3,459
770,565	-6,5	-2,999
772,539	-3	-1,991
774,525	-1	-1,138
776,499	1,5	-0,234
778,473	1,5	-0,003
780,447	1,5	-0,074
782,433	0	-0,662
784,406	-2	-1,458
786,386	-5	-2,234
788,366	-10	-3,053
790,346	-10,5	-3,499
792,314	-10,5	-3,474
794,3	-7,5	-3,174
796,274	-3,5	-2,274
798,254	-1,5	-1,417
800,228	0,5	-0,597
802,201	1,5	-0,001
804,175	1,5	-0,01
806,161	1	-0,12
808,135	0	-0,833
810,121	-2,5	-1,633
812,095	-6	-2,502
814,075	-10,5	-3,456
816,043	-10,5	-3,496
818,029	-10	-3,457
819,996	-6,5	-2,964
821,976	-3,5	-2,187
823,95	-1,5	-1,314
825,93	1,5	-0,421
827,904	1,5	-0,002
829,89	1,5	-0,023
831,864	0	-0,368
833,838	-1	-1,254
835,811	-5,5	-2,272
837,791	-10	-3,074
839,759	-10,5	-3,498
841,745	-10,5	-3,484
843,719	-7,5	-3,217
845,699	-3	-2,102
847,673	-1,5	-1,287
849,653	0,5	-0,542
851,627	2	-0,001
853,6	2	-0,013
855,586	0,5	-0,2
857,56	-0,5	-1,046
859,54	-3	-1,886
861,514	-8	-2,84
863,494	-10,5	-3,499
865,468	-10	-3,46
867,442	-5,5	-2,835
869,422	-2,5	-1,905
871,401	-1	-1,033
873,375	1,5	0
875,349	1,5	-0,007
877,329	1	-0,093
879,309	0	-0,763
881,295	-2	-1,588
883,269	-6,5	-2,564
885,249	-10,5	-3,5
887,217	-10,5	-3,495
889,197	-10	-3,428
891,176	-6	-2,878
893,15	-3,5	-2,11
895,136	-1	-1,156
897,11	1,5	-0,001
899,09	2	-0,022
901,064	0	-0,322
903,044	-1	-1,178
905,012	-4	-2,082
906,991	-10,5	-3,221
908,965	-10,5	-3,498
910,939	-9,5	-3,427
912,919	-5,5	-2,812
914,899	-2	-1,49
916,879	1	-0,5
918,859	1,5	-0,001
920,827	1,5	-0,021
922,806	0,5	-0,292
924,786	-1	-1,141
926,772	-3	-1,844
928,746	-7	-2,666
930,732	-10,5	-3,496
932,706	-10,5	-3,496
934,68	-9,5	-3,425
936,654	-6	-2,819
938,628	-3	-1,922
940,602	-1	-1,122
942,581	1,5	-0,282
944,549	1,5	-0,002
946,529	1,5	-0,078
948,503	-1,5	-1,278
950,483	-4	-2,001
952,457	-8	-2,818
954,431	-10,5	-3,499
956,411	-10,5	-3,494
958,384	-10	-3,424
960,364	-6	-2,811
962,338	-3	-2,042
964,306	0,5	-0,488
966,28	1,5	-0,001
968,254	1,5	-0,012
970,228	0	-0,429
972,202	-2	-1,495
974,176	-6	-2,466
976,156	-10,5	-3,284
978,129	-10,5	-3,494
980,103	-8	-3,266
982,071	-4	-2,336
984,045	-2	-1,446
986,025	1,5	-0,004
987,993	2	-0,006
989,979	1	-0,087
991,953	-1,5	-1,302
993,938	-4	-2,059
995,912	-9,5	-3,009
997,892	-10,5	-3,499
999,86	-10,5	-3,486
1001,852	-6	-2,891
1003,826	-3	-2,097
1005,806	-1,5	-1,236
1007,78	1,5	-0,35
1009,754	2	-0,002
1011,727	1,5	-0,052
1013,707	0	-0,509
1015,681	-1,5	-1,385
1017,655	-7,5	-2,748
1019,629	-10,5	-3,499
1021,609	-10,5	-3,488
1023,577	-8,5	-3,358
1025,563	-5,5	-2,71
1027,537	-2,5	-1,84
1029,51	-1	-1,12
1031,49	1,5	-0,343
1033,464	1,5	-0,002
1035,45	2	-0,015
1037,424	0,5	-0,223
1039,404	-0,5	-0,933
1041,384	-2	-1,634
1043,358	-10	-3,17
1045,332	-10,5	-3,498
1047,311	-10,5	-3,486
1049,285	-8,5	-3,338
1051,259	-5	-2,594
1053,227	-3	-1,854
1055,207	-1	-1,079
1057,181	1,5	-0,283
1059,155	1,5	-0,002
1061,135	1,5	-0,03
1063,109	0	-0,312
1065,088	-1	-1,168
1067,068	-3	-1,841
1069,042	-9,5	-3,17
1071,022	-10,5	-3,498
1073,002	-10,5	-3,482
1074,976	-6,5	-3,1
1076,956	-3	-2,132
1078,93	1	-0,502
1080,903	1,5	-0,001
1082,877	1,5	-0,018
1084,851	0,5	-0,255
1086,825	-0,5	-1,093
1088,799	-2,5	-1,86
1090,767	-7	-2,723
1092,741	-10,5	-3,494
1094,721	-10,5	-3,496
1096,695	-9,5	-3,449
1098,669	-6	-3,014
1100,648	-3,5	-2,27
1102,616	-2	-1,509
1104,59	0	-0,73
1106,576	1,5	-0,018
1108,55	1,5	-0,005
1110,53	1	-0,142
1112,504	0	-0,873
1114,478	-2,5	-1,748
1116,457	-6	-2,613
1118,437	-10,5	-3,5
1120,411	-10	-3,476
1122,403	-7,5	-3,205
1124,377	-2,5	-1,82
1126,351	-0,5	-0,993
1128,331	1,5	-0,089
1130,299	2	-0,004
1132,273	1,5	-0,064
1134,246	0	-0,683
1136,214	-1,5	-1,576
1138,188	-5	-2,366
1140,156	-10	-3,292
1142,136	-10	-3,498
1144,116	-9	-3,424
1146,09	-3,5	-2,481
1148,07	-2	-1,685
1150,044	0	-0,864
1152,017	1,5	-0,153
1153,997	1,5	-0,003
1155,971	1,5	-0,041
1194,111	-4,5	-2,334
1196,079	-10	-3,225
1198,053	-10	-3,498
1200,033	-9	-3,432
1202,007	-5	-2,808
1203,98	-2,5	-2,009
1205,96	-1	-1,234
1207,934	1	-0,512
1209,914	1,5	-0,001
1211,882	1,5	-0,046
1213,868	0	-0,474
1215,842	-1,5	-1,316
1217,816	-3,5	-2,067
1219,796	-9,5	-3,069
1221,763	-10	-3,498
1223,737	-10	-3,459
1225,711	-6	-3,079
1227,685	-2	-1,907
1229,665	-1	-1,163
1231,639	1,5	-0,112
1233,613	2	-0,004
1235,587	1,5	-0,102
1237,567	0	-0,669
1239,534	-1,5	-1,456
1241,514	-4,5	-2,29
1243,488	-10	-3,269
1245,468	-10	-3,498
1247,442	-9,5	-3,456
1249,416	-4,5	-2,571
1251,39	-2	-1,726
1253,364	-0,5	-0,952
1255,344	1,5	-0,071
1257,317	2	-0,004
1259,285	1,5	-0,041
1261,265	0	-0,311
1263,239	-0,5	-1,033
1265,213	-2,5	-1,832
1267,193	-6,5	-2,67
1269,167	-10,5	-3,499
1271,141	-10,5	-3,496
1273,115	-9,5	-3,467
1275,088	-4,5	-2,545
1277,068	-2	-1,893
1279,048	-1	-1,213
1281,028	1	-0,512
1283,014	1,5	-0,001
1284,988	1,5	-0,008
1286,968	1,5	-0,06
1288,936	-1	-1,328
1290,91	-5	-2,452
1292,883	-9,5	-3,196
1294,863	-10	-3,499
1296,837	-10	-3,488
1298,817	-9	-3,418
1300,797	-5,5	-2,937
1302,771	-3	-1,982
1304,745	-1,5	-1,31
1306,725	0,5	-0,562
1308,698	1,5	-0,001
1310,666	2	-0,008
1312,64	1	-0,083
1314,62	0	-0,922
1316,594	-3,5	-1,994
1318,568	-9	-2,97
1320,548	-10,5	-3,498
1322,522	-10	-3,483
1324,496	-7,5	-3,286
1326,475	-4,5	-2,638
1328,449	-2,5	-1,89
1330,429	-1	-1,248
1332,403	0	-0,574
1334,371	1,5	-0,001
1336,351	2	-0,009
1338,325	1,5	-0,086
1340,299	0	-0,665
1342,273	-3	-1,918
1344,246	-8	-2,894
1346,226	-10	-3,496
1348,2	-10	-3,492
1350,18	-7,5	-3,279
1352,154	-4	-2,511
1354,134	-2	-1,8
1356,108	0	-0,727
1358,082	2	0
1360,056	2	-0,011
1362,035	0	-0,256
1364,015	-1	-1,218
1365,989	-4	-2,103
1367,957	-9,5	-3,044
1369,937	-10,5	-3,499
1371,911	-10	-3,479
1373,885	-6	-2,96
1375,859	-2,5	-1,868
1377,833	-1	-1,057
1379,812	1,5	-0,202
1381,786	1,5	-0,003
1383,766	1,5	-0,032
1385,746	0	-0,62
1387,72	-2,5	-1,707
1389,694	-7	-2,74
1391,662	-10,5	-3,5
1393,642	-10	-3,474
1395,616	-5,5	-2,957
1397,595	-1	-1,272
1399,569	1	-0,418
1401,549	2	-0,001
1403,523	1,5	-0,066
1405,497	0	-0,538
1407,471	-3	-2,013
1409,451	-7,5	-2,848
1411,425	-10	-3,499
1413,405	-10	-3,492
1415,378	-6	-3,007
1417,358	-3	-2,227
1419,332	0	-0,729
1421,3	1,5	0
1423,28	1,5	-0,017
1425,254	0	-0,422
1427,228	-1,5	-1,563
1429,196	-4,5	-2,414
1431,169	-10	-3,499
1433,143	-10	-3,489
1435,123	-9	-3,41
1437,097	-4,5	-2,557
1439,071	-2	-1,746
1441,045	-0,5	-1,072
1443,019	1,5	0
1444,993	2	-0,009
1446,967	1	-0,103
1448,946	0	-0,859
1450,92	-1,5	-1,619
1452,894	-4,5	-2,407
1454,874	-9,5	-3,227
1456,848	-10	-3,498
1458,828	-9	-3,401
1460,802	-5,5	-2,859
1462,77	-3	-2,067
1464,744	-1	-1,346
1466,723	0	-0,618
1468,691	2	-0,001
1470,671	1,5	-0,008
1472,639	0,5	-0,199
1474,619	-0,5	-0,915
1476,593	-2	-1,708
1478,567	-6	-2,525
1480,541	-10,5	-3,479
1482,515	-10,5	-3,496
1484,494	-9,5	-3,422
1486,468	-4,5	-2,775
1488,436	-2,5	-1,822
1490,41	-0,5	-0,911
1492,39	1,5	-0,076
1494,37	2	-0,004
1496,344	1,5	-0,057
1498,318	0	-0,604
1500,298	-1	-1,432
1502,271	-4	-2,302
1504,245	-9,5	-3,114
1506,225	-10,5	-3,498
1508,199	-10	-3,482
1510,179	-8	-3,325
1512,168	-4,5	-2,575
1514,133	-2	-1,595
1516,113	0	-0,708
1518,093	1,5	0
1520,066	1,5	-0,007
1522,046	1	-0,134
1524,026	0	-0,925
1526	-2,5	-1,842
1527,974	-6,5	-2,728
1529,948	-10	-3,5
1531,928	-10,5	-3,492
1533,902	-8	-3,345
1535,876	-4	-2,545
1537,859	-2	-1,642
1539,823	0	-0,743
1541,797	1,5	-0,001
1543,777	1,5	-0,006
1545,751	1	-0,116
1547,725	0	-0,892
1549,699	-3	-1,868
1551,673	-6,5	-2,737
1553,647	-10	-3,5
1555,62	-10,5	-3,492
1557,594	-9	-3,394
1559,562	-4,5	-2,674
1561,548	-2,5	-1,89
1563,522	-1	-1,075
1565,496	1,5	-0,179
1567,47	1,5	-0,004
1569,444	1,5	-0,054
1571,423	0	-0,646
1573,397	-1,5	-1,531
1575,371	-4,5	-2,406
1577,345	-10,5	-3,32
1579,319	-10,5	-3,497
1581,299	-9,5	-3,456
1583,279	-6	-3,004
1585,253	-3	-2,06
1587,227	-1	-1,19
1589,2	1	-0,416
1591,192	1,5	-0,001
1593,166	1,5	-0,015
1595,14	0,5	-0,21
1597,114	-0,5	-1,142
1599,1	-3	-1,978
1601,074	-7,5	-2,868
1603,054	-10	-3,499
1605,028	-10	-3,489
1606,995	-8	-3,32
1608,969	-4	-2,481
1610,949	-1,5	-1,646
1612,923	0	-0,751
1614,897	1,5	0
1616,871	1,5	-0,006
1618,851	1	-0,104
1620,825	0	-0,842
1622,799	-2,5	-1,748
1624,772	-6	-2,601
1626,752	-10	-3,419
1628,732	-10	-3,496
1630,706	-9,5	-3,418
1632,68	-4,5	-2,718
1634,654	-2	-1,79
1636,634	-0,5	-0,877
1638,614	1,5	-0,035
1640,588	1,5	-0,004
1642,561	1,5	-0,074
1644,535	0	-0,748
1646,515	-2	-1,662
1648,489	-5,5	-2,53
1650,463	-10	-3,496
1652,431	-10,5	-3,494
1654,399	-8	-3,389
1656,373	-4,5	-2,647
1658,358	-1,5	-1,747
1660,332	0	-0,879
1662,312	1,5	0
1664,286	2	-0,006
1666,266	1	-0,086
1668,24	0	-0,807
1670,214	-2,5	-1,751
1672,188	-6,5	-2,658
1674,168	-10	-3,5
1676,141	-10	-3,492
1678,115	-8	-3,376
1680,089	-4	-2,531
1682,069	-1,5	-1,644
1684,043	0	-0,722
1686,017	2	-0,001
1687,997	1,5	-0,008
1689,965	1	-0,134
1691,939	-0,5	-1,029
1693,918	-3	-1,895
1695,892	-7,5	-2,738
1697,866	-10,5	-3,5
1699,846	-10	-3,49
1701,826	-7,5	-3,337
1703,8	-4	-2,47
1705,774	-1,5	-1,521
1707,748	1	-0,556
1709,722	1,5	-0,001
1711,695	1,5	-0,014
1713,675	0	-0,271
1715,649	-1	-1,259
1717,623	-4	-2,198
1719,597	-9,5	-3,11
1721,577	-10	-3,498
1723,551	-10	-3,48
1725,525	-6,5	-3,118
1727,499	-3	-2,216
1729,478	-1	-1,367
1731,458	1	-0,469
1733,438	1,5	-0,001
1735,412	1,5	-0,016
1737,386	0	-0,264
1739,366	-1	-1,195
1741,346	-3	-1,96
1743,32	-8	-2,909
1745,294	-10	-3,499
1747,267	-10	-3,487
1749,241	-7,5	-3,309
1751,221	-4	-2,493
1753,195	-1,5	-1,602
1755,169	0	-0,69
1757,143	2	-0,001
1759,123	1,5	-0,008
1761,091	0,5	-0,148
1763,077	0	-0,948
1765,05	-3	-1,848
1767,03	-7	-2,698
1769,004	-10	-3,499
1770,984	-10	-3,492
1772,964	-8	-3,373
1774,932	-3,5	-2,532
1776,906	-1,5	-1,675
1778,874	0	-0,731
1780,848	2	0
1782,815	2	-0,007
1784,789	1	-0,109
1786,763	0	-0,793
1788,737	-2	-1,663
1790,711	-6,5	-2,628
1792,685	-10	-3,5
1794,665	-10	-3,495
1796,645	-8,5	-3,409
1798,619	-4,5	-2,676
1800,592	-2	-1,753
1802,566	0	-0,857
1804,54	1,5	0
1806,514	1,5	-0,005
1808,488	1	-0,089
1810,468	0	-0,772
1812,436	-2	-1,703
1814,416	-5,5	-2,548
1816,389	-10	-3,439
1818,369	-10	-3,496
1820,343	-9	-3,433
1822,317	-4,5	-2,774
1824,291	-2	-1,882
1826,271	-1	-1,118
1828,245	2	-0,168
1830,213	2	-0,004
1832,193	1,5	-0,057
1834,172	0	-0,614
1836,146	-1,5	-1,557
1838,12	-5,5	-2,479
1840,094	-10	-3,414
1842,074	-10	-3,496
1844,054	-9,5	-3,448
1846,022	-4,5	-2,774
1847,996	-2	-1,856
1849,97	-0,5	-0,939
1851,944	2	0
1853,917	1,5	-0,006
1855,897	1,5	-0,088
1857,871	0	-0,878
1859,845	-2,5	-1,784
1861,825	-6	-2,602
1863,799	-10	-3,5
1865,767	-10	-3,494
1867,741	-8,5	-3,397
1869,72	-4,5	-2,674
1871,694	-1,5	-1,745
1873,674	0	-0,869
1875,648	1,5	0
1877,622	2	-0,006
1879,596	1	-0,098
1881,564	0	-0,89
1883,544	-2,5	-1,782
1885,524	-6,5	-2,691
1887,497	-10	-3,5
1889,465	-10	-3,492
1891,439	-8	-3,374
1893,407	-4	-2,624
1895,387	-2	-1,722
1897,361	0	-0,832
1899,335	2	0
1901,309	2	-0,008
1903,288	1,5	-0,091
1905,256	-0,5	-0,924
1907,236	-2,5	-1,822
1909,21	-6,5	-2,712
1911,19	-10	-3,5
1913,164	-10	-3,492
1915,138	-8	-3,404
1917,112	-4,5	-2,683
1919,092	-1,5	-1,764
1921,059	0	-0,914
1923,039	2	-0,009
1925,013	2	-0,005
1926,993	1,5	-0,078
1928,961	0	-0,803
1930,935	-2	-1,761
1932,915	-6	-2,622
1934,895	-9,5	-3,5
1936,869	-10	-3,494
1938,836	-8,5	-3,403
1940,81	-4,5	-2,626
1942,79	-2	-1,808
1944,764	-0,5	-0,981
1946,738	1,5	-0,186
1948,712	1,5	-0,004
1950,686	1,5	-0,064
1952,66	0	-0,678
1954,628	-1,5	-1,63
1956,601	-5,5	-2,548
1958,587	-10	-3,471
1960,555	-10	-3,495
1962,529	-8,5	-3,399
1964,503	-4	-2,592
1966,477	-1,5	-1,633
1968,445	0	-0,638
1970,419	2	-0,001
1972,393	1,5	-0,015
1974,372	0,5	-0,22
1976,346	-0,5	-1,204
1978,32	-3	-2,143
1980,294	-8,5	-3,008
1982,274	-10	-3,499
1984,254	-9,5	-3,478
1986,222	-6	-3,05
1988,202	-3	-2,195
1990,176	-1	-1,241
1992,149	1,5	-0,3
1994,129	2	-0,002
1996,097	1,5	-0,035
1998,077	0	-0,469
2000,051	-1	-1,37
2002,031	-4,5	-2,294
2004,005	-9,5	-3,192
2005,979	-10	-3,498
2007,953	-9	-3,454
2009,932	-5,5	-2,958
2011,9	-2,5	-2,053
2013,88	-0,5	-1,124
2015,854	2	-0,207
2017,828	2	-0,003
2019,796	1,5	-0,045
2021,77	0	-0,572
2023,744	-1	-1,467
2025,718	-4	-2,369
2027,691	-9,5	-3,243
2029,677	-10	-3,498
2031,651	-9,5	-3,466
2033,625	-5,5	-2,966
2035,599	-2,5	-2,028
2037,573	-0,5	-1,116
2039,547	2	-0,194
2041,521	2	-0,002
2043,501	1,5	-0,037
2045,474	0	-0,567
2047,448	-1	-1,478
2049,422	-4,5	-2,358
2051,396	-9	-3,242
2053,37	-10	-3,498
2055,35	-9,5	-3,466
2057,33	-5,5	-2,982
2059,298	-2,5	-1,998
2061,271	-0,5	-1,117
2063,245	2	-0,107
2065,219	2	-0,004
2067,199	1,5	-0,062
2069,173	0	-0,762
2071,153	-2	-1,708
2073,127	-5,5	-2,593
2075,107	-10	-3,498
2077,081	-10	-3,495
2079,054	-9	-3,414
2081,028	-4,5	-2,808
2083,002	-2	-1,917
2084,976	-0,5	-1,021
2086,956	2	-0,159
2088,936	1,5	-0,003
2090,91	1,5	-0,047
2092,884	0	-0,594
2094,852	-1,5	-1,594
2096,825	-5	-2,523
2098,799	-10	-3,496
2100,773	-9,5	-3,494
2102,747	-8,5	-3,407
2104,721	-4,5	-2,657
2106,701	-2	-1,744
2108,675	0	-0,821
2110,649	1,5	0
2112,623	1,5	-0,007
2114,602	1	-0,096
2116,582	0	-0,827
2118,556	-2	-1,734
2120,53	-6	-2,614
2122,504	-10	-3,5
2124,478	-10	-3,492
2126,446	-8	-3,351
2128,42	-4	-2,446
2130,394	-1,5	-1,571
2132,367	0	-0,606
2134,347	2	-0,001
2136,321	1,5	-0,011
2138,295	0,5	-0,216
2140,269	-0,5	-1,114
2142,243	-3	-2,089
2144,217	-7,5	-2,906
2146,185	-10	-3,499
2148,165	-10	-3,485
2150,144	-7,5	-3,316
2152,118	-3,5	-2,389
2154,092	-1	-1,461
2156,066	1,5	-0,464
2158,04	2	-0,002
2160,014	1,5	-0,024
2161,988	0	-0,318
2163,968	-1	-1,192
2165,936	-3	-2,086
2167,909	-8,5	-3,04
2169,883	-10	-3,499
2171,857	-9,5	-3,478
2173,837	-6	-3,119
2175,811	-3	-2,223
2177,791	-1	-1,372
2179,765	1,5	-0,471
2181,739	2	-0,001
2183,713	1,5	-0,021
2185,686	0	-0,401
2187,66	-1	-1,285
2189,634	-3,5	-2,153
2191,602	-9	-3,064
2193,576	-10	-3,499
2195,55	-9,5	-3,48
2197,524	-6	-3,161
2199,498	-2,5	-2,158
2201,477	-1	-1,282
2203,451	1,5	-0,353
2205,425	1,5	-0,002
2207,399	1,5	-0,032
2209,379	0	-0,55
2211,359	-1,5	-1,421
2213,333	-4,5	-2,386
2215,307	-9,5	-3,275
2217,281	-10	-3,497
2219,26	-9	-3,449
2221,234	-4,5	-2,84
2223,208	-2	-1,912
2225,182	-0,5	-1
2227,156	2	-0,046
2229,13	2	-0,004
2231,104	1,5	-0,069
2233,078	0	-0,692
2235,052	-1,5	-1,55
2237,031	-4,5	-2,374
2239,005	-9,5	-3,384
2240,979	-9,5	-3,497
2242,953	-9	-3,452
2244,927	-4,5	-2,822
2246,913	-2	-1,959
2248,887	-0,5	-1,047
2250,861	1,5	-0,165
2252,835	2	-0,004
2254,808	1,5	-0,051
2256,788	0	-0,678
2258,756	-2	-1,652
2260,73	-6	-2,665
2262,704	-10	-3,5
2264,678	-9,5	-3,492
2266,664	-8	-3,395
2268,638	-4	-2,692
2270,612	-1,5	-1,801
2272,585	0	-0,884
2274,559	1,5	-0,018
2276,533	2	-0,004
2278,501	1	-0,103
2280,469	0	-0,937
2282,443	-2,5	-1,892
2284,423	-6,5	-2,747
2286,397	-10	-3,5
2288,37	-9,5	-3,491
2290,344	-7,5	-3,357
2292,318	-3,5	-2,592
2294,298	-1,5	-1,764
2296,278	-0,5	-0,972
2298,246	2	0
2300,22	2	-0,006
2302,194	1,5	-0,116
2304,174	0	-0,874
2306,147	-2	-1,807
2308,121	-6	-2,713
2310,101	-9,5	-3,5
2312,075	-9,5	-3,492
2314,055	-7	-3,353
2316,035	-3	-2,503
2318,009	-1	-1,565
2319,983	0	-0,727
2321,963	2	-0,001
2323,936	2	-0,012
2325,91	0,5	-0,156
2327,884	0	-1,02
2329,864	-2,5	-1,992
2331,838	-7	-2,888
2333,812	-10	-3,499
2335,786	-9,5	-3,486
2337,76	-7	-3,283
2339,74	-3	-2,381
2341,713	-1	-1,532
2343,687	0	-0,668
2345,667	1,5	-0,001
2347,641	2	-0,011
2349,615	1	-0,159
2351,589	-0,5	-1,063
2353,557	-3	-2,099
2355,531	-8	-2,969
2357,505	-9,5	-3,499
2359,478	-9,5	-3,477
2361,452	-5,5	-3,031
2363,426	-2,5	-2,093
2365,406	-0,5	-1,249
2367,374	1,5	-0,217
2369,348	2	-0,003
2371,322	1,5	-0,058
2373,296	0	-0,713
2375,27	-2	-1,653
2377,243	-5,5	-2,583
2379,217	-9,5	-3,5
2381,191	-9,5	-3,494
2383,165	-7,5	-3,385
2385,157	-4	-2,665
2387,131	-1,5	-1,774
2389,099	0	-0,778
2391,073	2	0
2393,053	1,5	-0,006
2395,026	1	-0,126
2397	0	-0,958
2398,968	-3	-1,948
2400,942	-7	-2,844
2402,916	-9,5	-3,499
2404,89	-9,5	-3,489
2406,864	-6,5	-3,29
2408,844	-3	-2,41
2410,818	-1	-1,434
2412,791	1	-0,457
2414,765	2	-0,002
2416,739	1,5	-0,032
2418,707	0	-0,549
2420,681	-1,5	-1,519
2422,655	-4	-2,384
2424,623	-9,5	-3,37
2426,591	-9,5	-3,496
2428,564	-8,5	-3,43
2430,532	-4	-2,658
2432,506	-1,5	-1,762
2434,486	0	-0,827
2436,46	2	0
2438,44	1,5	-0,006
2440,414	1,5	-0,128
2442,388	-0,5	-1,014
2444,362	-2,5	-1,894
2446,335	-6,5	-2,834
2448,309	-9,5	-3,499
2450,283	-9,5	-3,486
2452,251	-6	-3,207
2454,237	-3	-2,344
2456,211	-1,5	-1,534
2458,185	0	-0,701
2460,159	2	-0,001
2462,127	2	-0,011
2464,1	1	-0,203
2466,08	-0,5	-1,033
2468,054	-2,5	-2,004
2470,028	-7	-2,824
2472,008	-9,5	-3,499
2473,982	-9	-3,486
2475,956	-6,5	-3,26
2477,936	-3	-2,469
2479,91	-1	-1,492
2481,883	1	-0,56
2483,857	2	-0,001
2485,831	1,5	-0,014
2487,805	0,5	-0,285
2489,785	-0,5	-1,198
2491,759	-3	-2,077
2493,739	-7,5	-2,96
2495,713	-9,5	-3,499
2497,693	-9,5	-3,478
2499,666	-6	-3,183
2501,646	-2,5	-2,254
2503,62	-1	-1,341
2505,594	1	-0,466
2507,568	2	-0,002
2509,542	2	-0,021
2511,516	0	-0,398
2513,502	-1	-1,319
2515,476	-3,5	-2,284
2517,45	-8,5	-3,166
2519,423	-9	-3,498
2521,397	-9	-3,466
2523,371	-5,5	-3,092
2525,345	-2,5	-2,172
2527,325	-1	-1,197
2529,299	2	-0,218
2531,267	2	-0,004
2533,241	1,5	-0,052
2535,22	0	-0,605
2537,188	-1	-1,478
2539,162	-4,5	-2,38
2541,136	-9,5	-3,337
2543,11	-9	-3,496
2545,084	-8,5	-3,429
2547,064	-4	-2,723
2549,038	-1,5	-1,759
2551,012	0	-0,777
2552,985	2	-0,001
2554,959	2	-0,008
2556,939	1	-0,117
2558,907	0	-0,984
2560,881	-2,5	-1,922
2562,855	-6,5	-2,84
2564,829	-9,5	-3,499
2566,809	-9	-3,488
2568,782	-6,5	-3,266
2570,762	-3	-2,437
2572,736	-1	-1,642
2574,71	0	-0,7
2576,69	1,5	-0,001
2578,67	2	-0,008
2580,644	1	-0,182
2582,618	0	-1,097
2584,592	-2	-1,93
2586,571	-5,5	-2,715
2588,545	-8,5	-3,5
2590,519	-9	-3,49
2592,493	-6,5	-3,322
2594,473	-3	-2,478
2596,447	-1,5	-1,548
2598,427	0	-0,658
2600,401	2	-0,001
2602,381	1,5	-0,008
2604,354	1	-0,158
2606,328	0	-1,094
2608,302	-2	-1,974
2610,282	-6	-2,915
2612,256	-8,5	-3,499
2614,236	-8,5	-3,486
2616,21	-6	-3,216
2618,19	-2,5	-2,235
2620,164	-1	-1,418
2622,143	1	-0,461
2624,117	2	-0,002
2626,091	1,5	-0,017
2628,065	0,5	-0,36
2630,039	0	-1,225
2632,013	-2,5	-2,184
2633,987	-8	-3,166
2635,961	-9	-3,498
2637,935	-8	-3,466
2639,914	-5	-3,046
2641,888	-2	-2,05
2643,862	-0,5	-1,148
2645,836	2	-0,184
2647,81	2	-0,003
2649,784	1,5	-0,058
2651,758	0	-0,708
2653,732	-1	-1,537
2655,706	-4	-2,457
2657,679	-8,5	-3,376
2659,647	-8,5	-3,496
2661,627	-7,5	-3,431
2663,601	-3,5	-2,706
2665,581	-1,5	-1,782
2667,555	0	-0,833
2669,535	1,5	0
2671,509	1,5	-0,008
2673,482	1	-0,162
2675,456	0	-1,068
2677,43	-2,5	-2,059
2679,404	-6,5	-2,93
2681,378	-8,5	-3,499
2683,352	-8,5	-3,481
2685,332	-5,5	-3,258
2687,306	-2,5	-2,292
2689,28	-0,5	-1,354
2691,253	1,5	-0,462
2693,221	2	-0,002
2695,201	1,5	-0,02
2697,175	0,5	-0,328
2699,143	-0,5	-1,296
2701,117	-3	-2,208
2703,091	-7,5	-3,084
2705,065	-8	-3,498
2707,033	-7,5	-3,473
2709,006	-4,5	-3,098
2710,986	-2	-2,197
2712,96	-0,5	-1,259
2714,928	1,5	-0,359
2716,896	2	-0,002
2718,864	1,5	-0,041
2720,838	0	-0,543
2722,812	-1	-1,493
2724,786	-3	-2,363
2726,759	-7,5	-3,295
2728,733	-7,5	-3,497
2730,707	-7	-3,43
2732,687	-3	-2,683
2734,661	-1	-1,744
2736,635	0	-0,838
2738,609	2	0
2740,583	2	-0,005
2742,557	1,5	-0,102
2744,53	0	-0,939
2746,498	-1,5	-1,903
2748,472	-5	-2,829
2750,446	-7,5	-3,499
2752,42	-7,5	-3,486
2754,406	-5	-3,275
2756,374	-2	-2,31
2758,348	-0,5	-1,388
2760,322	1,5	-0,449
2762,301	1,5	-0,001
2764,275	2	-0,021
2766,243	0,5	-0,28
2768,217	0	-1,147
2770,185	-2,5	-2,137
2772,153	-6,5	-3,048
2774,139	-7,5	-3,499
2776,107	-7	-3,472
2778,081	-4	-3,006
2780,06	-1,5	-2,044
2782,034	-0,5	-1,09
2784,008	1,5	-0,094
2785,988	1,5	-0,003
2787,956	1,5	-0,077
2789,93	0	-0,83
2791,904	-1,5	-1,768
2793,878	-4,5	-2,676
2795,852	-7,5	-3,5
2797,831	-7,5	-3,494
2799,799	-5,5	-3,374
2801,779	-2,5	-2,507
2803,753	-1	-1,553
2805,727	0,5	-0,572
2807,701	2	-0,001
2809,675	2	-0,02
2811,649	0,5	-0,309
2813,629	0	-1,153
2815,602	-2	-2,018
2817,576	-6	-2,993
2819,55	-7,5	-3,499
2821,53	-7	-3,48
2823,504	-4	-3,197
2825,484	-1,5	-2,278
2827,458	-0,5	-1,309
2829,432	1	-0,439
2831,405	2	-0,002
2833,379	2	-0,022
2835,353	0,5	-0,405
2837,327	0	-1,258
2839,301	-2,5	-2,213
2841,269	-7	-3,221
2843,237	-7	-3,497
2845,211	-6	-3,431
2847,179	-3	-2,733
2849,158	-1,5	-1,81
2851,132	0	-0,828
2853,106	1,5	-0,001
2855,08	2	-0,009
2857,06	1	-0,175
2859,034	0	-0,95
2861,008	-1	-1,788
2862,982	-4,5	-2,748
2864,956	-7	-3,499
2866,935	-7	-3,487
2868,915	-5	-3,277
2870,889	-2	-2,427
2872,863	-0,5	-1,469
2874,831	1	-0,532
2876,805	1,5	-0,001
2878,773	1,5	-0,018
2880,747	0,5	-0,427
2882,715	-0,5	-1,438
2884,688	-3	-2,408
2886,662	-7	-3,284
2888,636	-7	-3,497
2890,61	-6	-3,432
2892,584	-3	-2,697
2894,564	-1,5	-1,831
2896,538	0	-0,924
2898,512	1,5	-0,036
2900,486	1,5	-0,004
2902,459	1,5	-0,076
2904,433	0	-0,788
2906,413	-1	-1,719
2908,381	-3,5	-2,659
2910,361	-7	-3,498
2912,335	-7	-3,494
2914,309	-5,5	-3,382
2916,283	-3	-2,56
2918,257	-1	-1,722
2920,23	0	-0,742
2922,216	1,5	0
2924,19	2	-0,01
2926,17	1	-0,172
2928,144	0	-1,104
2930,118	-1,5	-2,038
2932,092	-5	-2,913
2934,072	-7	-3,499
2936,045	-7	-3,48
2938,019	-4	-3,125
2939,987	-1,5	-2,13
2941,961	-0,5	-1,158
2943,929	2	-0,146
2945,909	1,5	-0,003
2947,883	1,5	-0,074
2949,857	0	-0,746
2951,831	-1	-1,748
2953,81	-4	-2,651
2955,784	-7	-3,5
2957,764	-7	-3,49
2959,738	-5,5	-3,346
2961,712	-2	-2,393
2963,686	-0,5	-1,472
2965,66	0,5	-0,559
2967,634	2	-0,001
2969,614	1,5	-0,012
2971,587	1	-0,211
2973,567	0	-1,168
2975,541	-2	-2,143
2977,521	-6	-3,064
2979,495	-6,5	-3,499
2981,475	-6,5	-3,474
2983,449	-4	-3,053
2985,417	-2	-2,175
2987,391	-0,5	-1,354
2989,364	1,5	-0,4
2991,338	2	-0,002
2993,312	1,5	-0,035
2995,292	0,5	-0,579
2997,266	-0,5	-1,458
2999,24	-2,5	-2,472
3001,22	-7	-3,496
3003,188	-7	-3,495
3005,162	-6	-3,412
3007,135	-2,5	-2,586
3009,109	-1	-1,7
3011,083	0	-0,875
3013,057	1,5	0
3015,031	1,5	-0,006
3017,005	1	-0,069
3018,973	0	-0,663
3020,947	-0,5	-1,373
3022,921	-2,5	-2,299
3024,894	-6,5	-3,226
3026,88	-7	-3,498
3028,848	-6,5	-3,458
3030,828	-3	-2,823
3032,802	-1,5	-1,862
3034,776	0	-0,876
3036,75	1,5	0
3038,724	2	-0,007
3040,698	1	-0,152
3042,671	0	-1,049
3044,645	-1	-1,944
3046,619	-4,5	-2,904
3048,593	-6,5	-3,499
3050,561	-6,5	-3,474
3052,535	-4	-3,013
3054,509	-1,5	-2,117
3056,483	-0,5	-1,168
3058,457	1,5	-0,2
3060,43	2	-0,004
3062,41	1,5	-0,062
3064,384	0	-0,723
3066,358	-1	-1,65
3068,332	-3	-2,604
3070,306	-7	-3,5
3072,28	-7	-3,492
3074,266	-5	-3,375
3076,239	-2,5	-2,507
3078,213	-1	-1,542
3080,187	0,5	-0,577
3082,161	2	-0,001
3084,135	1,5	-0,016
3086,109	0,5	-0,242
3088,083	0	-1,135
3090,063	-1	-1,905
3092,037	-4	-2,833
3094,011	-6,5	-3,499
3095,978	-6,5	-3,492
3097,952	-4,5	-3,355
3099,926	-2,5	-2,506
3101,906	-1	-1,567
3103,874	0,5	-0,545
3105,848	1,5	-0,001
3107,828	1,5	-0,016
3109,802	0,5	-0,3
3111,769	0	-1,274
3113,749	-1,5	-2,144
3115,723	-6	-3,1
3117,697	-6,5	-3,498
3119,671	-6	-3,465
3121,645	-3,5	-3,077
3123,619	-1,5	-2,203
3125,605	-0,5	-1,292
3127,573	1,5	-0,334
3129,547	1,5	-0,002
3131,514	1,5	-0,043
3133,494	0	-0,599
3135,462	-1	-1,589
3137,436	-3	-2,544
3139,41	-6	-3,5
3141,384	-6	-3,495
3143,364	-5,5	-3,423
3145,332	-2,5	-2,689
3147,305	-1	-1,698
3149,273	0	-0,825
3151,253	1,5	0
3153,227	1,5	-0,008
3155,201	1	-0,152
3157,175	0	-1,065
3159,143	-1,5	-2,045
3161,123	-5	-2,954
3163,103	-6	-3,499
3165,076	-6	-3,484
3167,05	-4,5	-3,311
3169,024	-2	-2,374
3170,998	-1	-1,504
3172,972	0,5	-0,534
3174,946	1,5	-0,001
3176,92	1,5	-0,024
3178,894	0	-0,421
3180,868	-0,5	-1,324
3182,847	-2	-2,253
3184,815	-6	-3,212
3186,795	-6	-3,498
3188,769	-5,5	-3,462
3190,737	-2,5	-2,882
3192,717	-1	-1,999
3194,691	0	-1,082
3196,665	2	-0,096
3198,638	1,5	-0,004
3200,612	1	-0,076
3202,586	0	-0,844
3204,56	-1	-1,728
3206,54	-3	-2,574
3208,514	-6	-3,483
3210,488	-5,5	-3,495
3212,456	-4,5	-3,376
3214,436	-2	-2,542
3216,409	-0,5	-1,588
3218,377	1,5	-0,582
3220,351	1,5	-0,001
3222,331	1,5	-0,018
3224,305	0,5	-0,332
3226,273	0	-1,305
3228,247	-1,5	-2,143
3230,221	-5	-3,078
3232,195	-6	-3,498
3234,162	-5,5	-3,468
3235,536	1,5	0