File: ensaios_Ciclicos/_60perc/_2gap/entrada/_5.txt
Time (s)	Load (N)	Displacement (mm)
108,365	-3	-1,385
109,133	0	-0,637
109,901	-14	-3,494
110,669	0	-0,508
111,443	-3	-1,581
112,217	-14	-3,37
112,985	1,5	-0,026
113,752	-7	-2,498
114,527	-9	-2,474
115,3	2	-0,002
116,068	-11	-3,301
116,842	-4,5	-1,611
117,61	1,5	-0,351
118,39	-14	-3,488
119,164	-0,5	-0,736
119,938	-2,5	-1,371
120,712	-14,5	-3,5
121,486	1,5	-0,05
122,254	-5,5	-2,248
123,022	-11	-2,69
123,79	2	-0,003
124,564	-10	-3,096
125,332	-6	-1,917
126,1	2	0
126,868	-13,5	-3,457
127,636	-2	-1,11
128,404	-0,5	-0,823
129,178	-14	-3,498
129,945	0	-0,252
130,719	-3	-1,653
131,487	-14	-3,348
132,261	1,5	-0,023
133,029	-6	-2,479
133,797	-9,5	-2,454
134,571	2	-0,002
135,339	-10,5	-3,283
136,113	-4,5	-1,667
136,881	1,5	-0,22
137,649	-13,5	-3,479
138,417	-1,5	-0,875
139,185	-1	-0,978
139,965	-14	-3,498
140,733	0,5	-0,149
141,507	-4	-1,844
142,275	-13,5	-3,106
143,043	1,5	-0,012
143,817	-7	-2,617
144,585	-8	-2,29
145,353	1,5	-0,001
146,121	-11	-3,364
146,895	-4	-1,516
147,662	1	-0,357
148,436	-13,5	-3,487
149,204	-0,5	-0,774
149,972	-1,5	-1,126
150,74	-14	-3,499
151,508	1	-0,132
152,288	-4	-1,865
153,056	-13,5	-3,127
153,83	2	-0,011
154,598	-7	-2,703
155,372	-7,5	-2,222
156,152	1,5	-0,001
156,926	-12,5	-3,43
157,7	-2,5	-1,298
158,468	0	-0,665
159,248	-13,5	-3,496
160,028	0	-0,367
160,796	-3	-1,558
161,57	-13,5	-3,432
162,338	1,5	-0,03
163,112	-6	-2,46
163,886	-9	-2,486
164,659	2	-0,002
165,434	-10,5	-3,302
166,201	-4	-1,668
166,969	1,5	-0,243
167,749	-13,5	-3,484
168,517	-1	-0,853
169,294	-1,5	-1,11
170,059	-13,5	-3,499
170,827	1	-0,099
171,602	-4,5	-2,037
172,375	-11,5	-2,876
173,143	2	-0,006
173,917	-8	-2,98
174,686	-6	-1,986
175,453	1,5	0
176,233	-13	-3,462
177,007	-1,5	-1,056
177,775	-0,5	-0,941
178,549	-13,5	-3,498
179,317	0,5	-0,174
180,091	-3,5	-1,85
289,476	-13	-3,499
290,25	1	-0,136
291,024	-3,5	-1,911
291,798	-11,5	-3,009
292,566	2	-0,008
293,34	-7,5	-2,847
294,114	-5,5	-2,109
294,888	1,5	0
295,662	-12,5	-3,461
296,436	-1,5	-1,132
297,21	0	-0,809
297,984	-13	-3,498
298,758	0,5	-0,244
299,544	-3	-1,734
300,318	-12,5	-3,192
301,092	2	-0,014
301,86	-6	-2,626
302,634	-7	-2,313
303,408	2	-0,001
304,182	-11	-3,379
304,955	-2,5	-1,432
305,723	1	-0,437
306,497	-13	-3,49
307,271	-0,5	-0,68
308,039	-2,5	-1,347
308,813	-13	-3,499
309,587	1,5	-0,061
310,361	-4,5	-2,186
311,13	-10,5	-2,779
311,909	2	-0,004
312,683	-8,5	-3,02
313,457	-5,5	-2,016
314,231	2	0
315,005	-12	-3,453
315,773	-1,5	-1,206
316,547	0	-0,76
317,315	-13	-3,496
318,083	0	-0,354
318,851	-3	-1,637
319,625	-13	-3,349
320,399	1,5	-0,023
321,167	-5,5	-2,462
321,94	-7,5	-2,425
322,714	1,5	-0,002
323,489	-9,5	-3,344
324,268	-3	-1,445
325,042	1	-0,485
325,816	-12,5	-3,492
326,59	0	-0,563
327,364	-2,5	-1,362
328,144	-13	-3,5
328,918	1,5	-0,048
329,692	-5	-2,241
330,46	-9,5	-2,75
331,228	1,5	-0,004
331,996	-8	-2,996
332,77	-5	-1,961
333,544	1,5	0
334,318	-12	-3,461
335,092	-1	-1,073
335,872	-0,5	-0,886
336,64	-13	-3,498
337,414	0,5	-0,24
338,188	-3	-1,695
338,956	-12,5	-3,291
339,729	2	-0,02
340,503	-5,5	-2,509
341,277	-7	-2,352
342,051	2	-0,001
342,825	-10,5	-3,356
343,599	-3	-1,47
344,367	1,5	-0,505
345,141	-13	-3,492
345,915	0	-0,571
346,689	-2	-1,36
347,457	-12,5	-3,499
348,231	1,5	-0,055
349,005	-4,5	-2,196
349,785	-9,5	-2,747
350,553	2	-0,004
351,327	-8	-3,055
352,101	-4,5	-1,906
352,869	2	-0,009
353,637	-12	-3,462
354,411	-1	-1,09
355,179	0	-0,8
355,959	-12,5	-3,498
356,732	0,5	-0,207
357,5	-3	-1,718
358,274	-12	-3,202
359,042	1,5	-0,016
359,822	-5,5	-2,573
360,59	-7	-2,422
361,364	2	-0,002
543,196	-4,5	-1,929
543,964	2	0
544,732	-11,5	-3,458
545,506	-1	-1,097
546,28	-0,5	-0,821
547,054	-12	-3,498
547,822	0,5	-0,294
548,596	-2,5	-1,635
549,363	-12	-3,349
550,131	2	-0,025
550,905	-5	-2,411
551,679	-7	-2,53
552,453	2	-0,002
553,221	-9	-3,207
553,995	-3	-1,689
554,769	2	-0,26
555,537	-12	-3,482
556,317	0	-0,84
557,091	-1,5	-1,079
557,865	-12	-3,499
558,639	1,5	-0,12
559,413	-3	-1,95
560,181	-10	-3,009
560,955	2	-0,008
561,723	-6	-2,751
562,491	-5,5	-2,219
563,265	2	-0,001
564,045	-10,5	-3,407
564,813	-2	-1,397
565,587	1	-0,507
566,354	-12	-3,491
567,129	0	-0,577
567,902	-2	-1,321
568,676	-12	-3,499
569,45	1,5	-0,058
570,218	-4	-2,104
570,992	-9,5	-2,833
571,766	2	-0,005
572,534	-7	-2,922
573,308	-4	-1,986
574,082	2	0
574,85	-11	-3,452
575,624	-1	-1,118
576,404	-0,5	-0,885
577,172	-12	-3,498
577,946	1	-0,23
578,72	-3	-1,72
579,488	-11,5	-3,189
580,262	2	-0,014
581,036	-6	-2,656
581,804	-5,5	-2,34
582,572	2	-0,001
583,34	-10	-3,34
584,107	-2,5	-1,569
584,881	1,5	-0,391
585,655	-12	-3,489
586,423	0	-0,703
587,197	-2	-1,254
587,971	-12	-3,499
588,739	1,5	-0,077
589,513	-4	-2,136
590,287	-9	-2,787
591,061	2	-0,004
591,829	-7,5	-3,022
592,603	-4	-1,957
593,371	2	0
594,151	-11,5	-3,463
594,925	-0,5	-1,086
595,693	-1	-0,945
596,473	-12	-3,498
597,247	1	-0,188
598,015	-3	-1,765
598,789	-11,5	-3,16
599,563	2	-0,012
600,337	-6	-2,646
601,111	-6	-2,332
601,884	2	-0,001
602,652	-10	-3,372
603,42	-2	-1,531
604,194	1	-0,437
604,962	-12	-3,489
605,736	0	-0,668
606,51	-1,5	-1,22
607,278	-12	-3,499
608,055	1,5	-0,081
608,82	-3,5	-2,049
609,588	-10	-2,958
610,362	2	-0,006
611,136	-7	-2,866
611,916	-4,5	-2,019
612,69	2	-0,002
613,464	-11,5	-3,463
614,232	-1	-1,135
615	0	-0,77
869,133	-11	-3,481
869,901	0	-0,861
870,675	-1	-1,106
871,455	-11,5	-3,499
872,223	1,5	-0,092
872,997	-3	-2,036
873,765	-9,5	-2,962
874,539	2	-0,007
875,307	-6	-2,852
876,093	-4	-1,992
876,867	2	0
877,635	-10,5	-3,447
878,409	-1	-1,199
879,177	-0,5	-0,872
879,951	-11,5	-3,498
880,719	1	-0,232
881,492	-2,5	-1,713
882,266	-11	-3,242
883,034	2	-0,018
883,808	-5	-2,559
884,576	-5,5	-2,394
885,35	2	-0,001
886,118	-8,5	-3,28
886,892	-2,5	-1,667
887,66	2	-0,169
888,44	-11	-3,48
889,214	0	-0,896
889,982	-1	-1,005
890,756	-11	-3,498
891,524	1	-0,164
892,298	-3	-1,818
893,066	-11	-3,159
893,834	2	-0,014
894,608	-5	-2,57
895,376	-6,5	-2,437
896,15	2	-0,002
896,918	-9	-3,29
897,686	-3	-1,674
898,453	1,5	-0,24
899,227	-11,5	-3,482
900,001	-0,5	-0,788
900,775	-1,5	-1,108
901,549	-11,5	-3,499
902,317	1	-0,106
903,091	-3	-2,012
903,865	-9,5	-2,939
904,639	2	-0,006
905,407	-6	-2,847
906,181	-4,5	-2,129
906,955	2	-0,001
907,723	-10	-3,431
908,491	-1,5	-1,313
909,259	0,5	-0,581
910,033	-11	-3,494
910,801	0	-0,508
911,575	-1,5	-1,391
912,349	-11,5	-3,5
913,117	2	-0,049
913,891	-3,5	-2,269
914,659	-7,5	-2,664
915,433	2	-0,003
916,207	-7,5	-3,173
916,974	-3	-1,828
917,748	2	-0,102
918,522	-11	-3,474
919,29	-0,5	-0,946
920,07	-1	-1,062
920,838	-11,5	-3,498
921,612	1	-0,172
922,38	-2,5	-1,787
923,154	-10,5	-3,11
923,922	2	-0,012
924,696	-5,5	-2,682
925,47	-5	-2,263
926,238	2	-0,001
927,012	-9,5	-3,372
927,78	-2	-1,533
928,554	1,5	-0,408
929,322	-11	-3,488
930,096	0	-0,676
930,87	-1,5	-1,302
931,638	-11,5	-3,499
932,412	1,5	-0,054
933,18	-3,5	-2,176
933,947	-8,5	-2,756
934,715	2	-0,004
935,483	-6,5	-3
936,257	-3,5	-1,968
937,025	2	0
937,799	-10,5	-3,449
938,567	-1	-1,214
939,347	0	-0,772
940,121	-11	-3,497
940,895	0	-0,303
941,669	-2,5	-1,745
942,437	-11	-3,225
943,211	2	-0,016
943,985	-5	-2,569
944,753	-5,5	-2,386
945,527	2	-0,002
946,295	-9	-3,328
947,069	-2,5	-1,566
947,843	1,5	-0,385
948,617	-11,5	-3,488
949,385	0	-0,704
950,159	-1,5	-1,327
950,932	-11	-3,499
951,706	1,5	-0,056
952,48	-3,5	-2,151
953,248	-9	-2,852
954,022	2	-0,005
954,796	-7	-2,996
955,564	-4	-1,937
956,338	2	0
957,112	-10,5	-3,461
957,88	-0,5	-1,096
958,648	0	-0,873
959,422	-11,5	-3,498
960,196	1	-0,221
960,964	-2,5	-1,762
961,738	-10,5	-3,125
962,506	2	-0,012
963,28	-5,5	-2,666
964,054	-5	-2,268
964,828	2	-0,001
965,602	-10	-3,426
966,37	-1,5	-1,352
967,144	0	-0,7
967,918	-11	-3,496
968,691	0	-0,387
969,459	-2	-1,562
970,233	-11	-3,413
971,007	2	-0,027
971,781	-4,5	-2,511
972,555	-6	-2,465
973,323	2	-0,002
974,097	-8,5	-3,296
974,865	-2,5	-1,649
975,639	2	-0,219
976,413	-11	-3,481
977,187	0	-0,805
977,961	-1	-1,12
978,729	-11	-3,499
979,503	1	-0,108
980,283	-3	-2,092
981,051	-8,5	-2,889
981,825	2	-0,005
982,593	-6,5	-2,961
983,367	-4	-2,005
984,141	2	0
984,915	-10,5	-3,45
985,683	-1	-1,186
986,456	0	-0,76
987,224	-11	-3,497
988,004	0,5	-0,315
988,778	-2	-1,626
989,546	-11,5	-3,4
990,32	1,5	-0,026
991,088	-4,5	-2,426
991,862	-7	-2,552
992,63	2	-0,002
993,404	-7,5	-3,208
994,178	-2,5	-1,69
994,946	2	-0,268
995,72	-11	-3,484
996,488	0	-0,821
997,262	-1	-1,115
998,036	-11	-3,499
998,81	1,5	-0,097
999,578	-3	-1,966
1000,358	-9	-2,891
1001,132	2	-0,006
1001,9	-6	-2,902
1002,674	-4	-2,039
1003,442	2	0
1004,215	-10,5	-3,446
1004,983	-1	-1,191
1005,757	0	-0,728
1006,525	-11,5	-3,496
1007,299	0	-0,387
1008,073	-2	-1,542
1008,841	-11	-3,479
1009,615	1,5	-0,032
1010,383	-3,5	-2,321
1011,157	-7	-2,634
1011,937	2	-0,002
1012,705	-7,5	-3,181
1121,923	-4	-2,275
1122,703	-6,5	-2,672
1123,471	2	-0,003
1124,251	-7	-3,086
1125,019	-3	-1,9
1125,793	2	-0,022
1126,566	-10,5	-3,467
1127,334	-0,5	-0,997
1128,108	-0,5	-0,961
1128,876	-11	-3,498
1129,65	1	-0,15
1130,418	-2	-1,792
1131,192	-10,5	-3,149
1131,96	2	-0,014
1132,734	-4,5	-2,682
1133,508	-5	-2,258
1134,282	2	-0,001
1135,05	-9	-3,386
1135,824	-1,5	-1,407
1136,592	1,5	-0,551
1137,366	-11	-3,493
1138,134	0	-0,597
1138,914	-1,5	-1,347
1139,682	-11	-3,5
1140,45	1,5	-0,056
1141,224	-3	-2,153
1141,992	-8,5	-2,796
1142,76	2	-0,005
1143,528	-6	-2,935
1144,301	-4	-2,012
1145,069	2	0
1145,843	-10	-3,446
1146,611	-1	-1,206
1147,385	0	-0,815
1148,153	-11	-3,497
1148,927	0,5	-0,262
1149,701	-2	-1,645
1150,475	-10,5	-3,295
1151,243	2	-0,022
1152,017	-4	-2,5
1152,785	-6	-2,484
1153,559	2	-0,002
1154,333	-7,5	-3,303
1155,101	-2,5	-1,612
1155,875	2	-0,306
1156,643	-10,5	-3,484
1157,417	0	-0,744
1736,618	-8	-2,783
1737,386	2	-0,004
1738,154	-6	-3,101
1738,928	-3	-1,828
1739,702	1,5	-0,248
1740,475	-10,5	-3,482
1741,243	-0,5	-0,866
1742,011	-1	-1,114
1742,779	-10,5	-3,499
1743,547	1	-0,125
1744,321	-3	-2,043
1745,095	-8,5	-2,878
1745,863	2	-0,006
1746,631	-6	-3,006
1747,405	-3	-1,884
1748,173	2	-0,169
1748,947	-10	-3,478
1749,715	-0,5	-0,947
1750,489	-1	-1,122
1751,257	-10,5	-3,499
1752,037	1	-0,089
1752,805	-3	-2,086
1753,573	-8,5	-2,886
1754,341	2	-0,006
1755,115	-5,5	-3,007
1755,889	-3	-1,901
1756,656	2	-0,168
1757,43	-10	-3,478
1758,198	-0,5	-0,936
1758,966	-1	-1,118
1759,734	-10,5	-3,499
1760,508	1	-0,099
1761,276	-2,5	-2,051
1762,044	-8	-2,924
1762,812	2	-0,007
1763,586	-6	-3
1764,354	-3	-1,918
1765,128	2	-0,101
1765,896	-10	-3,471
1766,664	-0,5	-0,978
1767,438	-1	-1,112
1768,212	-10,5	-3,499
1768,986	1,5	-0,092
1769,754	-3	-2,149
1770,528	-7,5	-2,798
1771,296	2	-0,005
1772,07	-6	-3,081
1772,838	-3	-1,89
1773,612	2	-0,212
1774,379	-10	-3,479
1775,153	-0,5	-0,832
1775,927	-1	-1,252
1776,701	-10,5	-3,499
1777,469	1,5	-0,078
1778,237	-2,5	-2,138
1779,011	-7,5	-2,813
1779,785	2	-0,004
1780,559	-6,5	-3,163
1781,327	-2,5	-1,834
1782,101	2	-0,237
1782,869	-10,5	-3,481
1783,643	0	-0,844
1784,411	-1	-1,21
1785,191	-10,5	-3,499
1785,959	1,5	-0,08
1786,727	-2,5	-2,178
1787,501	-7	-2,783
1788,269	2,5	-0,004
1789,037	-5	-3,043
1789,805	-3	-1,981
1790,579	2	-0,052
1791,346	-10	-3,467
1792,12	-0,5	-0,991
1792,888	-0,5	-1,011
1793,662	-10,5	-3,499
1794,43	1	-0,128
1795,198	-2,5	-1,987
1795,972	-9	-2,948
1796,74	2	-0,007
1797,514	-5	-2,965
1798,282	-3	-2,004
1799,056	2	-0,007
1799,83	-10	-3,465
1800,604	-0,5	-1,029
1801,372	-0,5	-0,994
1802,14	-10	-3,498
1802,908	1	-0,164
1803,682	-2,5	-1,95
1804,456	-9	-2,97
1805,224	2	-0,008
1805,998	-5,5	-2,944
1806,766	-3,5	-2,043
1807,54	2	-0,052
1808,308	-10	-3,467
1809,081	-0,5	-1,01
1809,849	-0,5	-1,028
1810,623	-10,5	-3,499
1811,391	1	-0,142
1812,165	-2,5	-1,981
1812,933	-9,5	-2,995
1813,701	2	-0,008
1814,475	-5	-2,866
1815,243	-4	-2,146
1816,017	1,5	0
1816,785	-9,5	-3,44
1817,559	-0,5	-1,227
1818,339	0	-0,898
1819,107	-10,5	-3,498
1819,875	0	-0,238
1820,649	-2	-1,842
1821,417	-9,5	-3,155
1822,191	2	-0,012
1822,959	-4,5	-2,696
1823,733	-4,5	-2,192
1824,501	2	0
1825,269	-9,5	-3,443
1826,036	-0,5	-1,188
1826,816	0	-0,826
1827,584	-10,5	-3,497
1828,358	0,5	-0,291
1829,132	-2	-1,762
1829,9	-10	-3,183
1830,674	2	-0,014
1831,442	-4,5	-2,712
1832,21	-4,5	-2,211
1832,984	2	-0,001
1833,752	-9	-3,432
1834,526	-1	-1,296
1835,294	0,5	-0,722
1836,074	-10,5	-3,497
1836,842	0,5	-0,286
1837,616	-2	-1,773
1838,384	-9,5	-3,134
1839,152	2	-0,013
1839,926	-4,5	-2,732
1840,694	-4,5	-2,211
1841,468	2	-0,001
1842,236	-9,5	-3,427
1843,01	-1	-1,29
1843,777	0	-0,69
1844,545	-10	-3,496
1845,313	0	-0,397
1846,087	-1,5	-1,623
1846,855	-10	-3,339
1847,623	2	-0,022
1848,397	-4,5	-2,552
1849,165	-5	-2,356
1849,939	2	-0,001
1850,707	-8,5	-3,389
1851,481	-1,5	-1,452
1852,255	0,5	-0,564
1853,029	-10	-3,493
1853,797	0	-0,483
1854,571	-1,5	-1,544
1855,339	-10	-3,466
1856,119	2	-0,028
1856,887	-3,5	-2,459
1857,655	-5	-2,486
1858,429	2	-0,002
1859,197	-8	-3,32
1859,977	-1,5	-1,541
1860,745	1,5	-0,492
1861,518	-10,5	-3,491
1862,286	0	-0,592
1863,06	-1,5	-1,482
1863,834	-10	-3,438
1864,608	1,5	-0,028
1865,376	-4	-2,467
1866,144	-5,5	-2,461
1866,918	2	-0,002
1867,686	-8	-3,362
1868,46	-1,5	-1,466
1869,228	1,5	-0,53
1870,008	-10,5	-3,493
1870,776	0	-0,465
1871,55	-1,5	-1,592
1872,324	-10,5	-3,328
1873,092	2	-0,023
1873,866	-3,5	-2,535
1874,634	-5	-2,436
1875,408	2	-0,001
1876,176	-8,5	-3,371
1876,95	-1,5	-1,516
1877,718	1	-0,54
1878,491	-10,5	-3,493
1879,259	0	-0,583
1880,033	-1,5	-1,444
1880,801	-10,5	-3,497
1881,569	1,5	-0,036
1882,343	-3,5	-2,44
1883,117	-5,5	-2,516
1883,885	2	-0,002
1884,653	-7,5	-3,299
1885,427	-2	-1,609
1886,195	1,5	-0,407
1886,969	-10	-3,489
1887,743	0	-0,657
1888,511	-1,5	-1,408
1889,279	-10,5	-3,5
1890,053	2	-0,043
1890,821	-3	-2,294
1891,589	-6,5	-2,654
1892,363	2	-0,003
1893,131	-7	-3,2
1893,905	-2	-1,687
1894,673	1,5	-0,324
1895,447	-10	-3,486
1896,221	0	-0,729
1896,988	-1	-1,315
1897,756	-10,5	-3,499
1898,524	1,5	-0,061
1899,298	-3	-2,216
1900,066	-6,5	-2,697
1900,84	2	-0,003
1901,608	-6,5	-3,176
1902,382	-2,5	-1,792
1903,15	1,5	-0,288
1903,924	-10	-3,484
1904,692	0	-0,805
1905,46	-1	-1,174
1906,228	-10,5	-3,499
1906,996	1,5	-0,077
1907,77	-3	-2,156
1908,538	-7,5	-2,788
1909,312	2	-0,004
1910,08	-6	-3,096
1910,848	-3	-1,849
1911,616	2	-0,17
1912,396	-10	-3,478
1913,164	0	-0,876
1913,932	-1	-1,167
1914,705	-10	-3,499
1915,473	1,5	-0,089
1916,247	-2,5	-2,1
2133,837	-0,5	-1,248
2134,605	0	-0,784
2135,379	-10,5	-3,497
2136,153	0,5	-0,263
2136,921	-2	-1,732
2137,689	-10	-3,242
2138,469	2	-0,015
2139,237	-4,5	-2,636
2140,011	-4,5	-2,299
2140,785	2	-0,001
2141,552	-8,5	-3,415
2142,327	-1	-1,298
2143,094	0,5	-0,745
2143,868	-10	-3,497
2144,636	0,5	-0,35
2145,404	-1,5	-1,689
2146,178	-10	-3,227
2146,946	2	-0,017
2147,726	-4,5	-2,719
2148,494	-4,5	-2,252
2149,268	2	-0,001
2150,036	-9	-3,411
2150,804	-1	-1,307
2151,578	0	-0,746
2152,352	-10	-3,497
2153,126	0,5	-0,314
2153,894	-1,5	-1,719
2154,668	-10	-3,213
2155,436	2	-0,017
2156,21	-4	-2,65
2156,978	-4,5	-2,31
2157,746	2	-0,001
2158,519	-8,5	-3,416
2159,3	-1	-1,273
2160,073	0,5	-0,731
2160,841	-10	-3,496
2161,615	0	-0,369
2162,383	-1,5	-1,652
2163,151	-10	-3,305
2163,925	1,5	-0,02
2164,693	-3,5	-2,555
2165,467	-4,5	-2,296
2166,235	2	-0,001
2167,009	-8	-3,395
2167,777	-1	-1,405
2168,551	1	-0,652
2169,319	-10	-3,495
2170,087	0	-0,445
2170,861	-1,5	-1,576
2171,635	-10	-3,349
2172,409	2	-0,022
2173,177	-4	-2,533
2173,951	-5	-2,408
2174,719	2	-0,001
2175,493	-8	-3,353
2176,266	-1,5	-1,534
2177,034	1,5	-0,466
2177,808	-10	-3,491
2178,576	0	-0,644
2179,35	-1	-1,431
2180,118	-10	-3,5
2180,892	1,5	-0,047
2181,66	-3	-2,31
2182,428	-6,5	-2,666
2183,196	2	-0,003
2183,97	-6	-3,162
2184,744	-2	-1,713
2185,512	2	-0,264
2186,28	-9,5	-3,482
2187,048	0	-0,901
2187,828	-0,5	-1,135
2188,596	-10	-3,499
2189,364	1,5	-0,107
2190,138	-2	-2,02
2190,906	-8	-2,935
2191,68	2	-0,006
2192,448	-4,5	-2,921
2193,216	-3	-2,033
2193,983	2	0
2194,757	-9	-3,451
2195,525	-0,5	-1,181
2196,299	0	-0,866
2197,073	-10	-3,498
2197,841	0,5	-0,22
2198,615	-2	-1,877
2199,383	-9	-3,055
2200,157	2	-0,009
2200,931	-4,5	-2,888
2201,699	-3	-2,039
2202,467	2	-0,003
2203,235	-9,5	-3,46
2204,009	-0,5	-1,057
2204,777	-0,5	-0,981
2205,551	-10	-3,498
2206,319	1	-0,14
2207,087	-2	-1,914
2207,861	-8,5	-2,969
2208,629	2	-0,008
2209,403	-5	-2,897
2210,171	-3	-2,041
2210,944	2	0
2211,718	-9	-3,459
2212,487	-0,5	-1,109
2213,254	-0,5	-0,882
2214,022	-10	-3,498
2214,796	1	-0,19
2215,564	-1,5	-1,836
2216,338	-9,5	-3,095
2217,106	2	-0,011
2217,88	-4,5	-2,809
2218,648	-3,5	-2,128
2219,416	2	-0,001
2220,19	-9	-3,44
2220,958	-0,5	-1,228
2221,732	0	-0,808
2222,506	-10	-3,498
2223,28	0,5	-0,249
2224,048	-1,5	-1,74
2224,822	-10	-3,215
2225,59	2	-0,016
2226,364	-4	-2,65
2227,132	-4	-2,268
2227,9	2	-0,001
2228,673	-8,5	-3,422
2229,441	-1	-1,314
2230,215	0	-0,718
2230,983	-10	-3,496
2231,757	0	-0,392
2232,525	-1,5	-1,641
2233,305	-10	-3,268
2234,073	2	-0,02
2234,841	-4	-2,646
2235,615	-4	-2,262
2236,383	2	-0,001
2237,157	-8,5	-3,42
2237,925	-1	-1,318
2238,693	0	-0,736
2239,467	-10	-3,497
2240,235	0,5	-0,312
2241,009	-1,5	-1,693
2241,777	-10	-3,283
2242,551	2	-0,018
2243,325	-4	-2,641
2244,099	-4,5	-2,288
2244,867	2	-0,001
2245,641	-8,5	-3,415
2246,409	-1	-1,356
2247,176	0,5	-0,64
2247,95	-10	-3,495
2248,718	0	-0,428
2249,492	-1,5	-1,625
2250,26	-10	-3,312
2251,034	2	-0,02
2251,802	-3,5	-2,562
2252,57	-4,5	-2,387
2253,344	2	-0,001
2254,124	-8,5	-3,415
2254,892	-1	-1,351
2255,66	0,5	-0,682
2256,434	-10	-3,496
2257,202	0	-0,461
2257,97	-1,5	-1,542
2258,744	-10	-3,375
2259,512	2	-0,027
2260,286	-3,5	-2,488
2261,054	-5	-2,466
2261,828	2	-0,002
2262,596	-8	-3,362
2263,364	-1,5	-1,472
2264,137	1	-0,536
2264,905	-10	-3,492
2265,673	0	-0,584
2266,441	-1	-1,386
2267,215	-10	-3,5
2267,989	1,5	-0,047
2268,763	-3	-2,336
2269,531	-5,5	-2,623
2270,299	2	-0,003
2271,073	-7	-3,247
2271,847	-2	-1,644
2272,621	1,5	-0,36
2273,389	-10	-3,486
2274,163	0	-0,682
2274,931	-1	-1,304
2275,711	-10	-3,5
2276,479	1,5	-0,056
2277,247	-3	-2,241
2278,021	-6,5	-2,678
2278,789	2	-0,003
2279,557	-6	-3,2
2280,325	-2,5	-1,754
2281,099	2	-0,296
2281,866	-9,5	-3,483
2282,64	0	-0,775
2283,408	-1	-1,232
2284,182	-10	-3,499
2284,956	1,5	-0,062
2285,724	-2,5	-2,173
2286,498	-7	-2,746
2287,266	2,5	-0,004
2288,046	-6,5	-3,224
2288,814	-2	-1,739
2289,582	2	-0,279
2290,356	-9,5	-3,482
2291,124	0	-0,807
2291,904	-0,5	-1,249
2292,672	-10	-3,499
2293,44	1,5	-0,085
2294,208	-2,5	-2,094
2294,976	-7,5	-2,82
2295,756	2	-0,005
2296,524	-5,5	-3,11
2297,298	-2,5	-1,836
2298,066	2	-0,131
2298,839	-9,5	-3,476
2299,607	0	-0,887
2300,381	-0,5	-1,203
2301,149	-10	-3,499
2301,917	1,5	-0,095
2302,691	-2,5	-2,109
2303,459	-7,5	-2,84
2304,233	2	-0,005
2305,001	-5,5	-3,047
2305,775	-2,5	-1,85
2306,543	2	-0,146
2307,311	-9,5	-3,475
2308,091	0	-0,866
2308,859	-0,5	-1,136
2309,633	-10	-3,499
2310,401	1	-0,096
2311,175	-2,5	-2,114
2311,943	-8	-2,867
2312,711	2	-0,006
2313,485	-5,5	-3,006
2314,253	-3	-1,907
2315,027	1,5	-0,131
2315,801	-10	-3,476
2316,574	-0,5	-0,919
2317,342	-0,5	-1,088
2318,116	-10,5	-3,499
2318,884	1	-0,112
2319,652	-2,5	-2,005
2320,426	-7,5	-2,923
2321,194	1,5	-0,007
2321,968	-5,5	-2,931
2322,736	-3	-1,97
2323,51	2	-0,057
2324,278	-9,5	-3,468
2325,046	-0,5	-1
2325,82	-0,5	-1,053
2326,588	-10	-3,499
2327,362	1	-0,123
2328,13	-2,5	-1,954
2328,904	-7,5	-2,928
2329,672	2	-0,007
2330,44	-5	-2,94
2331,214	-3	-1,947
2331,982	2	-0,012
2332,756	-9,5	-3,466
2333,523	-0,5	-1,042
2334,297	-1	-1,076
2335,065	-10	-3,499
2335,833	1	-0,118
2336,607	-2,5	-2,025
2337,375	-8	-2,946
2338,149	2	-0,006
2338,917	-5	-2,916
2339,691	-3	-2,047
2340,459	2	0
2341,233	-9,5	-3,455
2342,001	-1	-1,123
2342,769	0	-0,878
2343,543	-10	-3,498
2344,317	0,5	-0,21
2345,085	-1,5	-1,803
2345,853	-9,5	-3,125
2346,627	2	-0,011
2347,395	-4	-2,694
2348,169	-3,5	-2,204
2348,937	2	-0,001
2349,705	-9	-3,426
2350,479	-1	-1,266
2423,536	-2	-1,841
2424,31	-9	-3,058
2425,084	1,5	-0,009
2425,852	-5	-2,825
2426,626	-3,5	-2,083
2427,394	2	0
2428,168	-9,5	-3,456
2428,942	-0,5	-1,084
2429,71	-0,5	-0,965
2430,484	-10	-3,498
2431,252	0,5	-0,175
2432,026	-2	-1,866
2432,794	-9	-3,058
2433,568	2	-0,008
2434,342	-5	-2,861
2435,11	-3	-2,089
2435,884	2	0
2436,652	-9	-3,449
2437,426	-0,5	-1,105
2438,194	0	-0,912
2438,961	-10	-3,498
2439,741	1	-0,171
2440,509	-2	-1,882
2441,283	-9	-3,044
2442,051	2	-0,01
2442,825	-4,5	-2,812
2443,593	-3,5	-2,158
2444,361	2	-0,001
2445,135	-9	-3,436
2445,903	-0,5	-1,214
2446,677	0	-0,785
2447,445	-10	-3,497
2448,225	0,5	-0,268
2448,993	-1,5	-1,769
2449,761	-9	-3,155
2450,535	2	-0,012
2451,303	-4,5	-2,712
2452,083	-3	-2,144
2452,851	2	-0,001
2453,625	-9	-3,446
2454,393	-0,5	-1,179
2455,161	0	-0,796
2455,935	-10	-3,497
2456,702	0,5	-0,275
2457,476	-2	-1,753
2458,244	-9,5	-3,198
2459,018	2	-0,014
2459,786	-4	-2,649
2460,56	-4	-2,286
2461,328	2	-0,001
2462,096	-8,5	-3,4
2462,87	-1	-1,368
2463,638	0	-0,643
2464,412	-10	-3,495
2465,18	0	-0,409
2465,948	-1,5	-1,598
2466,716	-10	-3,35
2467,484	2	-0,025
2468,258	-4	-2,536
2469,026	-4,5	-2,417
2469,8	2	-0,001
2470,568	-8	-3,376
2471,342	-1	-1,429
2472,116	0	-0,592
2472,884	-10	-3,494
2473,657	0	-0,455
2474,425	-1,5	-1,594
2475,199	-10	-3,363
2475,973	2	-0,024
2476,747	-3,5	-2,609
2477,515	-4,5	-2,362
2478,283	2	-0,001
2479,057	-8,5	-3,399
2479,825	-1	-1,364
2480,599	0	-0,623
2481,367	-10	-3,494
2482,135	0	-0,554
2482,909	-1,5	-1,52
2483,689	-10	-3,385
2484,457	2	-0,027
2485,225	-3,5	-2,429
2485,999	-5	-2,495
2486,767	2	-0,002
2487,541	-7,5	-3,334
2488,315	-1,5	-1,542
2489,083	1,5	-0,464
2489,857	-10	-3,491
2490,625	0	-0,641
2491,398	-1	-1,396
2492,166	-10	-3,5
2492,934	1,5	-0,05
2493,708	-3	-2,36
2494,476	-5	-2,572
2495,25	2	-0,002
2496,024	-7,5	-3,334
2496,792	-1,5	-1,552
2497,56	1,5	-0,456
2498,334	-10	-3,49
2499,102	0	-0,634
2499,876	-1,5	-1,339
2500,65	-10	-3,5
2501,418	1,5	-0,052
2502,192	-3	-2,292
2502,96	-6	-2,695
2503,74	2	-0,003
2504,508	-6	-3,201
2505,276	-2	-1,759
2506,05	1,5	-0,325
2506,818	-9,5	-3,485
2507,598	0	-0,782
2508,366	-1	-1,3
2509,133	-10	-3,499
2509,901	1,5	-0,073
2510,669	-2,5	-2,166
2511,443	-6,5	-2,775
2512,211	2	-0,004
2512,985	-5,5	-3,071
2513,753	-2	-1,863
2514,521	2	-0,149
2515,295	-9,5	-3,475
2516,063	-0,5	-0,924
2516,837	-0,5	-1,133
2517,605	-10	-3,499
2518,379	1,5	-0,097
2519,147	-2	-2,041
2519,921	-7,5	-2,917
2520,695	2	-0,006
2521,469	-5	-3,001
2522,237	-2,5	-1,905
2523,005	2	-0,142
2523,785	-9,5	-3,478
2524,553	0	-0,894
2525,321	-1	-1,174
2526,094	-10	-3,499
2526,862	1	-0,099
2527,636	-2,5	-2,128
2528,404	-7,5	-2,869
2529,178	2	-0,005
2529,946	-5,5	-3,03
2530,714	-2,5	-1,92
2531,488	2	-0,165
2532,262	-10	-3,478
2533,036	0	-0,905
2533,804	-1	-1,131
2534,584	-10	-3,499
2535,352	1,5	-0,107
2536,12	-2,5	-2,086
2536,888	-8	-2,907
2537,656	2	-0,006
2538,424	-5,5	-2,983
2539,192	-2,5	-1,972
2539,966	2	-0,036
2540,734	-9,5	-3,466
2541,508	-0,5	-1,029
2542,276	-0,5	-0,977
2543,044	-10	-3,498
2543,823	1	-0,13
2544,591	-2,5	-1,999
2545,359	-7,5	-2,956
2546,133	2	-0,007
2546,901	-5	-2,981
2547,669	-3	-1,99
2548,437	2	-0,006
2549,211	-9,5	-3,464
2549,979	0	-1,084
2550,753	-0,5	-0,979
2551,521	-10	-3,498
2552,295	0,5	-0,136
2553,063	-2	-1,939
2553,831	-8,5	-3,044
2554,606	2	-0,009
2555,373	-5	-2,851
2556,147	-3	-2,089
2556,915	2	0
2557,689	-9,5	-3,459
2558,469	-0,5	-1,043
2559,237	-1	-1,054
2560,011	-10	-3,499
2560,779	1	-0,129
2561,546	-2	-2,062
2562,314	-7,5	-2,925
2563,088	2	-0,006
2563,856	-5,5	-3,005
2564,624	-3	-2,029
2565,392	2	0
2566,16	-9	-3,456
2566,934	-0,5	-1,08
2567,708	-0,5	-0,983
2568,488	-10	-3,499
2569,256	1	-0,147
2570,03	-2,5	-1,981
2570,798	-8	-3,021
2571,578	2	-0,007
2572,352	-5,5	-2,98
2573,12	-3	-2,022
2573,888	2	0
2574,656	-9,5	-3,457
2575,43	-0,5	-1,153
2576,198	-0,5	-0,896
2576,966	-10	-3,498
2577,74	0,5	-0,218
2578,508	-2	-1,84
2579,281	-9	-3,108
2580,049	2	-0,012
2580,824	-4,5	-2,792
2581,591	-3,5	-2,215
2582,359	2	-0,001
2583,133	-9	-3,44
2583,907	-0,5	-1,173
2584,675	0	-0,787
2585,443	-10	-3,497
2586,217	0	-0,341
2586,985	-1,5	-1,757
2587,759	-9	-3,086
2588,533	2	-0,011
2589,301	-4,5	-2,79
2590,075	-3	-2,142
2590,843	2	-0,001
2591,623	-9	-3,446
2592,391	-0,5	-1,209
2593,159	0	-0,759
2593,927	-10	-3,497
2594,695	0	-0,37
2595,469	-1,5	-1,704
2596,249	-9,5	-3,231
2597,016	2	-0,018
2597,784	-4	-2,643
2598,552	-4	-2,32
2599,326	2	-0,001
2600,094	-8	-3,39
2600,868	-1	-1,426
2601,636	0	-0,692
2602,41	-10	-3,496
2603,178	0	-0,393
2603,946	-1,5	-1,651
2604,72	-10	-3,338
2605,488	2	-0,024
2606,262	-3,5	-2,566
2607,03	-4,5	-2,451
2607,804	2	-0,002
2608,572	-7,5	-3,348
2609,346	-1,5	-1,552
2610,114	1,5	-0,31
2610,882	-9,5	-3,484
2611,656	0	-0,822
2612,424	-0,5	-1,058
2613,198	-10	-3,499
2613,965	1	-0,163
2614,733	-2	-1,986
2615,507	-7	-2,9
2616,275	2	-0,006
2617,049	-5,5	-3,061
2617,817	-3	-1,968
2618,585	2	-0,012
2619,353	-9,5	-3,462
2620,127	-0,5	-1,02
2620,901	-0,5	-0,964
2621,669	-10	-3,498
2622,443	1	-0,185
2623,211	-2	-1,882
2623,985	-8,5	-3,092
2624,753	2	-0,011
2625,521	-4,5	-2,765
2626,295	-3,5	-2,195
2627,063	2	-0,001
2627,837	-8	-3,402
2628,605	-0,5	-1,416
2629,379	1	-0,526
2630,147	-9,5	-3,492
2630,915	0	-0,574
2631,688	-1	-1,401
2632,456	-9,5	-3,5
2633,23	1,5	-0,048
2633,998	-2,5	-2,206
2634,772	-6	-2,724
2635,54	2	-0,004
2636,308	-6	-3,054
2637,082	-2,5	-1,866
2637,85	2	-0,071
2638,618	-9,5	-3,469
2639,386	0	-1,064
2748,562	0	-0,511
2749,336	-1	-1,526
2750,104	-9,5	-3,494
2750,878	2	-0,035
2751,646	-3	-2,39
2752,414	-5,5	-2,602
2753,182	2	-0,003
2753,955	-6,5	-3,32
2754,723	-1,5	-1,61
2755,491	1,5	-0,508
2756,265	-9,5	-3,492
2757,033	0	-0,672
2757,807	-1	-1,456
2758,575	-9,5	-3,5
2759,343	1,5	-0,043
2760,123	-3	-2,44
2760,891	-5,5	-2,547
2761,665	2	-0,002
2762,433	-7	-3,36
2763,207	-1,5	-1,546
2763,981	0,5	-0,591
2764,755	-9,5	-3,494
2765,523	0	-0,524
2766,291	-1	-1,582
2767,065	-9,5	-3,358
2767,833	1,5	-0,026
2768,607	-3	-2,546
2769,375	-5	-2,429
2770,143	2	-0,002
2770,916	-8	-3,387
2771,684	-1	-1,459
2772,458	0	-0,672
2773,226	-9,5	-3,495
2773,994	0	-0,51
2774,768	-1,5	-1,575
2775,536	-9,5	-3,348
2776,316	2	-0,02
2777,084	-3	-2,592
2777,858	-4	-2,37
2778,626	2	-0,001
2779,394	-7	-3,382
2780,174	-1	-1,456
2780,942	1	-0,562
2781,716	-9,5	-3,494
2782,484	0	-0,597
2783,258	-1	-1,418
2784,026	-9,5	-3,5
3001,633	2	-0,015
3002,407	-3	-2,713
3003,175	-3	-2,309
3003,949	2	-0,001
3004,717	-6,5	-3,414
3005,491	-0,5	-1,354
3006,259	0,5	-0,622
3007,027	-7,5	-3,494
3007,807	0,5	-0,438
3008,575	-1	-1,542
3009,349	-7,5	-3,381
3010,117	2	-0,027
3010,885	-2,5	-2,54
3011,665	-3	-2,354
3012,433	2	-0,001
3013,207	-6,5	-3,405
3013,975	-0,5	-1,417
3014,749	0,5	-0,631
3015,517	-7,5	-3,494
3016,284	0	-0,573
3017,058	-1	-1,532
3017,826	-7,5	-3,431
3018,6	2	-0,028
3019,368	-2,5	-2,524
3020,148	-3	-2,428
3020,916	2	-0,002
3021,684	-6	-3,359
3022,458	-0,5	-1,497
3023,226	1	-0,542
3024,006	-7,5	-3,494
3024,774	0	-0,587
3025,542	-1	-1,431
3026,316	-7,5	-3,5
3027,084	1,5	-0,051
3027,858	-2	-2,341
3028,626	-4	-2,645
3029,4	2	-0,003
3030,168	-5	-3,234
3030,936	-1	-1,755
3031,704	1,5	-0,288
3032,472	-7,5	-3,483
3033,246	0	-0,891
3034,014	-0,5	-1,09
3034,787	-7,5	-3,499
3035,555	1	-0,143
3036,323	-1,5	-1,873
3037,097	-7	-3,105
3110,155	-7	-3,495
3110,923	0,5	-0,483
3111,697	-0,5	-1,545
3112,471	-7	-3,439
3113,251	2	-0,026
3114,019	-2,5	-2,446
3114,787	-3	-2,56
3115,555	2	-0,002
3116,323	-5	-3,284
3117,097	-0,5	-1,734
3117,865	2	-0,254
3118,633	-7	-3,481
3119,407	0	-0,848
3120,175	-0,5	-1,073
3120,949	-7	-3,499
3121,716	1,5	-0,114
3122,49	-1	-1,904
3123,258	-6	-3,074
3124,026	2	-0,011
3124,8	-3	-2,779
3125,568	-2	-2,177
3126,342	2	-0,001
3127,11	-6	-3,427
3127,878	0	-1,36
3128,652	0,5	-0,687
3129,42	-6,5	-3,496
3130,188	0	-0,491
3130,956	-1	-1,585
3131,73	-6,5	-3,419
3132,498	2	-0,03
3133,266	-2	-2,416
3134,04	-3	-2,567
3134,808	2	-0,002
3135,576	-4,5	-3,276
3136,344	-0,5	-1,705
3137,112	2	-0,283
3137,886	-6,5	-3,484
3138,653	0	-0,837
3139,427	-0,5	-1,136
3140,201	-6,5	-3,499
3140,975	1,5	-0,094
3141,743	-1,5	-2,009
3142,511	-5,5	-2,988
3143,279	2	-0,008
3144,065	-3	-2,854
3144,833	-1,5	-2,149
3145,601	2	-0,001
3182,487	-2,5	-2,682
3183,261	-2	-2,312
3184,035	2	-0,001
3184,803	-5	-3,365
3185,577	-0,5	-1,555
3186,345	1,5	-0,398
3187,113	-6	-3,488
3187,887	0	-0,755
3188,661	-0,5	-1,297
3189,429	-6,5	-3,499
3190,197	1,5	-0,076
3190,971	-1,5	-2,13
3191,744	-5	-2,874
3192,518	2	-0,005
3193,287	-3	-3,002
3194,054	-1	-1,953
3194,828	2	-0,018
3195,596	-6	-3,463
3196,37	0	-1,134
3197,138	0	-0,858
3197,906	-6,5	-3,498
3198,68	0,5	-0,296
3199,448	-1	-1,679
3200,228	-6	-3,268
3200,996	2	-0,02
3201,764	-2	-2,626
3202,532	-2,5	-2,397
3203,3	2	-0,002
3203,372	2	-0,001