File: Cycling_tests/_40perc/_4gap/entrada/_3.txt
Time (s)	Load (N)	Displacement (mm)
36,273	-8	-1,857
38,211	-3	-0,914
40,149	1,5	-0,097
42,075	1,5	-0,01
44,007	0	-0,201
45,939	-4,5	-1,06
47,859	-12	-2,09
49,785	-22	-3,082
51,71	-22,5	-3,498
53,642	-21,5	-3,466
55,562	-15,5	-3,041
57,494	-9	-2,112
59,416	-4	-1,178
61,352	1,5	-0,33
63,278	1,5	-0,003
65,216	1,5	-0,05
67,148	-1,5	-0,618
69,081	-7	-1,483
70,999	-16	-2,421
72,937	-21,5	-3,207
74,869	-21,5	-3,496
76,801	-19,5	-3,452
78,733	-14,5	-2,892
80,659	-7,5	-1,972
82,591	-3,5	-1,101
84,523	1,5	-0,181
86,46	2	-0,005
88,392	1	-0,083
90,342	-2	-0,706
92,274	-7	-1,604
94,206	-14	-2,488
96,126	-21,5	-3,455
98,064	-21,5	-3,495
99,996	-20	-3,414
101,94	-12,5	-2,714
103,872	-6	-1,798
105,803	-1,5	-0,926
107,735	1,5	-0,012
109,679	1,5	-0,007
111,605	0,5	-0,142
113,549	-3	-0,943
115,481	-9,5	-1,846
117,407	-17,5	-2,823
119,339	-21	-3,499
121,27	-21	-3,485
123,208	-17	-3,314
125,137	-9,5	-2,412
127,078	-4,5	-1,537
129,004	0	-0,678
130,93	2	-0,001
132,862	2	-0,024
134,794	-0,5	-0,419
136,732	-5,5	-1,325
138,663	-12	-2,229
140,595	-20,5	-3,106
142,533	-20,5	-3,498
144,467	-20,5	-3,473
182,653	-20	-3,426
184,597	-20	-3,495
186,535	-18,5	-3,43
188,479	-12	-2,797
190,416	-6	-1,869
192,36	-3	-1,041
194,298	2	-0,109
196,23	2	-0,006
198,174	1,5	-0,064
200,106	-1,5	-0,653
202,056	-5,5	-1,45
203,988	-12	-2,302
205,92	-20	-3,24
207,857	-20	-3,497
209,795	-19,5	-3,473
211,721	-14,5	-3,09
213,653	-7,5	-2,234
215,592	-3,5	-1,414
217,517	1,5	-0,527
219,449	2	-0,001
221,381	2	-0,025
223,313	-0,5	-0,409
225,245	-4	-1,278
227,176	-11	-2,203
229,102	-19	-3,089
231,046	-20	-3,498
232,979	-19,5	-3,474
234,916	-13,5	-3,079
236,848	-6,5	-2,113
238,792	-3	-1,248
240,73	1,5	-0,443
242,661	2,5	-0,002
244,599	2	-0,035
246,543	-0,5	-0,513
248,481	-4,5	-1,412
250,419	-11	-2,322
252,357	-19	-3,122
254,295	-19,5	-3,497
256,233	-19	-3,47
258,171	-12,5	-3,046
260,115	-7,5	-2,157
262,052	-3,5	-1,314
263,996	0,5	-0,512
265,94	2	-0,001
267,872	2	-0,016
269,804	0	-0,226
271,736	-3	-1,089
273,668	-9	-1,971
275,594	-16	-2,884
277,519	-19,5	-3,499
279,451	-19,5	-3,482
281,389	-15	-3,268
283,321	-8,5	-2,425
285,259	-5	-1,636
287,197	-0,5	-0,773
289,135	2	0
291,073	2	-0,007
293,015	1	-0,098
294,96	-2	-0,809
296,898	-6	-1,714
298,842	-13	-2,565
300,774	-19,5	-3,496
302,712	-19,5	-3,494
304,65	-17,5	-3,43
306,582	-11	-2,793
308,52	-6	-1,936
310,458	-3	-1,2
312,389	2	-0,431
314,327	2	-0,002
316,265	1,5	-0,032
318,215	0	-0,296
320,153	-3	-1,12
322,091	-7,5	-1,894
324,029	-15	-2,73
325,967	-19	-3,5
400,494	2,5	-0,001
402,426	2,5	-0,013
404,364	1	-0,16
406,308	-1,5	-0,838
408,24	-5,5	-1,619
410,18	-12	-2,509
412,11	-18,5	-3,38
414,042	-18,5	-3,496
415,974	-17,5	-3,448
417,918	-10,5	-2,939
419,855	-5,5	-2,028
421,781	-2,5	-1,105
423,719	2,5	-0,289
425,651	2,5	-0,003
427,583	2	-0,046
429,515	0	-0,504
431,453	-3,5	-1,341
433,385	-9	-2,187
435,328	-16	-3,01
437,26	-18,5	-3,498
439,192	-18	-3,481
441,13	-13,5	-3,21
443,062	-7,5	-2,408
445	-4	-1,604
446,932	-0,5	-0,78
448,864	2,5	0
450,796	2,5	-0,008
452,734	1,5	-0,108
454,665	-1	-0,819
456,597	-5	-1,633
458,535	-12	-2,518
460,467	-18	-3,382
462,411	-18	-3,496
464,343	-18	-3,462
466,281	-11	-2,972
468,213	-5,5	-2,047
470,139	-3	-1,209
472,07	1,5	-0,403
474,002	2,5	-0,003
475,934	2	-0,038
477,866	0	-0,481
479,792	-3,5	-1,35
481,724	-9	-2,21
483,662	-18,5	-3,128
485,6	-18	-3,497
487,531	-18	-3,468
489,469	-12,5	-3,097
491,401	-7	-2,23
493,339	-3	-1,372
495,271	1,5	-0,463
497,203	2,5	-0,001
499,141	2	-0,025
501,079	0	-0,264
503,011	-2,5	-1,064
504,942	-6	-1,855
506,886	-13,5	-2,715
508,818	-18,5	-3,499
510,756	-18	-3,492
512,688	-15,5	-3,38
514,62	-9,5	-2,618
516,552	-4,5	-1,815
518,484	-2,5	-1,06
520,416	2,5	-0,193
522,354	2,5	-0,004
524,285	2	-0,055
526,217	-0,5	-0,631
528,149	-4,5	-1,518
530,075	-10,5	-2,404
532,001	-18	-3,307
533,933	-18	-3,496
535,859	-16,5	-3,445
537,791	-10,5	-2,856
539,722	-5,5	-2,016
541,654	-2,5	-1,218
543,58	1,5	-0,363
617,994	-18	-3,492
619,926	-15	-3,403
621,864	-9,5	-2,782
623,802	-5	-2,005
625,734	-2,5	-1,138
627,666	3	-0,226
629,597	2,5	-0,004
631,529	1,5	-0,054
633,461	-0,5	-0,598
635,393	-4	-1,437
637,325	-10,5	-2,379
639,251	-17,5	-3,208
641,183	-18	-3,497
643,121	-17	-3,465
645,059	-11,5	-3,04
646,996	-6	-2,151
648,922	-2,5	-1,2
650,86	1,5	-0,426
652,792	2,5	-0,002
654,724	1,5	-0,042
656,65	0	-0,515
658,582	-4	-1,466
660,514	-10,5	-2,429
662,445	-17,5	-3,294
664,371	-17,5	-3,496
666,303	-16	-3,434
668,229	-9,5	-2,777
670,155	-4	-1,776
672,087	0	-0,817
674,013	2,5	0
675,945	2,5	-0,01
677,883	1	-0,115
679,814	-1,5	-0,859
681,749	-5,5	-1,716
683,672	-11,5	-2,559
685,604	-17,5	-3,385
687,536	-17,5	-3,496
689,468	-16,5	-3,454
691,4	-11	-3,052
693,332	-5,5	-2,16
695,264	-2,5	-1,298
697,191	1,5	-0,47
699,121	2,5	-0,001
701,059	2,5	-0,023
702,985	0	-0,368
704,917	-2,5	-1,122
706,855	-6,5	-1,944
708,781	-14,5	-2,855
710,713	-17,5	-3,499
712,645	-17	-3,489
714,576	-14,5	-3,369
716,508	-8,5	-2,623
718,44	-4,5	-1,863
720,366	-2	-1,062
722,292	2,5	-0,214
724,23	2,5	-0,004
726,156	1,5	-0,053
728,088	-0,5	-0,58
730,026	-3	-1,338
731,964	-9	-2,228
733,889	-17	-3,168
735,815	-17,5	-3,497
737,747	-16,5	-3,458
739,673	-10,5	-2,933
741,605	-5,5	-2,051
743,543	-2	-1,171
745,475	2,5	-0,314
747,407	2,5	-0,002
749,345	2,5	-0,04
751,27	0	-0,528
753,202	-4	-1,405
755,128	-9	-2,313
757,054	-17	-3,206
758,992	-17,5	-3,497
760,924	-17	-3,462
762,85	-11	-3,025
764,782	-5,5	-2,163
766,714	-2,5	-1,26
768,645	1,5	-0,381
770,577	2,5	-0,002
772,503	2	-0,032
774,429	0	-0,542
776,361	-3,5	-1,419
778,299	-9	-2,266
780,231	-16,5	-3,128
782,163	-17,5	-3,497
784,089	-16,5	-3,472
786,026	-11	-3,122
787,964	-6	-2,253
789,89	-3	-1,304
791,822	1	-0,468
793,766	2,5	-0,001
795,692	2	-0,024
797,624	0	-0,322
799,562	-2	-1,064
801,488	-6	-1,938
803,419	-13,5	-2,79
805,351	-17	-3,499
807,277	-17	-3,491
809,209	-14,5	-3,36
811,141	-8,5	-2,612
813,067	-4,5	-1,802
815,005	-1,5	-0,975
816,931	2,5	-0,022
818,863	2,5	-0,007
820,794	1	-0,093
822,72	-1	-0,821
824,652	-5	-1,678
826,59	-10	-2,44
828,516	-17	-3,31
830,448	-17,5	-3,496
832,386	-16	-3,45
834,312	-10	-2,903
836,244	-5,5	-2,126
838,176	-3	-1,296
840,107	1,5	-0,419
842,039	2,5	-0,002
843,971	2	-0,028
845,903	0	-0,374
847,835	-3	-1,274
849,773	-7,5	-2,05
851,699	-14,5	-2,922
853,631	-17	-3,499
855,562	-17	-3,486
857,488	-12,5	-3,258
859,426	-7,5	-2,53
861,352	-3,5	-1,65
863,29	-0,5	-0,791
865,216	2,5	-0,001
867,136	2,5	-0,015
869,068	1	-0,188
870,994	-2	-1,027
872,925	-5,5	-1,867
874,863	-11	-2,586
876,789	-17	-3,497
878,721	-16,5	-3,493
880,647	-14,5	-3,38
882,585	-8,5	-2,687
884,517	-4,5	-1,83
886,444	-2	-0,982
888,375	2,5	-0,084
890,306	2,5	-0,007
892,232	1	-0,12
894,176	-1	-0,868
896,102	-5	-1,754
898,034	-12	-2,652
899,96	-17	-3,5
901,898	-17	-3,492
903,824	-13,5	-3,33
905,756	-7,5	-2,472
907,687	-3,5	-1,659
909,625	-1	-0,875
911,545	2,5	0
913,471	2,5	-0,014
915,397	1	-0,208
917,329	-1,5	-1,006
919,267	-5,5	-1,806
921,199	-11,5	-2,662
923,137	-17	-3,5
925,062	-17	-3,492
926,988	-13,5	-3,317
928,92	-7	-2,446
930,858	-3,5	-1,567
932,784	0	-0,681
934,716	2,5	0
936,642	2,5	-0,011
938,574	1	-0,187
940,506	-1,5	-1,021
978,651	1,5	-0,142
980,583	-1,5	-0,934
982,509	-5	-1,868
984,441	-12,5	-2,751
986,373	-16,5	-3,499
988,299	-16,5	-3,488
990,231	-13,5	-3,278
992,163	-6	-2,326
994,095	-3	-1,406
996,02	1	-0,456
997,952	2,5	-0,002
999,878	2	-0,034
1001,822	0	-0,416
1003,748	-2,5	-1,349
1005,686	-8	-2,222
1007,612	-16	-3,185
1009,55	-16,5	-3,498
1011,476	-15,5	-3,464
1013,407	-10,5	-3,001
1015,339	-5	-2,056
1017,271	-2,5	-1,121
1019,197	2,5	-0,215
1021,129	2,5	-0,004
1023,061	2	-0,068
1024,993	-0,5	-0,73
1026,925	-4	-1,58
1028,851	-9,5	-2,472
1030,788	-16,5	-3,388
1032,714	-16,5	-3,495
1034,652	-15	-3,413
1036,578	-8	-2,666
1038,516	-4	-1,776
1040,442	-0,5	-0,815
1042,368	2,5	-0,001
1044,3	2,5	-0,014
1046,226	0,5	-0,333
1048,157	-2,5	-1,246
1050,089	-6,5	-2,128
1052,021	-15,5	-3,095
1053,947	-16,5	-3,498
1055,879	-15	-3,47
1057,805	-10,5	-2,967
1059,732	-4,5	-2,005
1061,663	-1,5	-1,071
1063,589	2,5	-0,083
1065,52	2,5	-0,007
1067,458	1,5	-0,085
1069,39	-1	-0,889
1071,316	-4,5	-1,79
1073,242	-12,5	-2,778
1075,168	-16	-3,499
1077,1	-16	-3,486
1079,032	-12	-3,235
1080,958	-6	-2,325
1082,889	-3	-1,349
1084,821	0,5	-0,522
1086,759	2,5	-0,002
1088,691	2,5	-0,034
1090,617	0	-0,488
1092,555	-3	-1,345
1094,481	-8	-2,238
1096,413	-16,5	-3,186
1098,345	-16,5	-3,497
1100,282	-16	-3,467
1102,208	-10	-2,986
1104,14	-4,5	-2,051
1106,066	-1,5	-1,09
1107,998	2,5	-0,175
1109,924	2,5	-0,007
1111,856	1,5	-0,1
1113,782	-1,5	-0,939
1115,714	-5,5	-1,87
1117,651	-13	-2,808
1119,583	-16	-3,499
1121,509	-16	-3,484
1123,441	-12	-3,199
1125,367	-5,5	-2,25
1127,299	-2	-1,319
1129,225	2	-0,379
1131,151	3	-0,003
1133,077	1,5	-0,081
1135,015	-1	-0,769
1136,946	-5	-1,657
1138,878	-10,5	-2,524
1140,804	-16,5	-3,451
1142,73	-16,5	-3,494
1144,662	-14,5	-3,4
1146,588	-7,5	-2,605
1148,52	-3,5	-1,684
1150,446	0	-0,714
1152,377	2,5	-0,001
1154,309	2,5	-0,014
1156,241	0	-0,294
1158,167	-2,5	-1,233
1160,099	-7,5	-2,205
1162,049	-15,5	-3,057
1163,975	-16,5	-3,498
1165,901	-15,5	-3,468
1167,833	-9,5	-2,989
1169,764	-5	-2,047
1171,696	-1,5	-1,117
1173,622	2,5	-0,138
1175,554	2,5	-0,006
1177,486	1,5	-0,108
1179,412	-1,5	-0,964
1181,344	-6	-1,949
1183,282	-13	-2,864
1185,208	-16	-3,499
1187,139	-16	-3,48
1189,065	-10,5	-3,058
1190,991	-4,5	-2,04
1192,917	-1,5	-1,068
1194,843	2,5	-0,159
1196,775	2,5	-0,005
1198,701	1	-0,122
1200,627	-1,5	-0,991
1202,553	-6	-1,968
1204,485	-13	-2,84
1206,41	-16	-3,499
1208,342	-16	-3,483
1210,28	-11,5	-3,212
1212,212	-5,5	-2,331
1214,138	-2,5	-1,392
1216,064	1,5	-0,495
1217,996	2,5	-0,002
1219,922	2	-0,034
1221,854	-0,5	-0,479
1223,779	-3	-1,413
1225,705	-9,5	-2,436
1227,637	-16	-3,321
1229,569	-16	-3,496
1231,501	-15	-3,43
1233,427	-7,5	-2,741
1235,353	-3	-1,738
1237,285	-0,5	-0,85
1239,217	2,5	-0,001
1241,142	2,5	-0,015
1243,08	0,5	-0,245
1245,006	-2	-1,149
1246,932	-7,5	-2,126
1248,864	-15	-3,095
1250,796	-16	-3,498
1252,722	-15	-3,462
1254,666	-9,5	-3
1256,598	-4,5	-2,065
1258,523	-1,5	-1,136
1260,455	2,5	-0,278
1262,381	3	-0,004
1264,313	2	-0,064
1266,239	-0,5	-0,75
1268,165	-4,5	-1,721
1270,091	-11,5	-2,64
1272,023	-16	-3,499
1273,943	-15,5	-3,493
1275,874	-14	-3,378
1277,806	-6,5	-2,577
1279,738	-3	-1,626
1281,67	0	-0,748
1283,596	2,5	-0,001
1285,528	2,5	-0,018
1287,466	0	-0,272
1289,392	-2	-1,268
1291,324	-7,5	-2,198
1293,249	-16	-3,197
1295,181	-16	-3,497
1297,113	-15	-3,446
1299,039	-8,5	-2,826
1300,971	-4	-1,849
1302,897	-0,5	-0,83
1304,829	2,5	-0,001
1306,755	2,5	-0,019
1308,681	0	-0,308
1310,619	-2,5	-1,296
1312,544	-8,5	-2,31
1314,47	-15,5	-3,286
1316,402	-16	-3,496
1318,328	-15	-3,435
1320,26	-7,5	-2,631
1322,192	-3,5	-1,704
1324,118	0	-0,763
1326,056	2,5	-0,001
1327,981	2,5	-0,018
1329,919	0,5	-0,239
1331,845	-2	-1,178
1333,777	-7,5	-2,204
1335,697	-15,5	-3,202
1337,629	-16	-3,497
1339,561	-15	-3,443
1341,487	-8,5	-2,76
1343,419	-3,5	-1,781
1345,344	-0,5	-0,836
1347,276	2,5	-0,001
1349,202	2,5	-0,018
1351,14	0	-0,304
1353,066	-2,5	-1,359
1355,004	-8	-2,27
1356,93	-16	-3,279
1358,862	-16	-3,496
1360,788	-15	-3,441
1362,72	-8	-2,771
1364,645	-3,5	-1,726
1366,577	0	-0,741
1368,503	2,5	-0,001
1370,441	2,5	-0,016
1372,367	0	-0,334
1374,293	-2	-1,204
1376,225	-6	-2,14
1378,157	-14	-2,975
1380,088	-15,5	-3,498
1382,02	-15,5	-3,482
1383,946	-11,5	-3,228
1385,878	-5,5	-2,321
1387,804	-2,5	-1,393
1389,736	1,5	-0,472
1391,668	2,5	-0,002
1393,594	2	-0,04
1395,526	0	-0,581
1397,451	-3,5	-1,574
1399,377	-10	-2,506
1401,309	-15,5	-3,496
1403,229	-15,5	-3,493
1405,155	-13	-3,358
1407,087	-6	-2,408
1409,013	-2,5	-1,442
1410,939	1,5	-0,546
1412,871	2,5	-0,002
1414,802	2,5	-0,036
1416,737	0	-0,604
1418,66	-3,5	-1,565
1420,592	-10	-2,602
1422,524	-15,5	-3,5
1424,456	-15,5	-3,492
1426,382	-13,5	-3,353
1428,308	-6	-2,439
1430,234	-2,5	-1,398
1432,165	1,5	-0,473
1434,097	3	-0,002
1436,041	2	-0,04
1437,967	0	-0,6
1439,893	-3,5	-1,564
1441,825	-9	-2,505
1443,751	-15,5	-3,491
1445,689	-15,5	-3,494
1447,615	-12,5	-3,353
1449,54	-6	-2,445
1451,472	-2,5	-1,467
1453,398	1,5	-0,511
1455,324	2,5	-0,002
1457,256	2	-0,057
1459,188	-0,5	-0,775
1461,114	-4	-1,726
1463,046	-9,5	-2,57
1464,972	-15,5	-3,5
1466,892	-15,5	-3,489
1468,823	-12	-3,272
1470,755	-5,5	-2,328
1472,687	-2	-1,328
1474,619	1,5	-0,419
1476,545	3	-0,003
1478,477	2	-0,066
1480,403	-0,5	-0,7
1482,329	-3,5	-1,598
1484,261	-9	-2,522
1486,186	-15	-3,486
1488,112	-15	-3,493
1490,038	-13	-3,336
1491,964	-6	-2,437
1493,89	-2	-1,408
1495,822	2	-0,402
1497,748	3	-0,003
1499,674	2	-0,058
1501,606	-0,5	-0,723
1503,537	-3	-1,626
1505,463	-9,5	-2,586
1507,401	-15	-3,5
1509,327	-15	-3,493
1511,265	-13	-3,367
1513,191	-6	-2,546
1515,123	-3	-1,664
1517,055	0	-0,691
1518,981	3	-0,001
1520,906	3	-0,028
1522,844	0	-0,506
1524,77	-3	-1,525
1526,696	-8	-2,454
1528,628	-15	-3,382
1530,554	-15,5	-3,495
1532,48	-13,5	-3,393
1534,412	-7	-2,603
1536,338	-3	-1,602
1538,263	0,5	-0,571
1540,195	3	-0,001
1542,127	2	-0,04
1544,053	0	-0,583
1545,985	-3	-1,498
1547,905	-9	-2,514
1549,843	-15,5	-3,482
1551,775	-15,5	-3,494
1553,701	-13,5	-3,379
1555,632	-6,5	-2,559
1557,558	-3	-1,514
1559,484	1	-0,537
1561,416	2,5	-0,002
1563,342	2,5	-0,035
1565,268	0	-0,578
1567,206	-3	-1,468
1569,138	-7	-2,29
1571,064	-15	-3,162
1573,001	-15,5	-3,498
1574,927	-15	-3,479
1576,853	-10,5	-3,116
1578,785	-4,5	-2,187
1580,711	-1,5	-1,257
1582,643	2	-0,336
1584,569	2,5	-0,003
1586,501	2,5	-0,049
1588,433	0	-0,709
1590,358	-4	-1,712
1592,284	-11	-2,679
1594,222	-15,5	-3,499
1596,151	-15	-3,49
1598,074	-11	-3,196
1600,006	-4,5	-2,164
1601,932	-2	-1,182
1603,858	3	-0,18
1605,79	3	-0,007
1607,715	1,5	-0,117
1609,653	-1	-0,935
1611,585	-5,5	-1,944
1613,511	-12,5	-2,889
1615,437	-15	-3,499
1617,369	-15	-3,476
1619,295	-8,5	-2,929
1621,221	-3,5	-1,888
1623,153	-0,5	-0,883
1625,079	3	-0,001
1627,004	2,5	-0,015
1628,936	0	-0,296
1630,862	-2,5	-1,379
1632,806	-7	-2,169
1634,738	-15	-3,191
1636,664	-15	-3,497
1638,596	-15	-3,45
1640,528	-7	-2,742
1642,453	-3,5	-1,841
1644,379	-0,5	-0,928
1646,317	2,5	-0,06
1648,243	2,5	-0,006
1650,175	1	-0,091
1652,107	-0,5	-0,786
1654,039	-4	-1,695
1655,965	-10,5	-2,593
1657,897	-15	-3,462
1659,822	-15	-3,494
1661,748	-13	-3,372
1663,674	-6	-2,521
1665,612	-2,5	-1,53
1667,538	1	-0,585
1669,47	3	-0,001
1671,396	2,5	-0,032
1673,322	0	-0,504
1675,255	-3	-1,482
1677,179	-9	-2,426
1679,105	-15	-3,343
1681,037	-15	-3,496
1682,975	-14,5	-3,443
1684,901	-7,5	-2,82
1686,827	-4	-1,902
1688,759	-1	-0,982
1690,685	2,5	-0,003
1692,617	2,5	-0,009
1694,542	1	-0,163
1696,48	-1,5	-1,085
1698,418	-5,5	-1,958
1700,344	-12,5	-2,91
1702,276	-15	-3,498
1704,202	-15	-3,478
1706,134	-9,5	-3,045
1708,06	-4,5	-2,088
1709,992	-1,5	-1,142
1711,918	2,5	-0,185
1713,843	3	-0,006
1715,769	1,5	-0,133
1717,707	-1	-0,988
1719,633	-5,5	-2,013
1721,571	-14	-2,989
1723,503	-15	-3,498
1725,429	-14,5	-3,449
1727,355	-7,5	-2,782
1729,281	-3	-1,79
1731,212	0	-0,768
1733,144	3	-0,001
1735,076	2,5	-0,019
1737,008	0	-0,345
1738,94	-2,5	-1,318
1740,866	-7,5	-2,304
1742,798	-15	-3,249
1744,724	-15	-3,496
1746,668	-14,5	-3,446
1748,593	-7,5	-2,796
1750,525	-3,5	-1,839
1752,451	-0,5	-0,831
1754,377	2,5	-0,001
1756,309	2,5	-0,018
1758,241	0,5	-0,37
1760,173	-2,5	-1,398
1762,099	-9	-2,426
1764,025	-15	-3,42
1765,95	-15	-3,493
1767,876	-12	-3,357
1769,808	-6	-2,505
1771,74	-3	-1,542
1773,678	1,5	-0,572
1775,604	2,5	-0,002
1777,53	2	-0,04
1779,462	0	-0,675
1781,388	-4	-1,699
1783,313	-11	-2,707
1785,239	-15	-3,499
1787,171	-15	-3,483
1789,097	-9,5	-3,093
1791,029	-4,5	-2,12
1792,955	-1	-1,054
1794,881	2,5	0
1796,807	2,5	-0,015
1798,745	0	-0,287
1800,664	-2	-1,282
1802,59	-8	-2,328
1804,516	-15	-3,44
1806,442	-15	-3,494
1808,368	-12,5	-3,358
1810,294	-5	-2,318
1812,22	-2	-1,284
1814,146	3	-0,252
1816,078	3	-0,006
1818,009	1	-0,144
1819,935	-1,5	-1,108
1821,873	-6	-2,135
1823,799	-14,5	-3,135
1825,725	-15	-3,497
1827,657	-14,5	-3,441
1829,589	-7,5	-2,752
1831,515	-3	-1,701
1833,441	0	-0,681
1835,366	3	-0,001
1837,292	2	-0,039
1839,218	0	-0,703
1841,156	-3,5	-1,704
1843,088	-10,5	-2,714
1845,02	-15	-3,499
1846,946	-15	-3,485
1848,872	-9	-3,034
1850,804	-3,5	-1,996
1852,729	-0,5	-0,903
1854,661	2,5	0
1856,587	2,5	-0,019
1858,525	0	-0,343
1860,451	-2,5	-1,383
1862,377	-8	-2,455
1864,303	-15	-3,5
1866,235	-15	-3,491
1868,161	-10,5	-3,227
1870,086	-4,5	-2,109
1872,012	-1	-1,059
1873,944	3	-0,007
1875,87	2,5	-0,013
1877,796	0	-0,429
1879,728	-3	-1,492
1881,66	-9	-2,524
1883,586	-15	-3,499
1885,512	-15	-3,485
1887,443	-10	-3,124
1889,375	-4,5	-2,109
1891,301	-1,5	-1,068
1893,233	3	-0,111
1895,159	3	-0,007
1897,085	1	-0,196
1899,011	-2	-1,284
1900,943	-7	-2,263
1902,869	-15	-3,354
1904,794	-15	-3,494
1906,72	-13	-3,38
1908,652	-7,5	-2,722
1910,578	-3	-1,607
1912,504	1	-0,572
1914,43	3	-0,002
1916,362	2,5	-0,04
1918,288	-0,5	-0,724
1920,214	-3,5	-1,705
1922,145	-12,5	-2,859
1924,071	-15	-3,498
1926,009	-15	-3,475
1927,935	-8,5	-2,903
1929,873	-3,5	-1,876
1931,799	0	-0,766
1933,719	2,5	-0,001
1935,645	2	-0,027
1937,571	0	-0,568
1939,502	-3	-1,568
1941,428	-10,5	-2,655
1943,354	-15	-3,499
1945,286	-15	-3,483
1947,212	-10	-3,077
1949,138	-4	-2,02
1951,07	-1,5	-1,053
1953,002	2,5	-0,003
1954,928	2,5	-0,01
1956,854	0,5	-0,256
1958,785	-2	-1,259
1960,711	-7,5	-2,363
1962,643	-15	-3,388
1964,569	-15	-3,493
1966,495	-12,5	-3,356
1968,421	-5	-2,367
1970,353	-2,5	-1,352
1972,279	2	-0,347
1974,205	2,5	-0,003
1976,131	2	-0,072
1978,056	-0,5	-0,893
1979,988	-4	-1,87
1981,914	-12	-2,904
1983,84	-15	-3,498
1985,766	-15	-3,47
1987,698	-8,5	-2,922
1989,618	-3,5	-1,836
1991,544	-0,5	-0,85
1993,469	3	-0,001
1995,401	2,5	-0,015
1997,327	0,5	-0,361
1999,253	-2	-1,39
2001,18	-7,5	-2,389
2003,117	-15	-3,401
2005,043	-15	-3,493
2006,969	-12,5	-3,364
2008,895	-5,5	-2,387
2010,826	-2	-1,333
2012,758	2,5	-0,29
2014,69	3	-0,004
2016,616	1,5	-0,107
2018,548	-1	-1,08
2020,474	-5,5	-2,169
2022,412	-13,5	-3,097
2024,338	-15	-3,497
2026,27	-13,5	-3,436
2028,195	-6,5	-2,662
2030,135	-3	-1,715
2032,065	-0,5	-0,741
2033,991	2,5	-0,001
2035,917	2,5	-0,044
2037,849	0	-0,681
2039,775	-3,5	-1,71
2041,701	-11	-2,842
2043,627	-15	-3,498
2045,558	-14	-3,459
2047,484	-6,5	-2,64
2049,416	-3	-1,678
2051,342	0	-0,686
2053,274	3	-0,001
2055,206	3	-0,021
2057,132	0	-0,464
2059,058	-2,5	-1,56
2060,99	-9	-2,651
2062,921	-14,5	-3,499
2064,847	-14,5	-3,485
2066,773	-9	-3,054
2068,705	-4	-2,038
2070,637	-1	-1,022
2072,563	3	0
2074,495	3	-0,013
2076,427	0,5	-0,251
2078,359	-1,5	-1,226
2080,284	-6	-2,294
2082,216	-14,5	-3,499
2084,142	-14,5	-3,488
2086,074	-9	-3,166
2087,994	-4	-2,202
2089,926	-1,5	-1,31
2091,852	3	-0,19
2093,796	3	-0,004
2095,722	2	-0,084
2097,641	-0,5	-0,891
2099,567	-4,5	-1,935
2137,659	-14	-3,496
2139,591	-14	-3,492
2141,523	-9,5	-3,264
2143,449	-3,5	-2,132
2145,375	-0,5	-1,034
2147,307	3	0
2149,233	3	-0,01
2151,158	0,5	-0,29
2153,084	-1,5	-1,387
2155,022	-6,5	-2,383
2156,948	-14	-3,401
2158,874	-14	-3,492
2160,8	-10	-3,273
2162,726	-4	-2,193
2164,658	-1,5	-1,184
2166,584	3	-0,158
2168,509	3	-0,007
2170,435	1,5	-0,121
2172,361	-1	-1,006
2174,293	-4,5	-1,948
2176,219	-11,5	-2,94
2178,151	-14	-3,498
2180,077	-13	-3,444
2182,003	-6	-2,745
2183,935	-3	-1,702
2185,86	0	-0,742
2187,786	3	-0,001
2189,718	2,5	-0,03
2191,644	0	-0,628
2193,582	-2,5	-1,588
2195,508	-10	-2,734
2197,44	-14	-3,498
2199,366	-13,5	-3,467
2201,298	-7,5	-2,921
2203,223	-3	-1,902
2205,149	-0,5	-0,958
2207,075	3	-0,002
2209,007	3	-0,011
2210,933	0	-0,374
2212,859	-2	-1,5
2214,785	-8,5	-2,588
2216,711	-13,5	-3,499
2218,643	-13	-3,476
2220,57	-7	-2,942
2222,494	-3	-1,907
2224,42	0	-0,835
2226,352	2,5	-0,001
2228,284	2,5	-0,016
2230,21	0	-0,59
2232,136	-3	-1,71
2234,062	-9,5	-2,745
2235,988	-13,5	-3,499
2237,925	-13	-3,48
2239,857	-8	-3,052
2241,783	-3	-2,018
2243,709	-0,5	-0,951
2245,641	2,5	0
2247,567	3	-0,01
2249,493	1	-0,189
2251,413	-1	-1,214
2253,339	-6	-2,36
2255,276	-13	-3,419
2257,202	-13	-3,493
2259,128	-9,5	-3,31
2261,054	-4	-2,288
2262,98	-1	-1,226
2264,912	2,5	-0,236
2266,838	3	-0,004
2268,764	1,5	-0,117
2270,69	-0,5	-1,029
2272,615	-4,5	-2,123
2274,553	-12,5	-3,152
2276,479	-13	-3,497
2278,405	-11	-3,413
2280,331	-6	-2,668
2282,263	-2,5	-1,748
2284,189	0	-0,756
2286,115	3	-0,001
2288,041	2,5	-0,02
2289,972	0,5	-0,36
2291,898	-1,5	-1,362
2293,824	-7	-2,412
2295,75	-13,5	-3,483
2297,682	-13	-3,492
2299,608	-10,5	-3,332
2301,54	-4,5	-2,49
2303,466	-2	-1,593
2305,392	0	-0,681
2307,317	2,5	-0,001
2309,249	2,5	-0,016
2311,187	1	-0,237
2313,113	-1	-1,116
2315,045	-5	-2,11
2316,971	-12,5	-3,146
2318,897	-13,5	-3,496
2320,829	-12	-3,435
2322,755	-6	-2,736
2324,68	-2,5	-1,658
2326,618	0	-0,672
2328,544	3	-0,001
2330,476	2,5	-0,028
2332,402	0	-0,544
2334,334	-2	-1,448
2336,26	-7	-2,471
2338,192	-13,5	-3,439
2340,124	-13	-3,492
2342,049	-10,5	-3,362
2343,981	-4,5	-2,526
2345,913	-1,5	-1,499
2347,839	2	-0,47
2349,777	3	-0,002
2351,703	2,5	-0,044
2353,629	0	-0,7
2355,561	-2,5	-1,605
2357,493	-7,5	-2,582
2359,419	-13,5	-3,499
2361,35	-13,5	-3,492
2363,276	-9,5	-3,348
2365,208	-5	-2,463
2367,134	-2	-1,535
2369,06	1,5	-0,575
2370,986	3	-0,002
2372,912	2	-0,034
2374,838	0	-0,565
2376,77	-1,5	-1,373
2378,701	-5	-2,247
2380,627	-13	-3,207
2382,553	-13,5	-3,497
2384,473	-12	-3,436
2386,411	-6,5	-2,856
2388,337	-3	-1,907
2390,263	-1	-1,026
2392,189	2,5	-0,137
2394,115	2,5	-0,005
2396,04	2	-0,072
2397,96	0	-0,864
2399,886	-3,5	-1,904
2401,812	-9,5	-2,78
2403,738	-13,5	-3,499
2405,676	-13,5	-3,489
2407,602	-10,5	-3,333
2409,528	-4,5	-2,42
2411,454	-2	-1,48
2413,385	1	-0,561
2415,311	2,5	-0,002
2417,231	2	-0,044
2419,151	0	-0,644
2421,077	-2	-1,529
2423,015	-6,5	-2,42
2424,941	-13	-3,273
2426,867	-13	-3,496
2428,793	-12	-3,433
2430,718	-5,5	-2,664
2432,656	-2	-1,703
2434,588	0	-0,692
2436,514	3	-0,001
2438,44	2,5	-0,034
2440,366	0	-0,505
2442,292	-2	-1,519
2444,224	-7	-2,503
2446,15	-13	-3,5
2448,075	-13,5	-3,492
2450,001	-10	-3,325
2451,927	-4	-2,25
2453,859	-1,5	-1,261
2455,791	2	-0,383
2457,723	3	-0,003
2459,649	1,5	-0,098
2461,575	0	-0,854
2463,501	-3	-1,771
2465,438	-7	-2,587
2467,364	-13	-3,479
2469,29	-13	-3,494
2471,216	-11	-3,392
2473,148	-5,5	-2,606
2475,074	-2	-1,624
2477	0	-0,668
2478,926	3	-0,001
2480,852	2,5	-0,021
2482,789	0	-0,315
2484,721	-1,5	-1,326
2486,653	-5,5	-2,274
2488,579	-13	-3,28
2490,511	-13	-3,496
2492,437	-11,5	-3,411
2494,375	-5,5	-2,671
2496,301	-2,5	-1,701
2498,227	0	-0,687
2500,152	3	-0,001
2502,078	2,5	-0,032
2504,022	0	-0,464
2505,948	-2	-1,468
2507,874	-6,5	-2,593
2509,806	-12,5	-3,499
2511,732	-12,5	-3,49
2513,67	-9,5	-3,312
2515,596	-4,5	-2,421
2517,521	-1,5	-1,438
2519,447	1,5	-0,451
2521,379	2,5	-0,002
2523,311	2	-0,051
2525,237	0	-0,749
2527,163	-3	-1,769
2529,083	-9,5	-2,893
2531,009	-12,5	-3,498
2532,941	-12	-3,468
2534,866	-7	-2,952
2536,792	-3	-1,842
2538,724	-0,5	-0,858
2540,656	2,5	0
2542,588	3	-0,01
2544,514	1,5	-0,198
2546,44	-0,5	-1,044
2548,366	-3,5	-1,961
2550,292	-9,5	-2,928
2552,217	-12,5	-3,498
2554,155	-12	-3,474
2556,081	-8	-3,085
2558,007	-3,5	-2,157
2559,933	-1,5	-1,248
2561,865	2,5	-0,274
2563,791	2,5	-0,004
2565,723	1,5	-0,077
2567,649	0	-0,824
2569,58	-3	-1,824
2571,506	-7,5	-2,694
2573,438	-12,5	-3,499
2575,364	-12,5	-3,486
2577,29	-9	-3,238
2579,222	-3,5	-2,199
2581,148	-1	-1,138
2583,08	3	-0,078
2585,006	3	-0,009
2586,932	1	-0,186
2588,857	-0,5	-1,139
2590,789	-4	-2,134
2592,715	-12	-3,192
2594,641	-12,5	-3,496
2596,567	-11	-3,438
2598,505	-5,5	-2,785
2600,431	-2,5	-1,836
2602,357	0	-0,752
2604,283	3	-0,001
2606,214	2,5	-0,024
2608,14	0	-0,485
2610,066	-2,5	-1,642
2611,992	-8	-2,699
2613,924	-12,5	-3,499
2615,856	-12	-3,488
2617,788	-8,5	-3,22
2619,714	-3,5	-2,271
2621,64	-1,5	-1,285
2623,565	2,5	-0,328
2625,497	3	-0,003
2627,423	2	-0,053
2629,355	0	-0,65
2631,281	-2	-1,535
2633,207	-6	-2,464
2635,133	-12	-3,326
2637,059	-12	-3,496
2639,003	-10	-3,422
2640,934	-5	-2,727
2642,86	-2,5	-1,806
2644,786	0	-0,785
2646,718	3	-0,001
2648,65	3	-0,014
2650,576	0	-0,49
2652,502	-1,5	-1,505
2654,428	-6	-2,544
2656,354	-12	-3,499
2658,297	-12	-3,492
2660,223	-8	-3,3
2662,155	-3	-2,184
2664,081	-1	-1,166
2666,007	3	-0,12
2667,933	2,5	-0,007
2669,859	1	-0,13
2671,791	-0,5	-0,974
2673,723	-3	-1,851
2675,648	-8	-2,758
2677,568	-12	-3,499
2679,494	-12	-3,484
2681,426	-8	-3,242
2683,352	-3	-2,217
2685,278	-1	-1,283
2687,21	2,5	-0,32
2689,142	2,5	-0,003
2691,068	1,5	-0,087
2692,994	-0,5	-0,916
2694,913	-3	-2,003
2696,839	-11	-3,044
2698,777	-11,5	-3,498
2700,709	-11	-3,454
2702,635	-5,5	-2,808
2704,561	-2,5	-1,928
2706,493	0	-0,938
2708,419	3	0
2710,344	3	-0,01
2712,276	0,5	-0,214
2714,196	-0,5	-1,119
2716,122	-3	-2,047
2718,048	-10	-2,998
2719,98	-11,5	-3,498
2721,906	-11,5	-3,475
2723,832	-7	-3,161
2725,758	-3	-2,216
2727,683	-1,5	-1,325
2729,609	1,5	-0,491
2731,535	3	-0,002
2733,473	2,5	-0,023
2735,399	0	-0,449
2737,331	-1	-1,316
2739,257	-4,5	-2,144
2741,183	-11,5	-3,202
2743,109	-11,5	-3,496
2745,04	-10,5	-3,441
2746,966	-5	-2,74
2748,892	-1,5	-1,609
2750,818	0	-0,65
2752,75	2,5	-0,001
2754,682	3	-0,022
2756,602	0	-0,595
2758,534	-1,5	-1,595
2760,46	-6	-2,494
2762,385	-11,5	-3,466
2764,317	-11,5	-3,494
2766,243	-8,5	-3,324
2768,169	-3,5	-2,318
2770,095	-1,5	-1,332
2772,021	2	-0,343
2773,947	3	-0,003
2775,879	2	-0,065
2777,805	0	-0,798
2779,73	-2,5	-1,774
2781,656	-7,5	-2,766
2783,582	-11,5	-3,499
2785,508	-11	-3,484
2787,44	-7,5	-3,225
2789,372	-3,5	-2,355
2791,298	-1,5	-1,368
2793,224	1,5	-0,471
2795,156	3	-0,001
2797,088	2,5	-0,022
2799,019	1	-0,302
2800,945	-0,5	-1,214
2802,871	-3,5	-2,138
2804,797	-10	-3,11
2806,729	-11	-3,497
2808,649	-10,5	-3,457
2810,581	-5,5	-2,905
2812,513	-3	-2,076
2814,445	-1	-1,112
2816,37	3	-0,152
2818,296	3	-0,005
2820,228	1,5	-0,122
2822,154	0	-0,982
2824,08	-2,5	-1,98
2826,012	-8	-2,842
2827,938	-10,5	-3,499
2829,87	-10,5	-3,485
2831,796	-7,5	-3,266
2833,721	-3	-2,282
2835,653	-1,5	-1,403
2837,579	2	-0,442
2839,505	3	-0,002
2841,449	2,5	-0,036
2843,375	0	-0,565
2845,307	-1	-1,484
2847,233	-4	-2,359
2849,159	-10,5	-3,349
2851,09	-10,5	-3,495
2853,016	-9	-3,408
2854,942	-3,5	-2,524
2856,868	-1,5	-1,532
2858,794	0,5	-0,638
2860,72	3	-0,001
2862,646	2,5	-0,029
2864,572	0	-0,616
2866,498	-1,5	-1,753
2868,423	-7,5	-2,919
2870,356	-10	-3,499
2872,281	-9,5	-3,478
2874,213	-6	-3,125
2876,139	-2,5	-2,18
2878,065	-0,5	-1,092
2879,991	3	-0,127
2881,929	3	-0,005
2883,861	1,5	-0,126
2885,786	0	-0,998
2887,712	-2,5	-2,08
2889,644	-8	-3,022
2891,57	-9,5	-3,498
2893,502	-9	-3,469
2895,428	-4,5	-2,932
2897,354	-2	-1,952
2899,28	-0,5	-0,959
2901,206	2,5	0
2903,131	2,5	-0,014
2905,063	0,5	-0,294
2906,989	-0,5	-1,302
2908,915	-3,5	-2,411
2910,841	-9	-3,456
2912,767	-9	-3,492
2914,693	-6,5	-3,316
2916,619	-2,5	-2,341
2918,551	-1	-1,172
2920,476	3	-0,16
2922,402	3	-0,008
2924,328	1	-0,288
2926,254	-0,5	-1,317
2928,186	-3,5	-2,433
2930,112	-9	-3,5
2932,038	-9	-3,491
2933,964	-6	-3,302
2935,89	-2,5	-2,148
2937,815	-0,5	-1,152
2939,741	2,5	-0,042
2941,667	2,5	-0,009
2943,599	1	-0,236
2945,525	-0,5	-1,27
2947,451	-2,5	-2,224
2949,389	-8,5	-3,439
2951,315	-8,5	-3,494
2953,241	-6	-3,34
2955,172	-3	-2,388
2957,098	-1	-1,37
2959,03	1,5	-0,38
2960,956	3	-0,003
2962,888	2	-0,063
2964,814	0	-0,828
2966,74	-1,5	-1,822
2968,666	-5	-2,808
2970,592	-8,5	-3,499
2972,517	-8,5	-3,473
2974,443	-4,5	-2,988
2976,369	-2	-1,869
2978,301	0	-0,88
2980,227	2,5	0
2982,153	2,5	-0,011
2984,073	1	-0,198
2985,999	0	-1,128
2987,925	-2	-2,029
2989,85	-6,5	-2,984
2991,776	-8,5	-3,498
2993,714	-8	-3,476
2995,646	-5	-3,078
2997,572	-2	-2,07
2999,498	-0,5	-1,11
3001,424	2,5	-0,197
3003,35	3	-0,005
3005,276	1,5	-0,086
3007,207	0	-0,859
3009,127	-1,5	-1,934
3011,059	-6	-2,898
3012,985	-8,5	-3,498
3014,911	-8	-3,47
3016,837	-4	-2,886
3018,775	-2	-2,016
3020,701	-0,5	-1,018
3022,627	3	-0,042
3024,559	3	-0,007
3026,484	1,5	-0,167
3028,41	0	-1,083
3030,342	-2	-2,045
3032,268	-6	-2,968
3034,206	-8,5	-3,498
3036,132	-8	-3,472
3038,064	-4,5	-3,031
3039,99	-2	-2,022
3041,922	-0,5	-1,081
3043,847	3	-0,085
3045,785	2,5	-0,006
3047,711	1,5	-0,093
3049,637	0	-0,863
3051,563	-1	-1,829
3053,489	-5	-2,826
3055,415	-8,5	-3,499
3057,341	-8,5	-3,475
3059,273	-5	-3,081
3061,198	-2,5	-2,12
3063,124	-1	-1,166
3065,05	2,5	-0,233
3066,976	3	-0,004
3068,902	1,5	-0,146
3070,828	0	-1,068
3072,76	-1,5	-2,045
3074,686	-6,5	-3,033
3076,612	-8	-3,497
3078,537	-8	-3,466
3080,463	-4,5	-3,047
3082,407	-2	-1,981
3084,339	-0,5	-1,096
3086,265	3	-0,14
3088,191	3	-0,006
3090,117	1,5	-0,098
3092,043	0	-0,88
3093,969	-1	-1,793
3095,9	-4	-2,674
3097,826	-8,5	-3,499
3099,752	-8	-3,489
3101,684	-6	-3,312
3103,61	-3	-2,441
3105,554	-1	-1,523
3107,48	1,5	-0,541
3109,406	2,5	-0,001
3111,338	2,5	-0,028
3113,263	0,5	-0,462
3115,195	-0,5	-1,409
3117,121	-3,5	-2,513
3119,053	-8	-3,5
3120,979	-8	-3,49
3122,911	-5,5	-3,34
3124,837	-2,5	-2,364
3126,769	-1	-1,396
3128,695	2	-0,344
3130,626	3	-0,003
3132,552	1,5	-0,058
3134,482	0	-0,719
3136,41	-1,5	-1,95
3138,342	-6	-2,96
3140,268	-7,5	-3,498
3142,188	-7	-3,454
3144,114	-3	-2,792
3146,04	-1,5	-1,789
3147,965	0	-0,748
3149,897	3	-0,001
3151,823	2,5	-0,02
3153,755	0,5	-0,426
3155,681	-0,5	-1,339
3157,607	-3	-2,358
3159,533	-7,5	-3,406
3161,465	-8	-3,495
3163,397	-6	-3,396
3165,328	-2,5	-2,617
3167,254	-1	-1,577
3169,18	1,5	-0,536
3171,106	3	-0,004
3173,032	1,5	-0,096
3174,97	0	-0,862
3176,896	-1	-1,818
3177,598	2,5	0