File: ensaios_Ciclicos/_40perc/_1gap/entrada/_2.txt
Time (s)	Load (N)	Displacement (mm)
0	0,5	-0,035
2,147	1,5	-0,089
4,391	0	-0,616
6,533	0	-0,62
8,675	-0,5	-0,701
10,811	-1	-0,797
12,953	-2	-0,932
15,094	-2,5	-0,951
17,23	-1,5	-0,907
19,366	-2,5	-0,97
21,502	-2	-0,922
23,644	-2,5	-1,037
25,786	-2,5	-1,029
27,922	-3	-1,017
30,07	-3	-1,072
32,205	-2	-0,996
34,348	-1,5	-0,972
36,489	-2	-1,006
38,625	-2	-1,016
40,767	-2	-1,072
42,903	-2,5	-1,088
45,04	-2,5	-1,065
47,181	-3	-1,126
49,329	-3	-1,197
51,47	-3	-1,242
53,618	-3,5	-1,28
55,76	-3,5	-1,304
57,902	-3	-1,247
60,05	-3	-1,237
62,192	-3	-1,262
64,34	-3	-1,273
66,482	-3	-1,244
68,629	-3	-1,336
70,771	-3	-1,332
72,919	-4	-1,423
75,061	-4,5	-1,537
77,203	-4,5	-1,561
79,351	-5	-1,732
81,493	-5	-1,794
83,635	-5,5	-1,887
85,77	-5,5	-1,891
87,912	-5,5	-1,978
90,06	-6	-1,964
92,202	-6	-1,977
94,356	-6,5	-2,077
96,492	-6,5	-2,194
98,634	-8	-2,259
100,776	-8,5	-2,385
102,917	-9	-2,398
105,071	-9	-2,53
107,207	-9	-2,518
109,349	-9	-2,563
111,491	-10	-2,672
113,633	-11	-2,738
115,769	-10,5	-2,739
117,91	-10,5	-2,789
120,052	-12	-2,844
122,2	-12	-2,888
124,348	-12,5	-3,038
126,49	-13	-3,12
128,626	-13,5	-3,15
130,768	-14	-3,235
132,904	-14,5	-3,263
135,058	-15	-3,306
137,199	-15	-3,329
139,341	-15,5	-3,346
141,489	-15,5	-3,366
143,643	-17	-3,409
145,779	-17	-3,423
147,921	-17	-3,423
150,069	-17,5	-3,446
152,205	-17,5	-3,448
154,352	-18	-3,456
156,512	-18	-3,462
158,648	-18	-3,46
160,79	-18,5	-3,47
162,926	-18	-3,466
165,062	-18	-3,466
167,198	-18	-3,462
169,34	-18	-3,465
171,481	-18	-3,465
173,629	-18	-3,467
175,777	-18	-3,474
177,931	-18,5	-3,483
180,079	-18,5	-3,486
182,227	-18,5	-3,49
184,375	-18,5	-3,493
186,511	-18,5	-3,491
188,658	-18,5	-3,492
190,8	-18,5	-3,493
192,948	-18,5	-3,493
195,084	-18,5	-3,49
197,232	-18,5	-3,493
199,374	-18,5	-3,493
201,522	-18,5	-3,494
203,658	-18,5	-3,493
205,811	-18	-3,495
207,953	-18	-3,496
210,095	-18	-3,496
212,243	-18	-3,496
214,403	-18	-3,497
216,551	-18	-3,498
218,687	-18	-3,498
220,835	-18	-3,498
222,988	-18	-3,499
225,13	-18	-3,499
227,272	-18	-3,499
229,42	-18	-3,499
231,556	-18	-3,499
233,71	-18	-3,499
235,858	-18	-3,499
238,012	-18	-3,499
240,153	-18	-3,499
242,295	-18	-3,499
244,437	-18	-3,499
246,579	-18	-3,499
248,727	-18	-3,499
250,869	-18	-3,499
253,011	-18	-3,499
255,165	-18	-3,499
257,313	-18	-3,498
259,454	-18	-3,498
261,596	-18	-3,497
263,75	-18	-3,498
265,898	-18	-3,498
268,04	-18	-3,498
270,2	-18	-3,498
272,354	-17,5	-3,498
274,502	-18	-3,498
276,643	-17,5	-3,498
278,797	-18	-3,499
280,945	-17,5	-3,499
283,087	-17,5	-3,499
285,235	-17,5	-3,499
287,383	-17,5	-3,499
289,525	-17,5	-3,499
291,667	-17,5	-3,499
293,826	-18	-3,499
295,974	-17,5	-3,5
298,116	-17,5	-3,499
300,258	-17,5	-3,5
302,406	-17,5	-3,475
304,548	-17,5	-3,5
306,696	-17,5	-3,5
308,844	-17,5	-3,486
310,992	-17,5	-3,444
313,145	-17,5	-3,338
315,293	-17,5	-3,265
317,447	-17,5	-3,262
319,589	-17	-3,208
321,743	-17	-3,194
323,885	-17,5	-3,235
326,033	-17	-3,174
328,18	-16	-3,093
330,328	-16	-3,049
332,482	-14,5	-2,918
334,618	-15	-2,897
336,772	-14	-2,839
338,926	-12,5	-2,702
341,08	-12	-2,682
343,216	-13	-2,698
345,364	-12,5	-2,698
347,505	-11	-2,557
349,659	-11,5	-2,584
351,801	-11,5	-2,576
353,955	-12	-2,562
356,097	-11	-2,467
358,251	-10	-2,383
360,399	-9,5	-2,352
362,546	-9,5	-2,34
364,688	-10,5	-2,407
366,836	-9,5	-2,384
368,985	-9	-2,268
371,132	-8,5	-2,198
373,28	-8,5	-2,197
375,422	-7,5	-2,077
377,576	-6	-1,93
379,724	-5,5	-1,865
381,877	-4,5	-1,749
384,013	-5	-1,718
386,161	-4,5	-1,674
388,315	-3,5	-1,528
390,463	-3	-1,457
392,612	-3,5	-1,429
394,753	-3	-1,294
396,907	-2,5	-1,209
399,054	-2	-1,092
401,196	-1,5	-1,097
403,338	-1,5	-1,136
405,486	-1,5	-1,076
407,64	-1	-0,992
409,788	-1	-0,986
411,936	-1	-0,927
414,09	-1	-0,848
416,237	-0,5	-0,82
418,385	0	-0,659
420,533	0	-0,537
422,687	0	-0,462
424,847	0,5	-0,361
427,001	0,5	-0,264
429,149	1	-0,206
431,297	1,5	-0,152
433,444	1,5	-0,122
435,592	2	-0,102
437,74	2	-0,087
439,882	2	-0,116
442,03	1,5	-0,105
444,178	2	-0,091
446,326	2,5	-0,062
448,48	2	-0,106
450,628	1,5	-0,109
452,775	2,5	-0,063
454,923	2,5	-0,044
457,065	3	-0,045
459,213	3	-0,031
461,367	3	-0,018
463,515	3	-0,025
465,663	3	-0,031
467,816	3	-0,034
469,959	2,5	-0,058
472,106	2,5	-0,054
474,254	2,5	-0,052
476,402	3	-0,049
478,55	3	-0,036
480,716	3	-0,024
482,864	3	-0,02
485,005	3	-0,02
487,153	3	-0,011
489,307	3	-0,007
491,455	3	-0,006
493,603	3	-0,005
495,745	3	-0,004
497,899	3	-0,002
500,047	3	-0,002
502,195	3	-0,001
504,348	3	-0,001
506,496	3	-0,001
508,638	3	0
510,804	3	-0,113
512,946	3	-0,275
515,094	2,5	-0,41
517,242	2	-0,549
519,39	0	-0,726
521,537	0	-0,907
523,685	-1,5	-1,152
525,833	-2	-1,233
527,975	-2,5	-1,357
530,129	-2,5	-1,393
532,277	-2,5	-1,504
534,431	-3	-1,659
536,585	-3,5	-1,914
538,732	-4,5	-2,005
540,88	-5	-2,197
543,034	-6	-2,365
545,188	-7,5	-2,561
547,33	-8	-2,66
549,484	-9	-2,898
551,632	-10	-2,994
553,786	-12	-3,185
555,934	-13,5	-3,347
558,087	-15	-3,416
560,235	-15	-3,442
562,377	-15,5	-3,462
564,525	-16	-3,476
566,667	-16	-3,48
568,821	-16	-3,485
570,969	-16	-3,491
573,122	-16	-3,496
575,276	-16,5	-3,497
577,436	-16	-3,498
579,584	-16	-3,499
581,732	-16,5	-3,499
583,88	-16,5	-3,499
586,04	-16	-3,5
588,188	-16,5	-3,369
590,347	-16	-3,256
592,502	-16,5	-3,159
594,643	-15	-3,108
596,791	-15	-3,054
598,939	-14,5	-2,908
601,087	-12	-2,717
603,235	-11,5	-2,647
605,389	-10,5	-2,537
607,536	-10	-2,467
609,69	-10	-2,458
611,844	-10	-2,485
613,992	-9,5	-2,384
616,146	-8	-2,262
618,294	-7,5	-2,17
620,436	-7,5	-2,152
622,584	-6,5	-2,082
624,725	-6,5	-2,053
626,861	-6	-2,016
629,015	-5,5	-1,854
631,163	-4	-1,688
633,311	-4	-1,624
635,465	-3	-1,475
637,613	-3	-1,336
639,755	-2,5	-1,292
641,903	-1,5	-1,221
644,05	-1,5	-1,13
646,204	-0,5	-0,955
648,352	-0,5	-0,886
650,494	-0,5	-0,76
652,642	0	-0,686
654,784	0	-0,582
656,938	0,5	-0,455
659,092	1	-0,234
661,239	1,5	-0,154
663,387	1,5	-0,126
665,535	2	-0,086
667,677	2,5	-0,06
669,825	3	-0,047
671,967	3	-0,036
674,127	3	-0,023
676,287	3	-0,009
678,434	3	-0,006
680,588	3	-0,004
682,736	3,5	-0,003
684,878	3	-0,002
687,032	3	-0,001
689,18	3	-0,001
691,328	3	-0,001
693,476	3,5	-0,094
695,623	3	-0,234
697,771	3	-0,344
699,925	1,5	-0,524
702,067	1,5	-0,585
704,221	0	-0,754
706,363	0	-0,847
708,535	-1,5	-1,09
710,683	-1,5	-1,122
712,824	-1,5	-1,168
714,972	-1,5	-1,223
717,132	-2,5	-1,389
719,274	-2,5	-1,451
721,422	-3	-1,637
723,57	-3	-1,777
725,724	-4	-1,935
727,872	-4,5	-2,069
730,007	-4,5	-2,085
732,149	-4,5	-2,107
734,291	-5	-2,148
736,445	-5,5	-2,252
738,593	-6	-2,338
740,741	-6,5	-2,477
742,889	-6,5	-2,558
745,037	-7,5	-2,666
747,185	-7,5	-2,713
749,332	-9	-2,81
751,48	-9	-2,858
753,622	-9,5	-2,989
755,77	-10	-3,07
757,918	-10,5	-3,107
760,066	-11,5	-3,233
762,22	-13	-3,335
764,368	-13,5	-3,379
766,515	-14,5	-3,408
768,669	-14	-3,425
770,823	-15	-3,44
772,977	-15	-3,462
775,119	-15	-3,471
777,273	-15	-3,479
779,421	-15,5	-3,483
781,563	-15,5	-3,485
783,704	-15,5	-3,487
785,858	-15,5	-3,49
788,012	-15,5	-3,493
790,166	-15,5	-3,497
792,314	-15,5	-3,498
794,45	-15,5	-3,498
796,604	-15,5	-3,498
798,752	-15,5	-3,498
800,905	-15,5	-3,498
803,053	-15,5	-3,499
805,195	-15,5	-3,499
807,343	-15,5	-3,499
809,491	-15,5	-3,5
811,633	-15,5	-3,5
813,787	-15,5	-3,498
815,929	-15,5	-3,499
818,076	-15,5	-3,432
820,224	-15,5	-3,395
822,372	-15,5	-3,255
824,526	-15,5	-3,159
826,668	-15	-3,102
828,816	-14,5	-3,048
830,964	-14	-2,967
833,118	-12,5	-2,873
835,265	-12,5	-2,814
837,419	-12	-2,75
839,567	-10,5	-2,656
841,715	-10	-2,6
843,863	-10,5	-2,615
846,017	-9	-2,468
848,159	-9,5	-2,513
850,307	-8,5	-2,464
852,455	-9	-2,448
854,602	-9	-2,414
856,75	-7,5	-2,334
858,892	-7,5	-2,246
861,046	-6,5	-2,199
863,194	-6,5	-2,145
865,33	-7	-2,243
867,478	-7,5	-2,258
869,626	-6	-2,114
871,773	-6	-2,085
873,921	-6	-2,042
876,069	-5,5	-2,053
878,217	-5	-1,897
880,365	-4,5	-1,816
882,513	-4	-1,725
884,661	-4,5	-1,752
886,803	-4	-1,728
888,95	-4	-1,738
891,092	-3,5	-1,698
893,24	-3,5	-1,664
895,382	-3,5	-1,583
897,536	-3	-1,578
899,684	-2,5	-1,519
901,838	-2,5	-1,467
903,986	-2,5	-1,466
906,133	-2	-1,402
908,279	-3	-1,459
910,423	-2,5	-1,452
912,571	-2	-1,382
914,713	-2,5	-1,444
916,867	-2	-1,364
919,015	-2,5	-1,432
921,157	-2,5	-1,355
923,322	-1,5	-1,27
925,464	-2	-1,342
927,612	-2	-1,33
929,754	-2	-1,386
931,902	-2	-1,38
934,056	-2	-1,291
936,21	-1	-1,202
938,352	-2	-1,214
940,499	-1	-1,108
942,647	-0,5	-1,068
944,789	-1	-1,068
946,937	-1	-1,098
949,097	-0,5	-0,926
951,245	0	-0,808
953,393	0	-0,68
955,541	0	-0,638
957,694	0	-0,611
959,842	0	-0,632
961,984	0	-0,672
964,132	0	-0,767
966,286	0	-0,56
968,434	0,5	-0,443
970,582	0,5	-0,352
972,736	0,5	-0,311
974,878	1	-0,292
977,031	1,5	-0,217
979,173	1,5	-0,194
981,327	1,5	-0,185
983,475	1	-0,188
985,617	1	-0,206
987,771	1,5	-0,151
989,913	1,5	-0,165
992,049	1,5	-0,152
994,202	1,5	-0,124
996,344	2	-0,102
998,486	2,5	-0,073
1000,64	2,5	-0,054
1002,782	2,5	-0,048
1004,93	2,5	-0,052
1007,072	2,5	-0,074
1009,22	2,5	-0,049
1011,361	3	-0,049
1013,509	2,5	-0,048
1015,657	3	-0,043
1017,799	3	-0,036
1019,947	3	-0,023
1022,101	3	-0,016
1024,243	3	-0,024
1026,397	3	-0,022
1028,538	3	-0,02
1030,692	3	-0,024
1032,84	3	-0,023
1034,982	3	-0,023
1037,136	3	-0,028
1039,284	3	-0,033
1041,426	2,5	-0,056
1043,574	2,5	-0,056
1045,715	2,5	-0,04
1047,863	3	-0,031
1050,017	2,5	-0,036
1052,159	2,5	-0,054
1054,313	2	-0,064
1056,461	2,5	-0,051
1058,609	3	-0,034
1060,751	3	-0,028
1062,892	3	-0,024
1065,04	3	-0,016
1067,182	3	-0,014
1069,336	3	-0,008
1071,484	3	-0,006
1073,62	3	-0,004
1075,768	3,5	-0,003
1077,916	3	-0,002
1080,063	3	-0,002
1082,205	3	-0,002
1084,359	3	-0,002
1086,501	3	-0,001
1088,655	3	-0,001
1090,809	3	0
1092,957	3	0
1095,111	3	-0,132
1097,252	3	-0,102
1099,406	3	-0,179
1101,554	3	-0,319
1103,708	2,5	-0,427
1105,862	2	-0,51
1108,004	1,5	-0,572
1110,158	0	-0,746
1112,306	0	-0,832
1114,448	-0,5	-0,947
1116,589	-1	-1,045
1118,737	-1,5	-1,164
1120,879	-1	-1,144
1123,027	-1	-1,177
1125,181	-1	-1,23
1127,323	-1,5	-1,263
1129,471	-1,5	-1,344
1131,613	-1,5	-1,385
1133,755	-2	-1,461
1135,908	-2,5	-1,582
1138,05	-2	-1,627
1140,198	-2,5	-1,628
1142,34	-2,5	-1,615
1144,494	-2,5	-1,571
1146,642	-2	-1,6
1148,796	-2,5	-1,613
1150,937	-2,5	-1,637
1153,085	-2,5	-1,717
1155,227	-2,5	-1,731
1157,369	-2,5	-1,654
1159,523	-2,5	-1,684
1161,677	-2,5	-1,716
1163,819	-2,5	-1,697
1165,967	-3	-1,782
1168,108	-3	-1,801
1170,256	-3	-1,92
1172,404	-3	-1,904
1174,552	-3,5	-1,99
1176,694	-3	-1,822
1178,848	-3	-1,837
1180,996	-3	-1,849
1183,144	-3	-1,849
1185,291	-3	-1,807
1187,439	-3	-1,872
1189,593	-3	-1,935
1191,735	-3	-1,761
1193,889	-2,5	-1,696
1196,031	-2,5	-1,636
1198,185	-3	-1,741
1200,333	-3	-1,8
1202,475	-3	-1,717
1204,622	-2,5	-1,686
1206,764	-2,5	-1,571
1208,906	-2	-1,5
1211,054	-2	-1,496
1213,196	-2	-1,466
1215,344	-2	-1,35
1217,492	-1,5	-1,297
1219,634	-1,5	-1,269
1221,781	-1,5	-1,227
1223,923	-1,5	-1,149
1226,065	-1	-1,084
1228,207	-1,5	-1,14
1230,355	-1	-1,056
1232,497	-1	-1,111
1234,645	-1,5	-1,154
1236,781	-0,5	-1,026
1238,928	-1	-1,021
1241,076	-0,5	-0,904
1243,224	-0,5	-0,943
1245,372	0	-0,9
1247,52	0	-0,737
1249,662	0	-0,729
1251,81	0,5	-0,686
1253,952	0	-0,762
1256,105	0	-0,763
1258,247	0,5	-0,681
1260,389	0,5	-0,7
1262,531	0,5	-0,691
1264,673	0,5	-0,677
1266,821	0	-0,705
1268,963	1	-0,638
1271,123	2	-0,662
1273,264	1	-0,612
1275,412	1	-0,634
1277,554	2	-0,594
1279,702	1	-0,585
1281,838	2	-0,572
1283,986	1,5	-0,552
1286,128	1	-0,608
1288,276	1,5	-0,571
1290,423	1,5	-0,513
1292,565	2	-0,478
1294,707	2	-0,497
1296,843	2	-0,439
1298,985	2,5	-0,431
1301,127	2	-0,465
1303,269	3	-0,355
1305,411	2,5	-0,379
1307,552	3	-0,334
1309,694	3	-0,299
1311,842	3	-0,278
1313,978	3	-0,212
1316,126	3	-0,212
1318,268	3	-0,275
1320,416	3	-0,26
1322,558	2,5	-0,279
1324,7	3	-0,217
1326,847	3	-0,341
1328,995	2,5	-0,406
1331,143	1	-0,572
1333,285	1	-0,58
1335,439	0	-0,701
1337,581	0	-0,758
1339,729	0	-0,856
1341,87	-0,5	-0,963
1344,018	-1	-1,022
1346,172	-1	-1,09
1348,314	-1,5	-1,189
1350,462	-1,5	-1,237
1352,604	-1,5	-1,165
1354,752	-1,5	-1,188
1356,894	-1	-1,211
1359,042	-1,5	-1,206
1361,189	-1,5	-1,346
1363,331	-2	-1,45
1365,473	-2	-1,484
1367,621	-2,5	-1,528
1369,763	-2,5	-1,535
1371,905	-2,5	-1,58
1374,053	-2,5	-1,64
1376,195	-2,5	-1,659
1378,349	-2,5	-1,726
1380,49	-3	-1,787
1382,638	-3	-1,82
1384,78	-3	-1,78
1386,928	-3	-1,824
1389,076	-3	-1,888
1391,218	-3	-1,886
1393,366	-3	-1,854
1395,507	-3	-1,861
1397,655	-3	-1,926
1399,797	-3	-1,886
1401,945	-3	-1,967
1404,087	-3	-2,012
1406,235	-4	-2,056
1408,377	-3,5	-2,037
1410,513	-3,5	-2,02
1412,66	-4	-2,091
1414,802	-4,5	-2,205
1416,95	-4	-2,199
1419,092	-5	-2,24
1421,24	-5	-2,337
1423,382	-5,5	-2,461
1425,524	-6	-2,565
1427,672	-7	-2,657
1429,808	-7,5	-2,778
1431,949	-8	-2,796
1434,091	-8	-2,831
1436,233	-9	-2,935
1438,381	-8	-2,866
1440,523	-8,5	-2,89
1442,665	-7,5	-2,802
1444,813	-7,5	-2,777
1446,955	-8	-2,843
1449,108	-9	-2,875
1451,25	-9	-2,898
1453,392	-8,5	-2,916
1455,534	-8,5	-2,888
1457,676	-8,5	-2,916
1459,818	-9	-2,972
1461,96	-8	-2,906
1464,102	-7,5	-2,829
1466,249	-8	-2,84
1468,391	-8,5	-2,876
1470,539	-9	-2,976
1472,675	-9,5	-3,024
1474,817	-9	-3,031
1476,965	-8,5	-2,952
1479,107	-8,5	-2,896
1481,249	-8	-2,788
1483,397	-6,5	-2,665
1485,538	-5,5	-2,596
1487,686	-6,5	-2,7
1489,834	-7	-2,788
1491,976	-7,5	-2,838
1494,118	-7	-2,755
1496,266	-7,5	-2,767
1498,414	-6	-2,646
1500,555	-5,5	-2,536
1502,703	-4,5	-2,382
1504,851	-4,5	-2,256
1506,993	-4	-2,141
1509,141	-3,5	-2,062
1511,283	-3	-2,022
1513,425	-3,5	-1,957
1515,573	-3,5	-2,027
1517,708	-3,5	-2,052
1519,856	-3	-2,02
1521,998	-3	-1,996
1524,14	-3	-1,888
1526,282	-2,5	-1,843
1528,424	-2,5	-1,766
1530,566	-2,5	-1,646
1532,714	-2	-1,583
1534,85	-2	-1,428
1536,997	-1,5	-1,328
1539,139	-1,5	-1,346
1541,281	-1	-1,248
1543,429	-1	-1,174
1545,571	-1	-1,118
1547,713	-1	-1,126
1549,861	-1	-1,132
1552,003	-1	-1,061
1554,144	-0,5	-0,941
1556,292	0	-0,872
1558,434	0	-0,897
1560,576	0	-0,846
1562,718	0	-0,891
1564,86	0	-0,98
1567,002	-0,5	-0,918
1569,144	-0,5	-0,984
1571,285	-0,5	-1,035
1573,433	-0,5	-1,078
1575,569	-0,5	-1,088
1577,717	-1	-1,089
1579,859	-0,5	-1,107
1582,001	-1	-1,131
1584,155	-1	-1,221
1586,297	-1	-1,228
1588,438	-1,5	-1,333
1590,586	-2	-1,407
1592,728	-2	-1,5
1594,87	-2	-1,519
1597,018	-2	-1,61
1599,16	-2,5	-1,65
1601,308	-3	-1,821
1603,45	-3	-1,893
1605,591	-3,5	-2,023
1607,745	-4	-2,155
1609,887	-4	-2,146
1612,023	-4	-2,183
1614,171	-4,5	-2,242
1616,313	-5	-2,39
1618,455	-5,5	-2,508
1620,603	-6	-2,647
1622,744	-6,5	-2,699
1624,886	-7,5	-2,854
1627,034	-8	-2,936
1629,176	-7,5	-2,992
1631,312	-9	-3,072
1633,46	-10,5	-3,223
1635,602	-10,5	-3,239
1637,75	-9,5	-3,273
1639,891	-11	-3,336
1642,033	-11,5	-3,357
1644,181	-13	-3,412
1646,323	-13	-3,416
1648,471	-13,5	-3,446
1650,619	-14	-3,457
1652,761	-14	-3,464
1654,903	-14	-3,467
1657,045	-14,5	-3,48
1659,186	-14,5	-3,481
1661,328	-14,5	-3,484
1663,476	-14,5	-3,484
1665,618	-14,5	-3,487
1667,766	-14,5	-3,49
1669,902	-14,5	-3,491
1672,044	-14,5	-3,491
1674,192	-14,5	-3,494
1676,333	-14,5	-3,493
1678,475	-14,5	-3,493
1680,623	-14,5	-3,492
1682,765	-14,5	-3,491
1684,907	-14,5	-3,492
1687,055	-15	-3,493
1689,197	-14,5	-3,493
1691,345	-14,5	-3,493
1693,486	-14,5	-3,494
1695,628	-14,5	-3,494
1697,77	-15	-3,491
1699,918	-14,5	-3,488
1702,06	-14,5	-3,488
1704,202	-14,5	-3,489
1706,344	-14,5	-3,483
1708,486	-14,5	-3,478
1710,627	-14,5	-3,48
1712,775	-14,5	-3,483
1714,917	-14,5	-3,487
1717,059	-14,5	-3,488
1719,213	-14,5	-3,492
1721,355	-14,5	-3,494
1723,497	-14,5	-3,495
1725,645	-14,5	-3,497
1727,786	-15	-3,497
1729,928	-14,5	-3,497
1732,076	-14,5	-3,497
1734,212	-14,5	-3,497
1736,354	-14,5	-3,498
1738,502	-14,5	-3,498
1740,644	-14,5	-3,499
1742,786	-14,5	-3,499
1744,933	-14,5	-3,499
1747,075	-14,5	-3,499
1749,217	-15	-3,499
1751,359	-14,5	-3,499
1753,501	-14,5	-3,499
1755,643	-14,5	-3,499
1757,791	-14,5	-3,492
1759,933	-14,5	-3,486
1762,074	-14,5	-3,348
1764,216	-14	-3,16
1766,358	-14	-3,158
1768,5	-13,5	-3,074
1770,642	-13,5	-3,1
1772,778	-14	-3,137
1774,92	-13,5	-3,086
1777,068	-13	-3,064
1779,21	-13	-3,05
1781,351	-13,5	-3,124
1783,499	-14,5	-3,187
1785,641	-14,5	-3,179
1787,783	-14	-3,118
1789,931	-12,5	-3,03
1792,073	-12	-2,959
1794,215	-11,5	-2,893
1796,357	-10	-2,726
1798,505	-10	-2,681
1800,646	-8,5	-2,583
1802,794	-8	-2,486
1804,936	-7,5	-2,36
1807,078	-7	-2,316
1809,226	-5,5	-2,235
1811,368	-4,5	-2,042
1813,51	-4	-1,838
1815,657	-3	-1,677
1817,799	-2,5	-1,552
1819,947	-1,5	-1,29
1822,095	-1	-1,146
1824,237	-0,5	-1,028
1826,379	-0,5	-0,912
1828,527	0	-0,794
1830,669	0	-0,696
1832,81	0	-0,555
1834,958	0,5	-0,412
1837,1	0,5	-0,297
1839,242	1,5	-0,184
1841,384	2	-0,12
1843,526	2	-0,083
1845,668	2,5	-0,058
1847,816	3	-0,037
1849,957	3	-0,025
1852,093	3	-0,017
1854,241	3	-0,011
1856,383	3	-0,007
1858,525	3	-0,006
1860,673	3	-0,002
1862,815	3	-0,002
1864,958	3	-0,001
1867,093	3	-0,001
1869,24	3	-0,012
1871,382	3,5	-0,153
1873,524	3	-0,018
1875,672	3	-0,022
1877,814	3	-0,101
1879,956	3	-0,293
1882,098	3	-0,36
1884,24	2	-0,496
1886,381	1	-0,574
1888,529	0	-0,734
1890,671	0	-0,794
1892,813	-0,5	-0,952
1894,955	-0,5	-1,045
1897,109	-1	-1,213
1899,251	-1	-1,317
1901,393	-1,5	-1,41
1903,54	-2	-1,618
1905,676	-2	-1,666
1907,818	-2,5	-1,764
1909,966	-3	-1,908
1912,102	-3	-1,94
1914,244	-3,5	-1,984
1916,386	-4	-2,137
1918,534	-4,5	-2,275
1920,675	-4,5	-2,357
1922,817	-5,5	-2,546
1924,965	-6	-2,669
1927,107	-7	-2,789
1929,249	-7,5	-2,844
1931,391	-8,5	-3,049
1933,539	-10,5	-3,204
1935,675	-9	-3,097
1937,816	-10	-3,256
1939,964	-11,5	-3,342
1942,106	-12,5	-3,402
1944,248	-13,5	-3,433
1946,39	-12,5	-3,415
1948,538	-14	-3,448
1950,68	-14	-3,459
1952,822	-14	-3,463
1954,969	-14	-3,476
1957,111	-14	-3,47
1959,259	-14	-3,474
1961,395	-14	-3,479
1963,543	-14	-3,485
1965,685	-14	-3,49
1967,833	-14	-3,492
1969,975	-14,5	-3,494
1972,117	-14,5	-3,496
1974,258	-14,5	-3,496
1976,4	-14,5	-3,496
1978,548	-14,5	-3,497
1980,69	-14,5	-3,496
1982,838	-14,5	-3,497
1984,98	-14,5	-3,498
1987,122	-14,5	-3,498
1989,264	-14,5	-3,498
1991,417	-14,5	-3,498
1993,559	-14,5	-3,498
1995,701	-14,5	-3,499
1997,843	-14,5	-3,499
1999,985	-14,5	-3,499
2002,127	-14,5	-3,5
2004,269	-14,5	-3,482
2006,411	-14,5	-3,332
2008,559	-14	-3,177
2010,7	-13	-3,055
2012,842	-11,5	-2,894
2014,99	-11	-2,788
2017,132	-11	-2,753
2019,274	-10	-2,718
2021,416	-10	-2,752
2023,564	-9	-2,582
2025,706	-7,5	-2,429
2027,847	-7	-2,321
2029,995	-5,5	-2,144
2032,137	-4,5	-1,967
2034,285	-4	-1,801
2036,427	-3,5	-1,756
2038,575	-3	-1,76
2040,717	-3	-1,668
2042,852	-2,5	-1,598
2045	-2,5	-1,497
2047,142	-2	-1,378
2049,284	-1,5	-1,311
2051,432	-1	-1,225
2053,574	-1	-1,223
2055,716	-0,5	-1,088
2057,858	0	-0,935
2059,999	0	-0,853
2062,147	0	-0,757
2064,289	0	-0,6
2066,431	0,5	-0,502
2068,585	0	-0,454
2070,727	0,5	-0,356
2072,869	1	-0,225
2075,011	1,5	-0,166
2077,159	1,5	-0,121
2079,3	2	-0,089
2081,442	2	-0,082
2083,584	2	-0,09
2085,732	2,5	-0,067
2087,874	2,5	-0,056
2090,016	2,5	-0,042
2092,158	3	-0,039
2094,306	3	-0,03
2096,441	3	-0,03
2098,583	3	-0,021
2100,731	3	-0,012
2102,873	3	-0,008
2105,015	3	-0,008
2107,157	3,5	-0,006
2109,299	3,5	-0,004
2111,441	3,5	-0,003
2113,582	3	-0,002
2115,724	3	-0,002
2117,872	3	-0,002
2120,014	3	-0,002
2122,156	3,5	-0,002
2124,298	3,5	-0,001
2126,452	3	-0,001
2128,594	3	0
2130,735	3,5	-0,001
2132,883	3	-0,001
2135,025	3	-0,001
2137,167	3	-0,001
2139,309	3	-0,001
2141,457	3,5	-0,001
2143,599	3	-0,001
2145,735	3	-0,001
2147,876	3	-0,001
2150,024	3	0
2152,166	3	-0,001
2154,308	3	-0,001
2156,45	3	-0,001
2158,598	3,5	-0,002
2160,74	3	-0,001
2162,882	3	-0,001
2165,023	3	-0,004
2167,171	3,5	-0,006
2169,313	3	-0,01
2171,455	3	-0,01
2173,597	3	-0,028
2175,751	3	-0,027
2177,893	3	-0,03
2180,035	3	-0,022
2182,177	3	-0,046
2184,324	3	-0,041
2186,466	3	-0,045
2188,614	2	-0,063
2190,756	2	-0,066
2192,904	1,5	-0,127
2195,046	1	-0,3
2197,2	0,5	-0,296
2199,336	1	-0,352
2201,483	1	-0,281
2203,625	0,5	-0,484
2205,767	0	-0,716
2207,909	-0,5	-0,932
2210,057	-1,5	-1,208
2212,199	-2	-1,444
2214,341	-3	-1,702
2216,495	-4,5	-1,926
2218,636	-5,5	-2,204
2220,778	-5	-2,096
2222,914	-5	-2,07
2225,062	-4,5	-2,069
2227,204	-4,5	-2,051
2229,346	-4,5	-2,069
2231,488	-4,5	-2,024
2233,636	-4,5	-1,954
2235,777	-4,5	-2,01
2237,919	-5	-2,157
2240,061	-5,5	-2,265
2242,203	-6,5	-2,369
2244,351	-6,5	-2,347
2246,493	-6	-2,312
2248,635	-10	-2,74
2250,783	-9,5	-2,744
2252,924	-10	-2,804
2255,066	-11,5	-2,931
2257,208	-13,5	-3,153
2259,356	-14	-3,289
2261,498	-14	-3,351
2263,646	-14	-3,447
2265,782	-14	-3,5
2267,93	-14	-3,5
2270,071	-14	-3,499
2272,213	-14	-3,499
2274,355	-14	-3,498
2276,497	-14	-3,497
2278,645	-14	-3,497
2280,787	-14	-3,494
2282,935	-13,5	-3,49
2285,083	-13,5	-3,487
2287,225	-13	-3,449
2289,366	-13	-3,456
2291,508	-12,5	-3,44
2293,656	-12,5	-3,422
2295,798	-12	-3,404
2297,94	-12,5	-3,427
2300,082	-12	-3,412
2302,224	-12,5	-3,421
2304,372	-12,5	-3,437
2306,513	-12,5	-3,448
2308,655	-13,5	-3,456
2310,797	-12,5	-3,444
2312,951	-13	-3,454
2315,093	-12,5	-3,44
2317,235	-12	-3,409
2319,377	-12	-3,38
2321,525	-12	-3,402
2323,66	-12	-3,395
2325,808	-12	-3,423
2327,95	-12,5	-3,43
2330,098	-13	-3,444
2332,24	-13	-3,457
2334,382	-13	-3,458
2336,524	-13	-3,459
2338,672	-13	-3,463
2340,813	-13,5	-3,474
2342,961	-13,5	-3,481
2345,097	-13,5	-3,482
2347,245	-13,5	-3,484
2349,387	-13	-3,478
2351,529	-13,5	-3,485
2353,683	-13,5	-3,493
2355,831	-13,5	-3,494
2357,972	-13,5	-3,496
2360,114	-13,5	-3,496
2362,256	-13,5	-3,495
2364,404	-13,5	-3,495
2366,546	-13,5	-3,495
2368,682	-13,5	-3,49
2370,824	-13,5	-3,492
2372,972	-13,5	-3,49
2375,119	-13	-3,485
2377,261	-12,5	-3,452
2379,403	-12,5	-3,469
2381,545	-13	-3,478
2383,693	-13	-3,487
2385,835	-13,5	-3,486
2387,977	-13	-3,483
2390,125	-13	-3,48
2392,267	-13	-3,477
2394,408	-12,5	-3,469
2396,556	-13	-3,474
2398,698	-13	-3,47
2400,846	-12,5	-3,464
2402,988	-12,5	-3,458
2405,136	-12,5	-3,463
2407,272	-12,5	-3,467
2409,42	-12,5	-3,45
2411,561	-12,5	-3,468
2413,703	-13	-3,479
2415,851	-13	-3,485
2417,993	-13	-3,488
2420,135	-13	-3,489
2422,271	-13,5	-3,492
2424,413	-13	-3,495
2426,561	-13,5	-3,497
2428,696	-13,5	-3,497
2430,838	-13	-3,498
2432,98	-13,5	-3,498
2435,128	-13,5	-3,498
2437,276	-13,5	-3,499
2439,418	-13,5	-3,499
2441,554	-13,5	-3,499
2443,696	-13,5	-3,499
2445,838	-13,5	-3,498
2447,973	-13,5	-3,498
2450,115	-13	-3,498
2452,257	-13	-3,499
2454,405	-13	-3,498
2456,547	-13	-3,497
2458,689	-13	-3,497
2460,825	-13	-3,496
2462,966	-13	-3,497
2465,108	-13,5	-3,496
2467,25	-13	-3,494
2469,392	-13	-3,494
2471,54	-13	-3,492
2473,682	-13	-3,487
2475,824	-13	-3,489
2477,966	-13	-3,487
2480,107	-13	-3,49
2482,255	-13	-3,49
2484,397	-13	-3,488
2486,539	-12,5	-3,475
2488,681	-13	-3,478
2490,829	-13	-3,485
2492,971	-13	-3,486
2495,113	-13	-3,485
2497,255	-12,5	-3,467
2499,402	-13	-3,471
2501,544	-12	-3,45
2503,686	-11,5	-3,415
2505,828	-11	-3,4
2507,976	-10	-3,365
2510,118	-8,5	-3,227
2512,26	-8	-3,13
2514,402	-8,5	-3,206
2516,543	-9	-3,267
2518,691	-9	-3,26
2520,833	-9	-3,299
2522,975	-9,5	-3,333
2525,117	-10	-3,379
2527,265	-11	-3,416
2529,407	-12	-3,448
2531,549	-12	-3,46
2533,691	-12	-3,466
2535,832	-12,5	-3,468
2537,974	-12	-3,471
2540,116	-12,5	-3,475
2542,264	-12,5	-3,479
2544,412	-12,5	-3,48
2546,548	-12,5	-3,478
2548,69	-12,5	-3,477
2550,837	-12,5	-3,484
2552,985	-12,5	-3,486
2555,121	-12,5	-3,49
2557,263	-12,5	-3,491
2559,405	-12,5	-3,494
2561,547	-12,5	-3,495
2563,701	-12,5	-3,497
2565,843	-12,5	-3,494
2567,984	-12,5	-3,496
2570,126	-12,5	-3,497
2572,274	-12,5	-3,495
2574,416	-12,5	-3,496
2576,558	-12,5	-3,497
2578,7	-12,5	-3,498
2580,842	-12,5	-3,498
2582,99	-12,5	-3,498
2585,132	-12,5	-3,498
2587,273	-12,5	-3,499
2589,415	-12,5	-3,499
2591,563	-12,5	-3,499
2593,705	-12,5	-3,5
2595,847	-12,5	-3,5
2597,989	-12,5	-3,499
2600,137	-12,5	-3,413
2602,279	-12,5	-3,414
2604,42	-12,5	-3,353
2606,556	-12,5	-3,388
2608,698	-12,5	-3,26
2610,846	-12,5	-3,214
2612,988	-12,5	-3,172
2615,13	-12,5	-3,176
2617,272	-12	-3,157
2619,425	-11,5	-3,083
2621,567	-11,5	-3,038
2623,709	-11,5	-3,046
2625,851	-11,5	-3,022
2627,999	-9,5	-2,866
2630,141	-8	-2,752
2632,283	-8	-2,718
2634,425	-8,5	-2,773
2636,567	-7,5	-2,659
2638,714	-6	-2,563
2640,856	-7	-2,598
2642,998	-7	-2,594
2645,134	-7	-2,628
2647,282	-6,5	-2,558
2649,424	-7,5	-2,618
2651,566	-7	-2,552
2653,708	-7	-2,592
2655,849	-7,5	-2,626
2657,997	-7,5	-2,668
2660,139	-7,5	-2,692
2662,281	-7,5	-2,705
2664,429	-8	-2,721
2666,565	-7,5	-2,622
2668,701	-7	-2,637
2670,843	-6,5	-2,565
2672,984	-6,5	-2,574
2675,126	-6	-2,507
2677,274	-5,5	-2,432
2679,416	-5	-2,343
2681,552	-5	-2,308
2683,688	-5,5	-2,35
2685,836	-5	-2,318
2687,978	-4,5	-2,256
2690,12	-4	-2,138
2692,261	-4	-2,086
2694,408	-3	-1,948
2696,551	-3	-1,977
2698,693	-3	-1,916
2700,835	-2,5	-1,929
2702,971	-2,5	-1,919
2705,119	-2,5	-1,892
2707,261	-1,5	-1,751
2709,402	-2	-1,705
2711,544	-2	-1,677
2713,686	-2	-1,648
2715,834	-1	-1,487
2717,976	-1	-1,442
2720,118	-0,5	-1,301
2722,26	-0,5	-1,33
2724,408	-0,5	-1,357
2726,549	-0,5	-1,253
2728,691	0	-1,175
2730,827	-0,5	-1,171
2732,975	0	-1,118
2735,117	0	-1,072
2737,259	0	-1,044
2739,401	0	-1,003
2741,543	0	-0,931
2743,69	0	-0,787
2745,826	0	-0,809
2747,968	0	-0,785
2750,116	0	-0,725
2752,264	0	-0,655
2754,406	0,5	-0,594
2756,548	0,5	-0,464
2758,69	0,5	-0,365
2760,837	0,5	-0,497
2763,003	1,5	-0,242
2765,145	1,5	-0,186
2767,287	1,5	-0,238
2769,429	1,5	-0,269
2771,577	1	-0,314
2773,713	1	-0,473
2775,855	1	-0,488
2777,996	0,5	-0,548
2780,138	1	-0,412
2782,28	0,5	-0,458
2784,422	0,5	-0,38
2786,564	1	-0,351
2788,712	1	-0,264
2790,854	1,5	-0,161
2792,996	1,5	-0,216
2795,137	1	-0,28
2797,285	1,5	-0,342
2799,427	1	-0,386
2801,569	0,5	-0,523
2803,711	0,5	-0,547
2805,853	0,5	-0,474
2808,001	1	-0,314
2810,143	1,5	-0,246
2812,278	1	-0,282
2814,42	1	-0,266
2816,562	1	-0,368
2818,71	1	-0,477
2820,852	0,5	-0,558
2822,988	0	-0,693
2825,136	0	-0,772
2827,278	0	-0,89
2829,419	0	-1,106
2831,561	-0,5	-1,2
2833,703	0	-1,181
2835,845	-0,5	-1,396
2837,987	-1,5	-1,676
2840,129	-1,5	-1,683
2842,271	-2,5	-1,834
2844,419	-2,5	-1,94
2846,567	-3	-2,072
2848,708	-3	-2,075
2850,85	-3,5	-2,232
2852,992	-4,5	-2,394
2855,14	-4	-2,388
2857,282	-4,5	-2,487
2859,424	-5	-2,532
2861,566	-5	-2,577
2863,708	-5,5	-2,686
2865,849	-6	-2,737
2867,991	-8	-2,968
2870,133	-9	-3,1
2872,275	-10	-3,21
2874,423	-9	-3,197
2876,565	-10	-3,342
2878,707	-10	-3,5
2880,849	-10	-3,499
2882,996	-10	-3,5
2885,138	-10	-3,499
2887,28	-10	-3,499
2889,422	-10	-3,499
2891,558	-10	-3,498
2893,706	-9,5	-3,497
2895,848	-10	-3,496
2897,984	-10	-3,495
2900,125	-9,5	-3,495
2902,273	-9,5	-3,491
2904,415	-10	-3,492
2906,557	-9,5	-3,485
2908,699	-9,5	-3,482
2910,841	-9,5	-3,475
2912,983	-9	-3,46
2915,125	-8,5	-3,408
2917,267	-7,5	-3,367
2919,408	-6	-3,211
2921,556	-5,5	-2,99
2923,698	-5	-2,913
2925,84	-5	-2,968
2927,982	-5,5	-3,035
2930,13	-5,5	-3,105
2932,272	-5,5	-3,144
2934,414	-5	-2,987
2936,555	-6	-3,146
2938,703	-5,5	-3,098
2940,845	-6	-3,18
2942,987	-5,5	-3,146
2945,129	-5	-3,016
2947,271	-5	-2,997
2949,419	-5	-2,96
2951,561	-4,5	-2,814
2953,702	-4	-2,7
2955,844	-3,5	-2,548
2957,992	-3	-2,422
2960,134	-3	-2,307
2962,276	-1,5	-1,91
2964,418	-1,5	-1,903
2966,56	-2	-1,97
2968,714	-2,5	-2,138
2970,855	-1,5	-1,917
2972,997	-1,5	-1,866
2975,139	-1,5	-1,758
2977,281	-1	-1,601
2979,429	-1	-1,469
2981,571	-0,5	-1,302
2983,713	-0,5	-1,32
2985,855	-0,5	-1,259
2988,002	-0,5	-1,244
2990,144	-0,5	-1,151
2992,286	0	-1,075
2994,434	-0,5	-1,134
2996,576	-0,5	-1,088
2998,724	-0,5	-1,056
3000,86	0	-0,912
3003,002	0	-0,926
3005,137	0	-0,796
3007,285	0,5	-0,739
3009,427	1	-0,742
3011,569	0,5	-0,792
3013,711	1,5	-0,544
3015,853	2	-0,537
3017,995	3	-0,333
3020,137	3,5	-0,264
3022,278	3	-0,143
3024,42	3,5	-0,063
3026,562	3,5	0
3028,71	3,5	0
3030,852	3	0
3032,994	3	0
3035,136	3	0
3037,278	3	0
3039,426	3	0
3041,561	3	0
3043,703	3	0
3045,845	3	0
3047,993	3,5	0
3050,135	3	-0,001
3052,277	3	0
3054,419	3	-0,004
3056,561	3	0
3058,708	3	-0,004
3060,844	3	0
3062,986	3,5	0
3065,128	3	-0,006
3067,27	3	-0,003
3069,412	3	-0,031
3071,554	3	-0,003
3073,696	3	-0,014
3075,837	3	-0,026
3077,985	3	-0,154
3080,127	3	-0,169
3082,269	3	-0,227
3084,411	3	-0,269
3086,553	3	-0,32
3088,701	3	-0,32
3090,843	3	-0,366
3092,984	2,5	-0,411
3095,126	2	-0,49
3097,268	2	-0,514
3099,416	2	-0,567
3101,564	1,5	-0,59
3103,706	1	-0,624
3105,848	1	-0,616
3107,996	1	-0,68
3110,137	0,5	-0,72
3112,279	0	-0,861
3114,415	0	-0,866
3116,563	0	-0,861
3118,705	0	-0,85
3120,841	0,5	-0,8
3122,983	0,5	-0,818
3125,119	1	-0,727
3127,266	1	-0,695
3129,408	0,5	-0,72
3131,55	0,5	-0,791
3133,692	0	-0,794
3135,834	0,5	-0,739
3137,982	0	-0,834
3140,124	0	-0,774
3142,266	0,5	-0,755
3144,408	0,5	-0,71
3146,555	0,5	-0,769
3148,697	0	-0,841
3150,839	0	-0,848
3152,981	0	-0,819
3155,123	0	-0,8
3157,265	0	-0,825
3159,407	0	-0,956
3161,549	0	-0,969
3163,69	0	-0,976
3165,832	0	-0,982
3167,98	0	-1,022
3170,122	0	-1,041
3172,264	-0,5	-1,086
3174,406	0	-1,142
3176,548	-0,5	-1,187
3178,696	0	-1,257
3180,837	-0,5	-1,244
3182,979	0	-1,171
3185,121	0	-1,175
3187,269	-0,5	-1,266
3189,411	0	-1,167
3191,553	0	-1,224
3193,695	0	-1,226
3195,837	0	-1,208
3197,984	-0,5	-1,261
3200,126	-0,5	-1,27
3202,268	-0,5	-1,251
3204,41	-0,5	-1,221
3206,552	-0,5	-1,186
3208,406	3	-0,001