File: ensaios_Ciclicos/_40perc/_1gap/entrada/_3.txt
Time (s)	Load (N)	Displacement (mm)
0	0	-0,03
2,153	0,5	-0,09
4,355	0	-0,364
6,468	0,5	-0,223
8,579	1	-0,009
10,703	1	-0,019
12,821	1	0
14,938	1	-0,001
17,056	1	-0,001
19,168	1,5	-0,003
21,28	1	-0,004
23,392	1,5	-0,004
25,504	1,5	-0,007
27,616	1	-0,008
29,733	1,5	-0,008
31,851	1,5	-0,006
33,969	1,5	-0,006
36,081	1,5	-0,007
38,199	1,5	-0,005
40,311	1,5	-0,007
42,423	1,5	-0,007
44,535	1,5	-0,006
46,647	1,5	-0,006
48,758	1,5	-0,005
50,87	1,5	-0,005
52,982	1,5	-0,004
55,094	1,5	-0,005
57,218	1,5	-0,01
59,336	1,5	-0,009
61,46	1,5	-0,008
63,584	1,5	-0,006
65,701	1,5	-0,007
67,819	1,5	-0,005
69,931	1,5	-0,004
72,044	1,5	-0,004
74,167	1,5	-0,002
76,285	1,5	-0,002
78,403	1,5	-0,002
80,521	1,5	-0,002
82,638	1,5	-0,002
84,756	1,5	-0,001
86,868	1,5	-0,001
88,986	2	-0,002
91,104	1,5	-0,003
93,228	1,5	-0,003
95,34	1,5	-0,006
97,464	1,5	-0,006
99,588	1,5	-0,007
101,711	1,5	-0,006
103,841	2	-0,006
105,953	1,5	-0,008
108,071	1,5	-0,01
110,183	1,5	-0,019
112,301	1,5	-0,028
114,419	1,5	-0,035
116,537	1,5	-0,049
118,655	1,5	-0,048
120,772	1,5	-0,054
122,89	1,5	-0,061
125,002	1	-0,073
127,12	1,5	-0,065
129,244	1	-0,096
131,362	0	-0,142
133,474	0,5	-0,118
135,597	0,5	-0,132
137,721	1	-0,102
139,846	1	-0,074
141,975	1,5	-0,055
144,099	1,5	-0,053
146,229	1,5	-0,035
148,353	2	-0,028
150,471	1,5	-0,028
152,583	1,5	-0,025
154,7	1,5	-0,026
156,818	1,5	-0,025
158,93	1,5	-0,032
161,048	1,5	-0,02
163,166	1,5	-0,014
165,284	2	-0,013
167,397	1,5	-0,012
169,526	2	-0,007
171,649	2	-0,006
173,773	2	-0,007
175,891	2	-0,007
178,003	2	-0,006
180,121	2	-0,004
182,245	2	-0,004
184,363	2	-0,003
186,475	2	-0,002
188,598	2	-0,002
190,722	2	-0,001
192,846	2	-0,001
194,964	2	0
197,094	2	-0,001
199,218	2	0
201,336	2	-0,001
203,454	2	-0,001
205,565	1,5	-0,001
207,689	1,5	-0,001
209,825	1,5	-0,001
211,943	1,5	-0,001
214,055	1,5	-0,001
216,173	2	-0,003
218,291	2	-0,003
220,415	2	-0,002
222,545	2	-0,002
224,662	2	-0,002
226,786	2	-0,002
228,898	2	-0,003
231,022	2	-0,003
233,14	2	-0,002
235,258	2	-0,002
237,376	2	-0,002
239,493	2	-0,002
241,617	2	-0,002
243,735	2	-0,002
245,859	2	-0,002
247,989	2	-0,001
250,119	1,5	0
252,243	2	-0,041
254,373	2	-0,294
256,491	1,5	-0,401
258,614	1,5	-0,43
260,732	2	-0,306
262,856	2	-0,259
264,992	1	-0,529
267,116	1	-0,516
269,24	1	-0,556
271,364	0,5	-0,522
273,482	1	-0,457
275,611	1	-0,512
277,729	1	-0,538
279,847	0,5	-0,569
281,983	-0,5	-0,76
284,107	-1,5	-0,918
286,231	-2	-1,049
288,355	-2,5	-1,131
290,485	-3,5	-1,356
292,614	-4	-1,516
294,738	-4	-1,636
296,863	-4,5	-1,645
298,992	-5	-1,79
301,122	-5,5	-1,94
303,246	-6	-2,045
305,364	-6	-2,022
307,482	-6	-2,005
309,612	-6	-2,081
311,735	-6	-2,053
313,853	-6	-2,121
315,983	-7	-2,201
318,107	-7	-2,242
320,225	-8	-2,352
322,355	-8	-2,475
324,485	-9	-2,51
326,609	-10	-2,63
328,726	-9	-2,544
330,85	-9,5	-2,595
332,974	-9	-2,518
335,104	-9,5	-2,562
337,234	-9	-2,51
339,346	-8	-2,395
341,476	-8,5	-2,385
343,606	-8,5	-2,402
345,735	-8,5	-2,415
347,859	-9	-2,46
349,989	-9	-2,503
352,119	-9	-2,5
354,255	-9,5	-2,568
356,379	-10	-2,635
358,503	-9,5	-2,585
360,621	-9,5	-2,6
362,75	-10	-2,691
364,88	-9,5	-2,676
367,004	-10	-2,721
369,134	-11	-2,814
371,258	-11,5	-2,88
373,388	-11	-2,876
375,518	-12	-2,946
377,642	-11,5	-2,901
379,766	-10	-2,803
381,877	-10,5	-2,73
384,007	-10,5	-2,791
386,125	-10	-2,756
388,255	-10	-2,684
390,379	-9,5	-2,635
392,503	-9,5	-2,627
394,633	-10	-2,633
396,762	-10,5	-2,746
398,886	-10	-2,744
401,016	-11	-2,846
403,152	-12	-2,92
405,282	-12	-2,952
407,4	-11,5	-2,985
409,53	-11	-2,99
411,648	-11,5	-2,931
413,772	-12	-2,908
415,895	-11	-2,847
418,013	-11,5	-2,841
420,137	-11	-2,83
422,255	-11	-2,791
424,379	-10,5	-2,741
426,503	-10,5	-2,749
428,628	-10	-2,726
430,751	-10,5	-2,707
432,874	-10,5	-2,737
434,999	-10,5	-2,741
437,122	-10	-2,685
439,24	-9,5	-2,659
441,364	-9	-2,619
443,482	-10	-2,703
445,606	-9,5	-2,696
447,742	-10	-2,675
449,859	-9	-2,594
451,977	-9,5	-2,629
454,101	-9	-2,607
456,225	-9	-2,62
458,349	-11	-2,788
460,479	-11	-2,842
462,609	-12,5	-2,996
464,739	-11,5	-2,988
466,862	-12,5	-3,081
468,986	-13	-3,17
471,116	-15	-3,335
473,24	-15	-3,365
475,364	-15,5	-3,39
477,488	-16,5	-3,416
479,612	-16,5	-3,41
481,736	-17	-3,428
483,866	-17,5	-3,463
485,989	-18	-3,468
488,108	-17,5	-3,46
490,231	-18	-3,466
492,355	-18	-3,474
494,479	-17,5	-3,469
496,603	-17	-3,468
498,733	-18	-3,475
500,851	-18	-3,475
502,98	-18	-3,484
505,098	-18	-3,481
507,222	-18	-3,483
509,346	-18	-3,484
511,464	-18	-3,481
513,588	-18	-3,481
515,712	-18	-3,488
517,83	-18	-3,491
519,953	-18	-3,493
522,077	-18	-3,494
524,201	-18	-3,495
526,325	-18	-3,497
528,449	-18	-3,498
530,567	-18	-3,499
532,691	-18	-3,499
534,821	-18	-3,5
536,945	-18	-3,4
539,068	-17,5	-3,196
541,198	-17	-3,077
543,322	-17	-3,058
545,458	-16	-2,988
547,582	-17	-2,992
549,7	-17,5	-2,976
551,824	-15	-3,004
553,948	-15	-2,928
556,071	-17	-3,052
558,195	-17,5	-2,948
560,319	-15,5	-2,939
562,449	-15	-2,912
564,573	-15	-2,92
566,697	-17,5	-2,964
568,833	-14	-2,821
570,963	-13	-2,734
573,086	-13	-2,716
575,216	-13	-2,688
577,34	-13	-2,653
579,476	-12,5	-2,627
581,606	-11,5	-2,547
583,724	-11,5	-2,605
585,848	-12	-2,624
587,972	-12	-2,614
590,095	-12,5	-2,649
592,219	-13,5	-2,636
594,349	-11	-2,533
596,473	-11	-2,514
598,597	-12	-2,554
600,715	-11,5	-2,549
602,839	-10,5	-2,52
604,963	-11	-2,534
607,081	-11	-2,559
609,198	-12,5	-2,618
611,322	-12	-2,636
613,446	-12	-2,632
615,57	-12	-2,593
617,694	-12	-2,595
619,818	-12	-2,576
621,942	-11	-2,531
624,06	-11,5	-2,611
626,183	-11,5	-2,592
628,307	-11,5	-2,562
630,431	-11,5	-2,559
632,549	-12	-2,618
634,673	-12	-2,621
636,803	-11,5	-2,584
638,933	-12,5	-2,575
641,057	-12,5	-2,626
643,18	-12	-2,67
645,31	-11,5	-2,59
647,434	-11,5	-2,565
649,558	-10,5	-2,519
651,688	-10,5	-2,513
653,8	-10,5	-2,506
655,924	-11	-2,519
658,054	-10,5	-2,432
660,171	-10	-2,38
662,301	-9	-2,316
664,425	-10	-2,328
666,549	-10	-2,336
668,673	-10	-2,29
670,797	-9,5	-2,303
672,921	-9,5	-2,316
675,039	-10	-2,354
677,162	-9,5	-2,308
679,286	-9	-2,226
681,416	-8,5	-2,166
683,546	-9	-2,202
685,664	-9	-2,14
687,788	-8,5	-2,12
689,912	-8,5	-2,128
692,036	-7,5	-2,05
694,165	-7	-1,958
696,289	-7	-1,954
698,413	-7,5	-1,999
700,543	-7	-1,919
702,661	-6,5	-1,918
704,773	-6,5	-1,949
706,903	-6	-1,863
709,027	-6	-1,86
711,145	-6	-1,861
713,274	-6	-1,834
715,398	-6	-1,814
717,522	-6	-1,853
719,646	-6	-1,819
721,77	-6	-1,789
723,894	-5,5	-1,787
726,006	-5,5	-1,774
728,124	-5,5	-1,785
730,247	-5,5	-1,766
732,371	-5,5	-1,79
734,495	-5,5	-1,792
736,613	-5,5	-1,829
738,737	-5,5	-1,842
740,861	-5,5	-1,823
742,979	-6	-1,864
745,109	-5,5	-1,764
747,227	-5,5	-1,732
749,35	-5	-1,719
751,474	-5	-1,69
753,598	-5	-1,734
755,722	-5	-1,704
757,84	-5	-1,704
759,964	-5	-1,708
762,088	-5	-1,683
764,23	-4	-1,589
766,359	-4,5	-1,573
768,477	-5	-1,563
770,601	-4,5	-1,586
772,725	-4,5	-1,594
774,849	-4,5	-1,649
776,973	-4,5	-1,614
779,097	-4,5	-1,632
781,221	-4,5	-1,544
783,338	-4	-1,518
785,462	-4	-1,52
787,586	-4,5	-1,54
789,71	-3,5	-1,423
791,828	-3,5	-1,467
793,955	-3,5	-1,479
796,07	-3,5	-1,464
798,188	-3	-1,444
800,311	-3	-1,345
802,441	-2,5	-1,184
804,559	-3	-1,259
806,683	-2,5	-1,16
808,807	-2	-1,178
810,925	-2	-1,084
813,049	-1,5	-1,058
815,173	-2	-1,055
817,296	-1,5	-0,999
819,42	-1,5	-0,89
821,55	-1	-0,873
823,668	-1	-0,922
825,792	-1,5	-0,944
827,91	-1	-0,923
830,034	-1,5	-0,927
832,158	-1,5	-0,997
834,281	-1,5	-0,989
836,399	-1,5	-0,989
838,523	-2	-1,019
840,653	-1,5	-0,985
842,771	-1,5	-0,949
844,901	-1,5	-0,894
847,025	-1,5	-0,944
849,155	-1	-0,832
851,273	-1	-0,875
853,396	-1	-0,776
855,521	-0,5	-0,758
857,65	-0,5	-0,744
859,774	-0,5	-0,673
861,886	-0,5	-0,718
864,01	0	-0,643
866,134	0	-0,633
868,258	-0,5	-0,622
870,387	0	-0,546
872,511	0	-0,535
874,629	0	-0,578
876,759	-0,5	-0,636
878,877	-0,5	-0,615
881,007	0	-0,588
883,125	0	-0,524
885,243	0	-0,45
887,367	0	-0,468
889,496	0	-0,429
891,62	0	-0,475
893,744	0	-0,482
895,862	0	-0,504
897,992	0	-0,455
900,116	0	-0,436
902,234	0,5	-0,214
904,357	0	-0,221
906,481	1	-0,195
908,599	0,5	-0,184
910,729	0,5	-0,198
912,853	1,5	-0,139
914,977	1,5	-0,113
917,095	1	-0,127
919,213	1	-0,123
921,337	1	-0,141
923,454	1	-0,126
925,578	1	-0,106
927,696	1	-0,134
929,814	1,5	-0,111
931,938	1	-0,112
934,062	1,5	-0,116
936,186	1	-0,132
938,304	1	-0,101
940,433	1,5	-0,075
942,563	1,5	-0,072
944,687	2	-0,064
946,811	1,5	-0,059
948,941	2	-0,048
951,065	2	-0,045
953,177	2	-0,045
955,301	2	-0,032
957,43	2,5	-0,03
959,548	2	-0,027
961,672	2,5	-0,022
963,796	2,5	-0,025
965,914	2,5	-0,028
968,038	2,5	-0,023
970,162	2,5	-0,022
972,286	2	-0,019
974,403	2	-0,02
976,527	2	-0,023
978,645	2,5	-0,022
980,763	2,5	-0,019
982,887	2,5	-0,016
985,017	2,5	-0,01
987,135	2,5	-0,011
989,253	2,5	-0,009
991,377	2,5	-0,008
993,494	2,5	-0,009
995,618	2,5	-0,008
997,736	2,5	-0,006
999,86	2,5	-0,005
1001,99	2,5	-0,004
1004,108	2,5	-0,004
1006,238	2,5	-0,004
1008,356	2,5	-0,004
1010,479	2,5	-0,003
1012,597	2,5	-0,003
1014,721	2,5	-0,002
1016,839	2,5	-0,002
1018,963	2,5	-0,002
1021,081	2	-0,002
1023,205	2,5	-0,002
1025,323	2,5	-0,002
1027,446	2,5	-0,001
1029,57	2,5	-0,001
1031,688	3	-0,001
1033,818	2,5	-0,001
1035,942	2,5	-0,001
1038,06	2,5	-0,001
1040,184	2,5	-0,001
1042,302	2,5	-0,001
1044,419	2,5	-0,001
1046,549	2,5	-0,001
1048,667	2,5	0
1050,791	2,5	0
1052,909	2,5	0
1055,027	2,5	0
1057,151	2,5	0
1059,275	2,5	-0,058
1061,399	2,5	-0,131
1063,516	2,5	-0,072
1065,64	2,5	-0,019
1067,764	2,5	-0,059
1069,882	2,5	-0,032
1072,006	2,5	-0,078
1074,124	2,5	-0,196
1076,242	2,5	-0,241
1078,36	2,5	-0,321
1080,483	1,5	-0,442
1082,607	2	-0,472
1084,725	1,5	-0,493
1086,849	0,5	-0,507
1088,973	0	-0,626
1091,097	0	-0,619
1093,221	0,5	-0,622
1095,345	0	-0,736
1097,474	-0,5	-0,763
1099,592	-0,5	-0,79
1101,716	-0,5	-0,777
1103,834	-0,5	-0,814
1105,958	-1	-0,855
1108,082	-1	-0,89
1110,194	-1	-0,822
1112,324	-1	-0,876
1114,442	-1,5	-0,999
1116,565	-1,5	-1,076
1118,683	-1,5	-1,044
1120,807	-2	-1,147
1122,925	-2	-1,216
1125,043	-2	-1,168
1127,167	-2	-1,155
1129,285	-1,5	-1,08
1131,408	-1,5	-1,126
1133,532	-1,5	-1,096
1135,656	-1,5	-1,052
1137,774	-1,5	-1,03
1139,898	-1,5	-1,061
1142,016	-1,5	-1,001
1144,14	-1,5	-0,999
1146,264	-1,5	-1,019
1148,388	-1,5	-0,893
1150,505	-1,5	-0,867
1152,629	-1,5	-0,944
1154,753	-1	-0,942
1156,871	-1	-0,941
1158,989	-1	-0,931
1161,119	-1,5	-1,027
1163,237	-1,5	-1,038
1165,361	-1,5	-1,072
1167,478	-1,5	-1,136
1169,602	-1,5	-1,118
1171,72	-1,5	-1,054
1173,844	-1,5	-1,094
1175,962	-1,5	-1,077
1178,092	-2	-1,142
1180,21	-1,5	-1,105
1182,334	-2	-1,102
1184,451	-1,5	-1,081
1186,575	-1	-1,069
1188,693	-1,5	-1,042
1190,817	-1,5	-1,092
1192,935	-1,5	-1,096
1195,065	-1,5	-1,125
1197,183	-1,5	-1,087
1199,307	-1,5	-1,032
1201,418	-1	-0,937
1203,542	-1	-0,882
1205,672	-1	-0,984
1207,79	-1,5	-1,042
1209,908	-1	-0,994
1212,038	-1,5	-1,064
1214,156	-0,5	-0,989
1216,274	-0,5	-0,818
1218,397	0	-0,678
1220,516	1,5	-0,544
1222,639	1	-0,622
1224,757	1,5	-0,537
1226,875	1,5	-0,547
1228,993	1,5	-0,5
1231,123	0	-0,612
1233,241	0	-0,632
1235,365	0,5	-0,615
1237,476	1	-0,578
1239,6	0	-0,603
1241,718	0	-0,657
1243,848	1	-0,582
1245,966	0	-0,635
1248,096	0,5	-0,657
1250,214	1	-0,599
1252,338	0	-0,681
1254,455	1,5	-0,49
1256,579	2	-0,353
1258,697	2,5	-0,283
1260,821	2	-0,281
1262,939	2,5	-0,318
1265,063	1,5	-0,39
1267,181	1,5	-0,348
1269,305	2	-0,303
1271,422	2,5	-0,175
1273,54	2,5	-0,124
1275,658	2	-0,001
1277,788	2,5	0
1279,906	2,5	-0,005
1282,024	2,5	-0,022
1284,148	2,5	-0,031
1286,266	2,5	-0,07
1288,383	2,5	-0,022
1290,508	2,5	-0,141
1292,631	2	-0,179
1294,749	2,5	-0,184
1296,879	2,5	-0,138
1298,997	2,5	-0,138
1301,121	2	-0,211
1303,239	2,5	-0,221
1305,363	2	-0,332
1307,48	2	-0,358
1309,61	2	-0,414
1311,728	1	-0,541
1313,846	1	-0,524
1315,97	1,5	-0,501
1318,088	1,5	-0,516
1320,218	0	-0,592
1322,336	0,5	-0,533
1324,459	0	-0,653
1326,577	0	-0,642
1328,701	0	-0,672
1330,819	0	-0,65
1332,943	0	-0,706
1335,061	-0,5	-0,76
1337,185	0	-0,762
1339,303	-1,5	-0,975
1341,427	-1,5	-1,084
1343,55	-1,5	-1,098
1345,668	-1,5	-1,135
1347,786	-2	-1,209
1349,904	-2	-1,192
1352,028	-2	-1,286
1354,146	-2	-1,232
1356,27	-1,5	-1,172
1358,388	-1,5	-1,22
1360,511	-2	-1,302
1362,629	-2	-1,34
1364,747	-3	-1,528
1366,865	-3	-1,578
1368,983	-3	-1,604
1371,107	-3	-1,601
1373,225	-3	-1,638
1375,349	-3	-1,684
1377,466	-3	-1,736
1379,584	-3	-1,688
1381,708	-3	-1,649
1383,826	-3	-1,707
1385,95	-3,5	-1,752
1388,068	-3,5	-1,826
1390,192	-4	-1,899
1392,31	-4	-1,888
1394,421	-4	-1,926
1396,545	-4	-1,945
1398,663	-4	-1,935
1400,787	-3,5	-1,991
1402,905	-4	-1,995
1405,029	-4,5	-2,003
1407,153	-4	-1,992
1409,271	-4	-2,054
1411,401	-4,5	-2,172
1413,518	-4,5	-2,114
1415,642	-4,5	-2,132
1417,76	-5	-2,158
1419,878	-5	-2,201
1422,002	-5	-2,283
1424,12	-5	-2,289
1426,244	-5,5	-2,366
1428,362	-5,5	-2,355
1430,48	-6	-2,461
1432,603	-6	-2,548
1434,721	-7,5	-2,633
1436,845	-7	-2,653
1438,963	-7,5	-2,695
1441,081	-7,5	-2,673
1443,205	-7,5	-2,708
1445,329	-8	-2,743
1447,446	-8,5	-2,796
1449,564	-8	-2,822
1451,688	-8,5	-2,777
1453,806	-8	-2,724
1455,924	-7,5	-2,707
1458,048	-8	-2,721
1460,16	-7	-2,654
1462,284	-7	-2,657
1464,401	-7,5	-2,708
1466,519	-7,5	-2,693
1468,643	-7	-2,66
1470,767	-8	-2,72
1472,885	-9	-2,794
1475,009	-9	-2,882
1477,127	-9	-2,871
1479,245	-10	-2,993
1481,375	-10,5	-3,096
1483,492	-11	-3,185
1485,616	-11	-3,232
1487,74	-11	-3,24
1489,864	-12	-3,238
1491,982	-11	-3,234
1494,106	-12,5	-3,296
1496,224	-13	-3,335
1498,348	-13	-3,346
1500,465	-13,5	-3,372
1502,589	-14	-3,407
1504,707	-14,5	-3,42
1506,825	-14,5	-3,431
1508,949	-14,5	-3,422
1511,067	-14,5	-3,422
1513,191	-14,5	-3,426
1515,309	-15	-3,441
1517,432	-14,5	-3,444
1519,556	-15	-3,452
1521,674	-15	-3,454
1523,798	-15	-3,458
1525,916	-15	-3,464
1528,028	-15	-3,466
1530,158	-15	-3,478
1532,276	-15	-3,48
1534,393	-15	-3,482
1536,523	-15	-3,488
1538,647	-15	-3,491
1540,771	-15	-3,492
1542,889	-15,5	-3,493
1545,007	-15	-3,495
1547,131	-15	-3,496
1549,249	-15	-3,496
1551,367	-15	-3,494
1553,49	-15	-3,496
1555,608	-15	-3,497
1557,75	-15	-3,498
1559,868	-15	-3,498
1561,992	-15	-3,499
1564,116	-15	-3,5
1566,234	-15,5	-3,5
1568,351	-15	-3,497
1570,469	-15	-3,432
1572,593	-15	-3,342
1574,717	-15	-3,248
1576,835	-15	-3,205
1578,965	-14,5	-3,086
1581,077	-15,5	-3,015
1583,201	-13	-2,996
1585,319	-12,5	-2,943
1587,436	-13	-2,901
1589,566	-11	-2,745
1591,684	-10,5	-2,714
1593,802	-10	-2,672
1595,926	-9,5	-2,563
1598,05	-9	-2,48
1600,168	-9	-2,469
1602,292	-8	-2,344
1604,409	-8	-2,355
1606,521	-7,5	-2,311
1608,645	-7,5	-2,334
1610,763	-7,5	-2,362
1612,881	-7,5	-2,304
1614,999	-7	-2,272
1617,123	-6	-2,173
1619,247	-6	-2,133
1621,371	-6	-2,108
1623,488	-5,5	-2,034
1625,612	-5	-1,968
1627,73	-5	-1,931
1629,854	-4,5	-1,799
1631,978	-3,5	-1,707
1634,096	-3	-1,654
1636,22	-3	-1,529
1638,338	-2,5	-1,448
1640,455	-2,5	-1,413
1642,585	-2	-1,294
1644,703	-2	-1,321
1646,821	-2	-1,243
1648,951	-1,5	-1,128
1651,069	-1,5	-1,039
1653,193	-1,5	-1,058
1655,305	-1	-0,965
1657,422	-1	-0,938
1659,54	-1	-0,919
1661,664	-1	-0,836
1663,782	-0,5	-0,762
1665,9	-0,5	-0,698
1668,024	0	-0,578
1670,142	0	-0,52
1672,26	0	-0,395
1674,383	0	-0,4
1676,501	0	-0,284
1678,625	0	-0,268
1680,743	0	-0,247
1682,867	0,5	-0,175
1684,985	0,5	-0,142
1687,103	1	-0,147
1689,221	1	-0,124
1691,339	1,5	-0,107
1693,462	1,5	-0,086
1695,58	2	-0,066
1697,71	1,5	-0,054
1699,828	1,5	-0,052
1701,946	1,5	-0,055
1704,07	2	-0,06
1706,188	1,5	-0,065
1708,306	1,5	-0,056
1710,429	2	-0,05
1712,547	2	-0,044
1714,665	2	-0,038
1716,795	2,5	-0,026
1718,913	2	-0,02
1721,037	2	-0,016
1723,155	2,5	-0,016
1725,273	2,5	-0,016
1727,39	2,5	-0,013
1729,52	2,5	-0,01
1731,638	2,5	-0,011
1733,756	2,5	-0,009
1735,874	2,5	-0,01
1737,998	2,5	-0,01
1740,116	2,5	-0,012
1742,24	2,5	-0,01
1744,357	2,5	-0,01
1746,469	2,5	-0,012
1748,593	2,5	-0,012
1750,711	2,5	-0,015
1752,835	2,5	-0,017
1754,953	2	-0,022
1757,071	2,5	-0,027
1759,189	2	-0,035
1761,312	2	-0,034
1763,43	2	-0,043
1765,548	2	-0,054
1767,672	1,5	-0,055
1769,79	1,5	-0,063
1771,908	1,5	-0,066
1774,02	1,5	-0,076
1776,144	1	-0,088
1778,262	1	-0,103
1780,385	1,5	-0,116
1782,503	0,5	-0,184
1784,621	0,5	-0,185
1786,745	1	-0,205
1788,863	0	-0,278
1790,981	0	-0,356
1793,105	0	-0,448
1795,217	0	-0,478
1797,334	-0,5	-0,678
1799,452	-0,5	-0,793
1801,576	-0,5	-0,86
1803,694	-1	-0,993
1805,818	-1,5	-1,033
1807,942	-1,5	-1,124
1810,06	-2	-1,179
1812,184	-2	-1,288
1814,313	-2	-1,366
1816,431	-3	-1,521
1818,549	-3,5	-1,664
1820,667	-3,5	-1,676
1822,785	-4	-1,809
1824,903	-4	-1,836
1827,027	-4	-1,801
1829,139	-5	-1,907
1831,257	-5	-1,954
1833,38	-5,5	-1,946
1835,498	-5,5	-2,021
1837,616	-6	-2,105
1839,74	-6	-2,119
1841,864	-6	-2,174
1843,982	-6,5	-2,233
1846,1	-7,5	-2,328
1848,212	-8	-2,428
1850,335	-8,5	-2,42
1852,453	-8,5	-2,458
1854,565	-8,5	-2,504
1856,683	-9,5	-2,622
1858,801	-10	-2,675
1860,931	-10	-2,658
1863,049	-10,5	-2,743
1865,167	-11	-2,782
1867,29	-11	-2,747
1869,408	-11	-2,799
1871,526	-11,5	-2,827
1873,65	-11	-2,782
1875,762	-11	-2,79
1877,88	-10,5	-2,775
1880,004	-11,5	-2,83
1882,122	-12	-2,883
1884,239	-12	-2,927
1886,363	-12	-2,919
1888,481	-11,5	-2,845
1890,593	-12	-2,854
1892,711	-13	-2,934
1894,835	-12,5	-2,936
1896,959	-13	-3,002
1899,077	-13,5	-2,987
1901,2	-13	-2,993
1903,318	-13	-3,032
1905,442	-14	-3,13
1907,56	-13	-3,024
1909,684	-13	-3,02
1911,802	-12,5	-3,021
1913,926	-12,5	-2,987
1916,05	-12	-2,893
1918,168	-12	-2,941
1920,285	-12	-2,941
1922,409	-12	-2,933
1924,527	-13	-2,992
1926,639	-13	-3,048
1928,763	-13,5	-3,063
1930,881	-13,5	-3,09
1933,005	-13,5	-3,092
1935,123	-13,5	-3,098
1937,252	-13	-2,99
1939,37	-13	-3
1941,488	-13	-3,012
1943,612	-13,5	-3,056
1945,73	-13,5	-3,052
1947,848	-13,5	-3,052
1949,972	-13	-2,974
1952,09	-12,5	-2,948
1954,207	-13	-3,013
1956,331	-13	-2,962
1958,449	-13	-2,988
1960,573	-12	-2,905
1962,685	-12	-2,942
1964,815	-11	-2,865
1966,933	-12	-2,872
1969,051	-11	-2,782
1971,175	-9,5	-2,672
1973,292	-10,5	-2,703
1975,41	-10	-2,682
1977,528	-9,5	-2,579
1979,658	-9	-2,609
1981,776	-9	-2,624
1983,894	-9	-2,688
1986,018	-9,5	-2,675
1988,136	-10,5	-2,798
1990,259	-11	-2,853
1992,383	-10,5	-2,808
1994,501	-9,5	-2,654
1996,625	-9	-2,613
1998,737	-9	-2,654
2000,861	-8,5	-2,55
2002,979	-9	-2,63
2005,097	-9	-2,641
2007,214	-9	-2,642
2009,332	-9	-2,626
2011,45	-8,5	-2,627
2013,568	-10	-2,69
2015,686	-8	-2,499
2017,81	-7,5	-2,348
2019,928	-6	-2,168
2022,052	-4,5	-2
2024,169	-4	-1,804
2026,281	-4	-1,849
2028,399	-4	-1,839
2030,523	-4,5	-1,9
2032,641	-4,5	-1,895
2034,759	-4,5	-1,907
2036,889	-3,5	-1,813
2039,007	-4	-1,81
2041,125	-4	-1,821
2043,248	-3	-1,759
2045,372	-3	-1,725
2047,49	-3	-1,672
2049,602	-3	-1,655
2051,726	-3	-1,64
2053,844	-3	-1,598
2055,962	-3	-1,54
2058,08	-2,5	-1,525
2060,203	-2,5	-1,416
2062,321	-2	-1,404
2064,439	-2	-1,392
2066,563	-1,5	-1,348
2068,681	-2	-1,334
2070,799	-1,5	-1,275
2072,923	-1,5	-1,235
2075,041	-1,5	-1,225
2077,165	-1,5	-1,184
2079,282	-1,5	-1,175
2081,406	-1	-1,144
2083,518	-1	-1,084
2085,636	-1	-1,079
2087,754	-1	-0,99
2089,878	-0,5	-0,949
2092,008	-0,5	-0,843
2094,131	0	-0,685
2096,255	0	-0,559
2098,373	0	-0,524
2100,491	0	-0,518
2102,615	0	-0,414
2104,727	0	-0,444
2106,845	0,5	-0,43
2108,963	0	-0,372
2111,086	1	-0,236
2113,21	0,5	-0,258
2115,328	1	-0,276
2117,446	0,5	-0,297
2119,57	1	-0,232
2121,7	0,5	-0,198
2123,818	0,5	-0,21
2125,948	1	-0,162
2128,066	1	-0,18
2130,184	1	-0,206
2132,313	1	-0,157
2134,437	1,5	-0,112
2136,555	1,5	-0,106
2138,673	1	-0,137
2140,797	1	-0,113
2142,921	1	-0,106
2145,039	1	-0,106
2147,156	1	-0,13
2149,287	1	-0,122
2151,404	1,5	-0,11
2153,528	1,5	-0,08
2155,652	1,5	-0,088
2157,77	1,5	-0,068
2159,888	1,5	-0,071
2162,018	1,5	-0,074
2164,135	1,5	-0,071
2166,247	1,5	-0,079
2168,365	1,5	-0,066
2170,489	2	-0,047
2172,607	1,5	-0,058
2174,725	2	-0,059
2176,843	1,5	-0,074
2178,967	2	-0,055
2181,091	2	-0,058
2183,214	2	-0,043
2185,338	2	-0,037
2187,456	2	-0,036
2189,574	2	-0,035
2191,692	2	-0,041
2193,816	2	-0,046
2195,934	2	-0,046
2198,052	2	-0,041
2200,169	2	-0,036
2202,299	2	-0,032
2204,417	2	-0,034
2206,535	2	-0,038
2208,659	2	-0,037
2210,783	2	-0,042
2212,901	2	-0,039
2215,019	2	-0,047
2217,142	2	-0,047
2219,26	2	-0,047
2221,378	2	-0,054
2223,496	1,5	-0,059
2225,614	1,5	-0,056
2227,732	1,5	-0,057
2229,85	2	-0,056
2231,968	1,5	-0,075
2234,091	1,5	-0,08
2236,209	1,5	-0,091
2238,333	1,5	-0,101
2240,451	1	-0,115
2242,575	1	-0,105
2244,699	1,5	-0,117
2246,817	1,5	-0,115
2248,941	1,5	-0,097
2251,059	1,5	-0,106
2253,176	1	-0,124
2255,306	1	-0,124
2257,424	1,5	-0,103
2259,542	1,5	-0,105
2261,66	1,5	-0,092
2263,784	1,5	-0,087
2265,902	1,5	-0,089
2268,02	1,5	-0,084
2270,137	1,5	-0,093
2272,255	1,5	-0,092
2274,385	1,5	-0,068
2276,503	2	-0,057
2278,621	2	-0,041
2280,745	2	-0,036
2282,863	2	-0,028
2284,981	2	-0,025
2287,098	2,5	-0,018
2289,216	2,5	-0,018
2291,334	2,5	-0,021
2293,458	2,5	-0,017
2295,583	2,5	-0,018
2297,706	2,5	-0,013
2299,824	2,5	-0,013
2301,942	2,5	-0,013
2304,065	2,5	-0,012
2306,189	2,5	-0,01
2308,313	2,5	-0,013
2310,437	2,5	-0,013
2312,555	2,5	-0,015
2314,673	2,5	-0,012
2316,791	2,5	-0,012
2318,909	2,5	-0,012
2321,033	2,5	-0,011
2323,15	2,5	-0,01
2325,274	2,5	-0,009
2327,392	2,5	-0,009
2329,51	2,5	-0,01
2331,622	2,5	-0,012
2333,746	2,5	-0,011
2335,864	2	-0,012
2337,982	2,5	-0,014
2340,099	2	-0,013
2342,229	2,5	-0,011
2344,347	2,5	-0,012
2346,465	2,5	-0,011
2348,583	2,5	-0,013
2350,701	2	-0,015
2352,819	2,5	-0,014
2354,937	2,5	-0,014
2357,06	2,5	-0,013
2359,178	2	-0,013
2361,302	2,5	-0,014
2363,42	2,5	-0,014
2365,538	2,5	-0,015
2367,656	2,5	-0,014
2369,774	2,5	-0,014
2371,892	3	-0,013
2374,015	2,5	-0,014
2376,133	2,5	-0,012
2378,257	2,5	-0,012
2380,375	2,5	-0,012
2382,499	2,5	-0,013
2384,617	2,5	-0,014
2386,747	2,5	-0,012
2388,871	2,5	-0,011
2390,995	2,5	-0,01
2393,112	2,5	-0,01
2395,23	2,5	-0,009
2397,354	2,5	-0,009
2399,472	2,5	-0,009
2401,596	2,5	-0,009
2403,714	2,5	-0,009
2405,832	2	-0,009
2407,95	2,5	-0,008
2410,067	2,5	-0,007
2412,191	2,5	-0,007
2414,309	2,5	-0,007
2416,427	2,5	-0,007
2418,539	3	-0,006
2420,657	2,5	-0,007
2422,781	2,5	-0,007
2424,899	2,5	-0,007
2427,016	2,5	-0,007
2429,134	2,5	-0,007
2431,258	2,5	-0,005
2433,376	2,5	-0,005
2435,494	2,5	-0,006
2437,618	2,5	-0,006
2439,736	2,5	-0,006
2441,854	2,5	-0,006
2443,971	2,5	-0,006
2446,095	2,5	-0,006
2448,207	2,5	-0,007
2450,325	2,5	-0,007
2452,443	2,5	-0,008
2454,561	2,5	-0,006
2456,679	2,5	-0,006
2458,797	2,5	-0,007
2460,915	2,5	-0,006
2463,038	2,5	-0,005
2465,15	2,5	-0,006
2467,262	2,5	-0,007
2469,38	2,5	-0,007
2471,504	2,5	-0,008
2473,622	2,5	-0,007
2475,74	2,5	-0,007
2477,858	2,5	-0,007
2479,982	2,5	-0,006
2482,099	2,5	-0,007
2484,217	2,5	-0,008
2486,335	2,5	-0,007
2488,459	2,5	-0,007
2490,577	2,5	-0,006
2492,695	2,5	-0,006
2494,819	2,5	-0,005
2496,936	2,5	-0,004
2499,054	2,5	-0,004
2501,172	2,5	-0,004
2503,296	3	-0,003
2505,408	2,5	-0,003
2507,526	2,5	-0,003
2509,644	2,5	-0,002
2511,768	2,5	-0,002
2513,892	2,5	-0,002
2516,009	2,5	-0,002
2518,127	2,5	-0,001
2520,245	2,5	-0,001
2522,375	2,5	-0,001
2524,493	2,5	-0,001
2526,611	2,5	-0,001
2528,729	2,5	-0,001
2530,853	2,5	-0,001
2532,97	2,5	-0,001
2535,082	2,5	-0,001
2537,212	2,5	0
2539,33	2,5	0
2541,448	2,5	0
2543,566	2,5	0
2545,696	2,5	-0,092
2547,808	2,5	-0,072
2549,925	2	-0,054
2552,043	2,5	-0,048
2554,161	2,5	-0,163
2556,285	2,5	-0,179
2558,403	2,5	-0,177
2560,521	2,5	-0,205
2562,639	2,5	-0,186
2564,757	2,5	-0,2
2566,874	2,5	-0,227
2568,998	2	-0,267
2571,11	2	-0,28
2573,234	2	-0,349
2575,352	2	-0,326
2577,476	1	-0,43
2579,594	1,5	-0,387
2581,718	0,5	-0,524
2583,835	0	-0,625
2585,953	0	-0,688
2588,071	0	-0,736
2590,195	-0,5	-0,813
2592,313	-0,5	-0,882
2594,443	-0,5	-0,973
2596,561	-1	-1,01
2598,685	-1	-1,05
2600,809	-1	-1,123
2602,926	-1	-1,165
2605,044	-1,5	-1,249
2607,168	-1,5	-1,396
2609,286	-1,5	-1,529
2611,404	-1,5	-1,556
2613,522	-2	-1,613
2615,646	-2,5	-1,823
2617,764	-2,5	-1,913
2619,882	-2,5	-1,945
2621,999	-3	-2,008
2624,117	-3	-2,108
2626,235	-3,5	-2,21
2628,353	-3,5	-2,284
2630,477	-4	-2,366
2632,601	-4	-2,422
2634,719	-4,5	-2,517
2636,836	-5	-2,623
2638,954	-5	-2,788
2641,072	-5,5	-2,868
2643,196	-6	-2,992
2645,32	-6	-2,99
2647,438	-6,5	-3,086
2649,562	-6,5	-3,127
2651,68	-6,5	-3,12
2653,797	-6,5	-3,152
2655,909	-7,5	-3,221
2658,033	-8,5	-3,356
2660,151	-9	-3,389
2662,275	-9	-3,409
2664,393	-9	-3,404
2666,517	-9,5	-3,442
2668,635	-10	-3,461
2670,753	-10	-3,46
2672,876	-10	-3,464
2675	-10	-3,475
2677,118	-10	-3,482
2679,242	-10,5	-3,483
2681,36	-10,5	-3,485
2683,484	-10,5	-3,49
2685,602	-10,5	-3,49
2687,72	-10,5	-3,493
2689,843	-10,5	-3,494
2691,967	-10,5	-3,494
2694,085	-10,5	-3,494
2696,203	-10,5	-3,494
2698,321	-10,5	-3,496
2700,439	-10	-3,496
2702,557	-10,5	-3,497
2704,675	-10,5	-3,498
2706,792	-10,5	-3,498
2708,91	-10,5	-3,498
2711,028	-10,5	-3,498
2713,152	-10	-3,498
2715,27	-10,5	-3,499
2717,394	-10	-3,499
2719,512	-10,5	-3,499
2721,63	-10	-3,499
2723,748	-10	-3,499
2725,871	-10	-3,499
2727,995	-10	-3,499
2730,119	-10,5	-3,499
2732,237	-10	-3,499
2734,355	-10,5	-3,5
2736,473	-10	-3,466
2738,597	-10,5	-3,425
2740,715	-10	-3,438
2742,833	-10	-3,419
2744,95	-10	-3,388
2747,068	-10	-3,381
2749,186	-10	-3,3
2751,31	-10	-3,365
2753,422	-10	-3,461
2755,54	-10	-3,489
2757,658	-10	-3,492
2759,781	-10,5	-3,5
2761,899	-10	-3,492
2764,017	-10	-3,499
2766,141	-10,5	-3,5
2768,265	-10	-3,5
2770,383	-10	-3,5
2772,501	-10	-3,499
2774,619	-10	-3,499
2776,742	-10	-3,499
2778,86	-10	-3,498
2780,978	-10	-3,498
2783,096	-10	-3,496
2785,22	-10	-3,495
2787,338	-10	-3,492
2789,456	-10	-3,491
2791,574	-10	-3,487
2793,692	-10	-3,486
2795,809	-10	-3,48
2797,933	-10	-3,478
2800,045	-9,5	-3,458
2802,169	-9	-3,436
2804,287	-8	-3,387
2806,405	-7,5	-3,312
2808,523	-6,5	-3,265
2810,653	-6,5	-3,192
2812,776	-6	-3,137
2814,894	-5	-2,945
2817,012	-4,5	-2,801
2819,136	-4,5	-2,756
2821,254	-4	-2,697
2823,372	-3,5	-2,617
2825,496	-3	-2,562
2827,62	-3,5	-2,517
2829,737	-3	-2,416
2831,849	-3	-2,354
2833,973	-2,5	-2,287
2836,097	-2,5	-2,249
2838,221	-2,5	-2,214
2840,339	-2,5	-2,144
2842,457	-2,5	-2,144
2844,581	-2,5	-2,169
2846,698	-2,5	-2,082
2848,816	-2	-2,023
2850,934	-1,5	-1,929
2853,058	-2	-1,915
2855,17	-1,5	-1,896
2857,288	-1,5	-1,916
2859,4	-1,5	-1,843
2861,524	-1,5	-1,862
2863,642	-1,5	-1,83
2865,759	-1,5	-1,792
2867,877	-1,5	-1,845
2869,995	-2	-1,89
2872,113	-1,5	-1,856
2874,231	-1,5	-1,824
2876,349	-1,5	-1,765
2878,467	-2	-1,854
2880,591	-1,5	-1,74
2882,708	-1,5	-1,57
2884,832	-1	-1,589
2886,95	-1,5	-1,508
2889,074	-1,5	-1,602
2891,192	-1,5	-1,708
2893,316	-1,5	-1,626
2895,434	-1	-1,482
2897,558	-1	-1,373
2899,676	-0,5	-1,202
2901,793	0	-1,021
2903,911	0	-0,9
2906,035	0	-0,817
2908,153	0	-0,8
2910,271	0	-0,699
2912,389	1	-0,581
2914,513	1,5	-0,552
2916,631	1,5	-0,505
2918,748	1,5	-0,499
2920,872	1,5	-0,48
2922,996	0,5	-0,558
2925,114	0,5	-0,552
2927,232	1	-0,573
2929,35	1	-0,584
2931,474	0	-0,671
2933,592	0,5	-0,693
2935,709	0	-0,736
2937,827	0	-0,792
2939,951	0	-0,838
2942,069	0	-0,806
2944,187	0	-0,805
2946,305	0	-0,8
2948,429	0	-0,898
2950,547	-0,5	-0,946
2952,664	-0,5	-0,966
2954,782	-0,5	-0,998
2956,912	-0,5	-1,085
2959,03	-0,5	-1,09
2961,148	-0,5	-1,096
2963,266	-0,5	-1,142
2965,384	-1	-1,246
2967,508	-1	-1,288
2969,625	-0,5	-1,34
2971,737	-1	-1,347
2973,861	-1	-1,414
2975,979	-1	-1,41
2978,097	-1	-1,467
2980,215	-1,5	-1,488
2982,339	-1	-1,544
2984,457	-1	-1,554
2986,569	-1	-1,551
2988,686	-1,5	-1,577
2990,804	-1,5	-1,576
2992,922	-1,5	-1,602
2995,04	-1,5	-1,656
2997,164	-1,5	-1,744
2999,282	-1,5	-1,781
3001,4	-1,5	-1,86
3003,517	-2	-1,929
3005,629	-2	-1,887
3007,741	-1,5	-1,916
3009,859	-2	-1,984
3011,977	-2	-2,037
3014,095	-2	-2,021
3016,213	-2	-2,047
3018,337	-2,5	-2,146
3020,455	-2,5	-2,15
3022,572	-2,5	-2,166
3024,696	-2,5	-2,222
3026,82	-2,5	-2,295
3028,938	-3	-2,352
3031,056	-3	-2,485
3033,174	-3	-2,57
3035,292	-3,5	-2,692
3037,416	-3,5	-2,749
3039,533	-3,5	-2,77
3041,651	-4	-2,806
3043,769	-4	-2,832
3045,893	-4	-2,871
3048,011	-4,5	-2,925
3050,135	-4,5	-2,981
3052,253	-4,5	-3,082
3054,383	-5	-3,224
3056,501	-5,5	-3,246
3058,618	-6	-3,333
3060,742	-6,5	-3,396
3062,866	-7,5	-3,43
3064,99	-7,5	-3,443
3067,108	-7,5	-3,444
3069,226	-7,5	-3,447
3071,344	-7,5	-3,453
3073,468	-8	-3,467
3075,585	-8	-3,474
3077,703	-8	-3,472
3079,827	-7,5	-3,478
3081,939	-7,5	-3,476
3084,057	-8	-3,48
3086,175	-8	-3,482
3088,293	-8	-3,484
3090,417	-8	-3,487
3092,541	-8	-3,491
3094,658	-8	-3,492
3096,776	-8,5	-3,494
3098,894	-8	-3,497
3101,018	-8	-3,498
3103,136	-8	-3,498
3105,254	-8	-3,498
3107,372	-8	-3,498
3109,495	-8	-3,498
3111,607	-8	-3,498
3113,725	-8	-3,498
3115,843	-7,5	-3,499
3117,967	-8	-3,499
3120,085	-8	-3,499
3122,209	-8	-3,499
3124,327	-7,5	-3,5
3126,445	-8	-3,5
3128,562	-7,5	-3,5
3130,68	-8	-3,5
3132,798	-8	-3,5
3134,922	-8	-3,499
3137,034	-7,5	-3,368
3139,152	-7,5	-3,357
3141,264	-7,5	-3,331
3143,382	-7,5	-3,303
3145,505	-7,5	-3,294
3147,623	-7,5	-3,451
3149,741	-7,5	-3,388
3151,859	-8	-3,311
3153,983	-7,5	-3,226
3156,107	-7,5	-3,131
3158,225	-7	-3,115
3160,343	-7	-3,115
3162,466	-6,5	-3,011
3164,59	-5,5	-2,89
3166,708	-5,5	-2,897
3168,832	-5	-2,814
3170,95	-4	-2,692
3173,074	-3,5	-2,609
3175,192	-4	-2,62
3176,056	2,5	-0,001