File: Cycling_tests/_40perc/_3gap/entrada/_1.txt
Time (s)	Load (N)	Displacement (mm)
0	0	-0,022
2,115	0	-0,015
4,281	0	-0,228
6,393	0,5	-0,147
8,505	0,5	-0,027
10,617	0,5	0
12,729	1	0
14,84	0,5	0
16,958	1	-0,001
19,076	1	-0,001
21,188	1	-0,001
23,306	1	-0,002
25,418	1	-0,002
27,53	1	-0,003
29,642	1	-0,004
31,753	1	-0,005
33,871	1	-0,005
35,983	1	-0,009
38,095	1	-0,012
40,213	1,5	-0,016
42,331	1,5	-0,021
44,443	1	-0,029
46,561	1	-0,031
48,678	1	-0,025
50,79	1	-0,033
52,908	1	-0,036
55,02	1	-0,046
57,138	0,5	-0,058
59,25	0,5	-0,08
61,374	0	-0,089
63,486	0,5	-0,104
65,604	0	-0,139
67,727	0	-0,147
69,839	0	-0,233
71,951	-0,5	-0,269
74,063	-0,5	-0,339
76,175	-1	-0,422
78,293	-1	-0,512
80,405	-1	-0,544
82,529	-1	-0,514
84,64	-1,5	-0,624
86,752	-2,5	-0,729
88,876	-2,5	-0,704
90,994	-3	-0,854
93,112	-3	-0,859
95,236	-3	-0,893
97,354	-3,5	-0,995
99,465	-4	-1,116
101,589	-4,5	-1,155
103,701	-4	-1,164
105,819	-4	-1,164
107,931	-5	-1,264
110,061	-4,5	-1,263
112,179	-5,5	-1,412
114,291	-7	-1,57
116,403	-7,5	-1,718
118,515	-9	-1,838
120,626	-8,5	-1,852
122,744	-9	-1,959
124,862	-10,5	-2,135
126,98	-11,5	-2,289
129,092	-14	-2,474
131,21	-13	-2,385
133,322	-14	-2,601
135,445	-15	-2,694
137,557	-16,5	-2,889
139,687	-15,5	-2,781
141,799	-18,5	-2,891
143,911	-19	-2,997
146,023	-18	-3,011
148,135	-20	-3,111
150,253	-19,5	-3,166
152,377	-19,5	-3,276
154,494	-20	-3,417
156,612	-20	-3,5
158,73	-20	-3,5
160,842	-20	-3,5
162,972	-20	-3,5
165,084	-19,5	-3,499
167,196	-19,5	-3,499
169,308	-19,5	-3,498
171,419	-19,5	-3,498
173,537	-20	-3,497
175,649	-20	-3,496
177,773	-19,5	-3,495
179,885	-19,5	-3,495
182,003	-19,5	-3,495
184,121	-19,5	-3,493
186,239	-19,5	-3,488
188,35	-19,5	-3,486
190,462	-19,5	-3,482
192,58	-19,5	-3,484
194,698	-19,5	-3,484
196,81	-19	-3,484
198,934	-19	-3,479
201,058	-19	-3,477
203,176	-19	-3,471
205,293	-18,5	-3,472
207,405	-18,5	-3,467
209,523	-18	-3,459
211,635	-18,5	-3,455
213,753	-18,5	-3,441
215,865	-18	-3,434
217,983	-17,5	-3,414
220,101	-16	-3,367
222,224	-14,5	-3,342
224,348	-15	-3,305
226,461	-15	-3,272
228,578	-15	-3,204
230,714	-15	-3,219
232,832	-15	-3,246
234,944	-14,5	-3,216
237,056	-15	-3,226
239,18	-15	-3,278
241,303	-14,5	-3,295
243,433	-15,5	-3,305
245,551	-15	-3,241
247,675	-15	-3,302
249,799	-15	-3,312
251,911	-15	-3,26
254,035	-15	-3,278
256,159	-15	-3,349
258,282	-15,5	-3,377
260,406	-15,5	-3,383
262,53	-17,5	-3,427
264,648	-17,5	-3,446
266,772	-18	-3,467
268,884	-18	-3,461
271,008	-18	-3,463
273,126	-18	-3,474
275,262	-18,5	-3,482
277,385	-18,5	-3,48
279,503	-18,5	-3,48
281,627	-18	-3,482
283,745	-18,5	-3,482
285,863	-18,5	-3,483
287,993	-18,5	-3,485
290,111	-18,5	-3,487
292,228	-18,5	-3,487
294,364	-18,5	-3,491
296,488	-19	-3,493
298,606	-18,5	-3,494
300,73	-18,5	-3,488
302,86	-18,5	-3,492
304,984	-18,5	-3,491
307,114	-18,5	-3,49
309,226	-18,5	-3,488
311,349	-18,5	-3,491
313,491	-18,5	-3,493
315,603	-18,5	-3,492
317,727	-18	-3,489
319,857	-18,5	-3,49
321,981	-18	-3,488
324,099	-18	-3,488
326,217	-18	-3,482
328,34	-18	-3,478
330,464	-18	-3,476
332,582	-18	-3,478
334,706	-18	-3,464
336,824	-17,5	-3,459
338,942	-17,5	-3,468
341,06	-17	-3,451
343,184	-15,5	-3,4
345,307	-16,5	-3,422
347,431	-16,5	-3,422
349,561	-15	-3,357
351,679	-13,5	-3,225
353,809	-15	-3,312
355,927	-14,5	-3,307
358,045	-15	-3,357
360,169	-16	-3,395
362,286	-15	-3,314
364,416	-14,5	-3,327
366,534	-15	-3,351
368,652	-15	-3,36
370,776	-15	-3,383
372,9	-14,5	-3,341
375,018	-14,5	-3,338
377,136	-15	-3,38
379,266	-16,5	-3,422
381,383	-16,5	-3,408
383,512	-16	-3,417
385,637	-17	-3,446
387,761	-17,5	-3,46
389,891	-17,5	-3,479
392,015	-18	-3,479
394,145	-18	-3,487
396,275	-18	-3,492
398,398	-18	-3,487
400,522	-18	-3,49
402,658	-18	-3,493
404,782	-18	-3,494
406,9	-18	-3,496
409,03	-18	-3,497
411,148	-18	-3,494
413,266	-18	-3,494
415,389	-18	-3,495
417,513	-18	-3,497
419,643	-18	-3,498
421,785	-18	-3,499
423,903	-17,5	-3,499
426,033	-18	-3,5
428,151	-18	-3,5
430,275	-17,5	-3,5
432,398	-17,5	-3,5
434,522	-17,5	-3,5
436,646	-18	-3,499
438,758	-17,5	-3,499
440,882	-17,5	-3,498
443	-17,5	-3,498
445,118	-18	-3,497
447,248	-18	-3,498
449,365	-17,5	-3,497
451,489	-18	-3,498
453,607	-18	-3,497
455,731	-17,5	-3,495
457,849	-17,5	-3,495
459,973	-17,5	-3,496
462,091	-17,5	-3,494
464,209	-17,5	-3,494
466,327	-17,5	-3,495
468,45	-17,5	-3,494
470,574	-17,5	-3,496
472,695	-18	-3,496
474,822	-18	-3,497
476,946	-17,5	-3,499
479,07	-17,5	-3,499
481,194	-17,5	-3,499
483,312	-17,5	-3,5
485,435	-17,5	-3,5
487,559	-17,5	-3,5
489,677	-17,5	-3,449
491,795	-17,5	-3,491
493,919	-17,5	-3,342
496,043	-17,5	-3,274
498,173	-16,5	-3,067
500,297	-14,5	-2,9
502,438	-13,5	-2,779
504,562	-13,5	-2,644
506,692	-12	-2,547
508,81	-11,5	-2,526
510,934	-11	-2,539
513,052	-10,5	-2,386
515,176	-9,5	-2,372
517,294	-9,5	-2,356
519,417	-8,5	-2,246
521,535	-8	-2,189
523,653	-7	-2,055
525,777	-6,5	-1,957
527,907	-7	-1,94
530,037	-7	-2,03
532,155	-6,5	-1,993
534,273	-6	-1,924
536,397	-5,5	-1,771
538,514	-5	-1,67
540,638	-4,5	-1,572
542,762	-3,5	-1,422
544,886	-3	-1,348
547,016	-2	-1,199
549,134	-2	-1,145
551,258	-2,5	-1,17
553,382	-1,5	-0,985
555,505	-1	-0,78
557,623	-0,5	-0,664
559,747	-0,5	-0,57
561,865	0	-0,445
563,989	0	-0,386
566,107	0	-0,314
568,225	0	-0,273
570,343	0,5	-0,206
572,466	1	-0,139
574,584	0,5	-0,221
576,708	0	-0,361
578,826	0	-0,452
580,944	0	-0,313
583,074	1	-0,215
585,198	0,5	-0,233
587,316	1,5	-0,134
589,427	1	-0,117
591,545	1,5	-0,1
593,675	1	-0,162
595,793	0,5	-0,283
597,923	1	-0,142
600,041	1	-0,111
602,165	1	-0,126
604,289	1	-0,15
606,413	1,5	-0,109
608,53	1,5	-0,067
610,66	1,5	-0,093
612,778	2	-0,045
614,89	1,5	-0,062
617,014	1,5	-0,043
619,138	2	-0,029
621,268	2	-0,022
623,386	2	-0,024
625,509	2	-0,024
627,633	2	-0,02
629,763	2,5	-0,013
631,881	2	-0,01
634,005	2,5	-0,013
636,129	2,5	-0,012
638,253	2,5	-0,012
640,377	2,5	-0,008
642,506	2,5	-0,004
644,63	2,5	-0,002
646,754	2,5	-0,003
648,878	2,5	-0,003
651,008	2,5	-0,003
653,132	2,5	-0,002
655,256	2	-0,001
657,386	2,5	0
659,509	2,5	0
661,633	2	-0,005
663,757	2	-0,11
665,887	2	-0,197
668,005	1,5	-0,333
670,123	2	-0,408
672,247	0	-0,561
674,365	0,5	-0,495
676,489	0	-0,594
678,618	0	-0,76
680,736	-0,5	-0,819
682,866	-1,5	-0,932
684,99	-1,5	-0,993
687,12	-2	-1,127
689,238	-2	-1,175
691,362	-2,5	-1,31
693,486	-3	-1,51
695,603	-4	-1,742
697,733	-4	-1,81
699,857	-4,5	-1,955
701,975	-4	-2,018
704,093	-4,5	-1,865
706,217	-4,5	-1,963
708,335	-5	-2,096
710,453	-5	-2,095
712,564	-5,5	-2,118
714,694	-5,5	-2,205
716,812	-6	-2,294
718,942	-7,5	-2,461
721,072	-8	-2,594
723,19	-8,5	-2,68
725,314	-8,5	-2,665
727,432	-9	-2,756
729,556	-10	-2,908
731,679	-11	-3,012
733,809	-11,5	-3,188
735,927	-13	-3,251
738,045	-12	-3,183
740,163	-12,5	-3,262
742,281	-13	-3,291
744,405	-13,5	-3,36
746,529	-14,5	-3,408
748,652	-14,5	-3,416
750,782	-15	-3,421
752,9	-15	-3,444
755,03	-16	-3,467
757,154	-16	-3,479
759,272	-16,5	-3,488
761,39	-16	-3,477
763,52	-16,5	-3,488
765,637	-16,5	-3,491
767,761	-16,5	-3,485
769,879	-16,5	-3,489
772,003	-16,5	-3,494
774,121	-16,5	-3,496
776,239	-16,5	-3,497
778,357	-16,5	-3,498
780,481	-16,5	-3,499
782,598	-16,5	-3,499
784,716	-16,5	-3,499
786,84	-16,5	-3,5
788,952	-16,5	-3,5
791,076	-16,5	-3,5
793,2	-16,5	-3,5
795,318	-16,5	-3,5
797,448	-16,5	-3,5
799,584	-16,5	-3,499
801,701	-16,5	-3,499
803,825	-16,5	-3,5
805,955	-16,5	-3,465
808,073	-16,5	-3,372
810,203	-16,5	-3,215
812,321	-16	-3,232
814,439	-16	-3,189
816,563	-15,5	-3,073
818,68	-14	-2,956
820,804	-12,5	-2,756
822,934	-11	-2,649
825,052	-11	-2,53
827,182	-9	-2,382
829,3	-8,5	-2,266
831,418	-8,5	-2,18
833,542	-8	-2,172
835,659	-7	-2,104
837,783	-7	-2,037
839,907	-6	-1,944
842,025	-5,5	-1,88
844,149	-5,5	-1,797
846,273	-4,5	-1,73
848,391	-4,5	-1,656
850,521	-4	-1,586
852,638	-3,5	-1,548
854,762	-4,5	-1,62
856,88	-4	-1,6
859,004	-4	-1,575
861,134	-3,5	-1,494
863,252	-3	-1,441
865,376	-3	-1,434
867,494	-3	-1,407
869,618	-3	-1,292
871,741	-2,5	-1,194
873,859	-2	-1,173
875,983	-2,5	-1,261
878,113	-2	-1,26
880,231	-2,5	-1,335
882,361	-3	-1,28
884,485	-2	-1,128
886,603	-2	-1,155
888,72	-2	-1,16
890,85	-1,5	-1,064
892,968	-1,5	-1,011
895,086	-1,5	-0,953
897,21	-0,5	-0,843
899,328	-1	-0,918
901,452	-1	-0,845
903,57	-1	-0,873
905,693	-1	-0,834
907,817	-0,5	-0,756
909,935	-0,5	-0,739
912,053	-0,5	-0,681
914,171	-0,5	-0,676
916,295	0	-0,6
918,419	0	-0,496
920,537	0	-0,347
922,66	0	-0,366
924,796	0	-0,302
926,926	0,5	-0,229
929,038	1	-0,164
931,156	1,5	-0,107
933,28	1,5	-0,066
935,398	2	-0,045
937,522	2	-0,026
939,643	2,5	-0,018
941,763	2,5	-0,014
943,881	2,5	-0,012
946,005	2,5	-0,01
948,129	2,5	-0,006
950,253	2,5	-0,003
952,371	2,5	-0,002
954,489	2	-0,001
956,613	2	0
958,724	2,5	0
960,842	2	-0,024
962,966	2	-0,215
965,09	1,5	-0,313
967,208	1,5	-0,431
969,32	1	-0,56
971,444	0	-0,776
973,562	-0,5	-0,866
975,685	-1,5	-0,943
977,803	-1	-1,038
979,921	-2	-1,209
982,039	-2	-1,292
984,157	-2,5	-1,399
986,275	-2,5	-1,489
988,393	-3	-1,638
990,517	-3,5	-1,756
992,634	-4	-1,896
994,758	-5	-2,163
996,876	-5,5	-2,334
999,006	-6,5	-2,568
1001,124	-8	-2,653
1003,242	-9	-2,828
1005,354	-9,5	-2,973
1007,484	-10,5	-3,08
1009,607	-12	-3,248
1011,719	-12	-3,288
1013,849	-13,5	-3,378
1015,967	-14,5	-3,414
1018,091	-15	-3,439
1020,209	-15	-3,451
1022,333	-15	-3,458
1024,451	-15	-3,458
1026,575	-15	-3,472
1028,686	-15	-3,473
1030,81	-15,5	-3,484
1032,928	-15,5	-3,488
1035,064	-16	-3,494
1037,188	-16	-3,496
1039,312	-15,5	-3,497
1041,442	-15,5	-3,498
1043,56	-15,5	-3,499
1045,695	-16	-3,5
1047,813	-15,5	-3,5
1049,943	-16	-3,349
1052,061	-15,5	-3,276
1054,179	-15	-3,195
1056,291	-15	-3,101
1058,415	-15	-3,084
1060,533	-14	-2,976
1062,669	-12	-2,813
1064,786	-11,5	-2,728
1066,91	-11,5	-2,767
1069,034	-11,5	-2,705
1071,158	-11	-2,734
1073,282	-12	-2,715
1075,406	-10,5	-2,628
1077,518	-10	-2,62
1079,629	-10	-2,593
1081,747	-10	-2,594
1083,865	-9	-2,498
1085,989	-8,5	-2,379
1088,107	-8	-2,34
1090,225	-8	-2,288
1092,343	-7	-2,198
1094,467	-6,5	-2,153
1096,579	-6,5	-2,162
1098,696	-6	-2,12
1100,814	-6	-2,06
1102,938	-5,5	-2,102
1105,05	-6,5	-2,099
1107,174	-6	-2,039
1109,292	-6,5	-2,114
1111,416	-6,5	-2,19
1113,534	-7	-2,147
1115,651	-8	-2,329
1117,775	-8	-2,405
1119,899	-7,5	-2,322
1122,017	-7	-2,254
1124,135	-6,5	-2,179
1126,259	-6	-2,113
1128,383	-6	-2,072
1130,501	-5,5	-2,004
1132,624	-5	-1,916
1134,736	-5	-1,956
1136,866	-5	-1,85
1138,984	-4,5	-1,738
1141,102	-3,5	-1,573
1143,226	-3	-1,414
1145,35	-2,5	-1,386
1147,474	-2	-1,24
1149,585	-2	-1,18
1151,703	-1,5	-1,121
1153,827	-1,5	-1,055
1155,951	-1,5	-1,122
1158,081	-1,5	-1,066
1160,193	-1	-1,108
1162,317	-1	-1,014
1164,435	-1	-1,01
1166,553	-0,5	-0,911
1168,677	-0,5	-0,751
1170,806	0	-0,639
1172,924	0	-0,528
1175,036	0	-0,436
1177,16	0	-0,422
1179,272	0	-0,373
1181,396	0	-0,306
1183,514	1	-0,222
1185,637	1	-0,134
1187,755	1,5	-0,103
1189,873	1,5	-0,08
1191,991	2	-0,072
1194,109	2	-0,049
1196,227	1,5	-0,053
1198,351	2	-0,041
1200,469	2	-0,043
1202,586	2	-0,041
1204,704	2	-0,032
1206,828	2	-0,023
1208,946	2	-0,022
1211,07	2,5	-0,022
1213,188	2	-0,019
1215,312	2,5	-0,015
1217,43	2	-0,01
1219,548	2,5	-0,008
1221,671	2,5	-0,004
1223,789	2,5	-0,003
1225,908	2	-0,002
1228,025	2,5	-0,002
1230,149	2,5	-0,001
1232,267	2,5	-0,001
1234,391	2,5	-0,001
1236,509	2,5	-0,001
1238,632	2	-0,001
1240,75	2,5	-0,001
1242,874	2,5	-0,001
1244,992	2,5	-0,001
1247,11	3	-0,001
1249,234	2,5	0
1251,358	2,5	-0,048
1253,482	2,5	-0,18
1255,599	2	-0,208
1257,729	2,5	-0,191
1259,847	2,5	-0,154
1261,971	2,5	-0,171
1264,089	2,5	-0,108
1266,219	2,5	-0,224
1268,337	2,5	-0,206
1270,467	2	-0,295
1272,578	2	-0,41
1274,702	1,5	-0,498
1276,814	1,5	-0,425
1278,938	1,5	-0,544
1281,056	1	-0,56
1283,174	1,5	-0,442
1285,298	1,5	-0,467
1287,416	1,5	-0,482
1289,534	1,5	-0,439
1291,651	1,5	-0,477
1293,763	2	-0,446
1295,881	1,5	-0,504
1298,005	0,5	-0,582
1300,129	0,5	-0,595
1302,241	0,5	-0,676
1304,365	0	-0,765
1306,483	0	-0,828
1308,606	-1	-0,896
1310,724	-0,5	-0,88
1312,842	-0,5	-0,879
1314,966	-1	-0,967
1317,084	-1,5	-1,04
1319,208	-1,5	-1,075
1321,326	-1,5	-1,08
1323,456	-1,5	-1,182
1325,575	-1,5	-1,209
1327,691	-1,5	-1,235
1329,809	-2	-1,357
1331,921	-2,5	-1,5
1334,045	-2,5	-1,425
1336,163	-3	-1,632
1338,287	-3	-1,715
1340,405	-3,5	-1,837
1342,528	-4	-2,011
1344,646	-4,5	-2,116
1346,77	-5	-2,211
1348,882	-5	-2,222
1351	-6	-2,392
1353,118	-5,5	-2,412
1355,236	-5,5	-2,46
1357,36	-6,5	-2,516
1359,478	-5,5	-2,468
1361,601	-7	-2,646
1363,719	-8,5	-2,795
1365,849	-8,5	-2,898
1367,967	-9	-2,976
1370,079	-8,5	-2,845
1372,203	-9	-2,938
1374,327	-10,5	-3,132
1376,451	-11	-3,246
1378,568	-12	-3,335
1380,692	-13	-3,392
1382,81	-14	-3,419
1384,928	-14	-3,416
1387,052	-14	-3,439
1389,164	-13,5	-3,423
1391,282	-14	-3,421
1393,4	-14,5	-3,438
1395,523	-14	-3,431
1397,647	-14,5	-3,452
1399,765	-15	-3,456
1401,883	-15	-3,455
1404,001	-15	-3,458
1406,119	-15	-3,476
1408,237	-15	-3,482
1410,361	-15	-3,484
1412,484	-15	-3,49
1414,602	-15	-3,489
1416,726	-15	-3,489
1418,85	-15	-3,492
1420,974	-15	-3,492
1423,098	-15	-3,493
1425,216	-15	-3,494
1427,334	-15	-3,494
1429,446	-15	-3,495
1431,563	-15	-3,494
1433,681	-15	-3,494
1435,799	-15	-3,494
1437,917	-15	-3,495
1440,035	-15	-3,495
1442,165	-15	-3,496
1444,283	-15	-3,496
1446,407	-15	-3,497
1448,53	-15	-3,497
1450,642	-15	-3,496
1452,766	-15	-3,496
1454,884	-15	-3,496
1457,008	-15	-3,496
1459,126	-15	-3,496
1461,244	-15	-3,497
1463,362	-15	-3,496
1465,479	-15	-3,497
1467,597	-15	-3,496
1469,727	-15	-3,498
1471,845	-15	-3,497
1473,969	-15	-3,497
1476,087	-15	-3,497
1478,217	-15	-3,498
1480,341	-15	-3,498
1482,458	-15	-3,498
1484,582	-15	-3,498
1486,7	-15	-3,498
1488,818	-15	-3,498
1490,942	-15	-3,498
1493,06	-15	-3,498
1495,19	-15	-3,498
1497,308	-15	-3,498
1499,426	-15	-3,499
1501,549	-15	-3,499
1503,667	-15	-3,499
1505,785	-15	-3,499
1507,909	-15	-3,499
1510,027	-15	-3,5
1512,145	-15	-3,5
1514,269	-15	-3,5
1516,387	-15	-3,438
1518,516	-15	-3,271
1520,634	-15	-3,254
1522,758	-15	-3,208
1524,876	-15	-3,208
1527	-14,5	-3,12
1529,124	-14	-3,025
1531,248	-13	-2,953
1533,372	-11	-2,817
1535,495	-10,5	-2,729
1537,613	-9,5	-2,624
1539,737	-10	-2,689
1541,861	-10	-2,665
1543,979	-9,5	-2,585
1546,103	-9	-2,53
1548,221	-9	-2,514
1550,339	-8,5	-2,474
1552,462	-9	-2,398
1554,58	-7,5	-2,374
1556,704	-7,5	-2,36
1558,822	-8	-2,392
1560,94	-7,5	-2,376
1563,052	-7,5	-2,422
1565,17	-7	-2,339
1567,294	-7	-2,335
1569,412	-7	-2,325
1571,529	-7,5	-2,332
1573,659	-8	-2,303
1575,777	-7,5	-2,292
1577,907	-6	-2,174
1580,025	-6,5	-2,134
1582,149	-5,5	-2,049
1584,267	-5	-2,023
1586,385	-6	-2,104
1588,508	-5,5	-2,069
1590,632	-5,5	-2,039
1592,75	-4,5	-1,939
1594,868	-5	-1,991
1596,986	-5	-1,991
1599,104	-6	-2,061
1601,222	-5	-1,939
1603,34	-4,5	-1,86
1605,463	-4	-1,761
1607,581	-5	-1,938
1609,705	-4,5	-1,902
1611,829	-4	-1,825
1613,947	-4	-1,851
1616,065	-4	-1,81
1618,189	-4,5	-1,935
1620,307	-4	-1,819
1622,43	-3,5	-1,746
1624,548	-4	-1,784
1626,666	-4,5	-1,916
1628,79	-4,5	-1,882
1630,914	-4	-1,835
1633,038	-4,5	-1,789
1635,156	-4,5	-1,829
1637,268	-4	-1,805
1639,391	-3,5	-1,734
1641,509	-3	-1,665
1643,627	-3	-1,66
1645,751	-3	-1,566
1647,869	-3	-1,555
1649,987	-3	-1,503
1652,111	-2,5	-1,399
1654,235	-2	-1,289
1656,353	-1,5	-1,236
1658,47	-1,5	-1,061
1660,588	-1	-1,142
1662,706	-0,5	-0,998
1664,83	-1	-0,921
1666,948	-0,5	-0,825
1669,066	-0,5	-0,762
1671,184	0	-0,672
1673,296	-0,5	-0,702
1675,419	-0,5	-0,753
1677,537	-0,5	-0,742
1679,655	-0,5	-0,79
1681,779	-0,5	-0,821
1683,897	-0,5	-0,75
1686,015	-0,5	-0,815
1688,139	-0,5	-0,769
1690,257	-0,5	-0,691
1692,368	-0,5	-0,716
1694,492	-0,5	-0,701
1696,616	0	-0,71
1698,74	-0,5	-0,802
1700,864	-0,5	-0,836
1702,976	-0,5	-0,75
1705,1	-0,5	-0,778
1707,218	-0,5	-0,89
1709,329	-1	-0,953
1711,453	-0,5	-0,854
1713,577	-0,5	-0,815
1715,695	-0,5	-0,75
1717,819	-0,5	-0,752
1719,931	-0,5	-0,847
1722,049	-1	-0,975
1724,167	-1,5	-1,06
1726,297	-1	-1,001
1728,414	-1,5	-1,135
1730,538	-1,5	-1,163
1732,656	-1,5	-1,126
1734,78	-1,5	-1,086
1736,904	-1,5	-1,131
1739,028	-1,5	-1,086
1741,146	-1,5	-1,012
1743,27	-1,5	-1,024
1745,393	-1,5	-0,995
1747,511	-1,5	-1,016
1749,635	-1	-1,035
1751,753	-1	-1,014
1753,871	-1	-0,955
1755,983	-1	-0,991
1758,101	-1,5	-1,082
1760,213	-1,5	-1,111
1762,331	-1,5	-1,086
1764,442	-2	-1,245
1766,56	-2	-1,308
1768,684	-3	-1,454
1770,802	-3	-1,502
1772,914	-3	-1,609
1775,038	-3	-1,566
1777,156	-3	-1,589
1779,268	-4,5	-1,799
1781,385	-4	-1,68
1783,509	-4	-1,71
1785,627	-3,5	-1,703
1787,751	-4,5	-1,73
1789,869	-4	-1,752
1791,987	-4,5	-1,81
1794,111	-4	-1,729
1796,223	-4	-1,775
1798,346	-4,5	-1,872
1800,47	-5	-1,88
1802,582	-4,5	-1,868
1804,7	-4,5	-1,868
1806,83	-4,5	-1,798
1808,948	-4,5	-1,788
1811,072	-4	-1,816
1813,184	-5	-1,82
1815,295	-5	-2,031
1817,425	-5	-2,004
1819,549	-5	-1,97
1821,661	-5,5	-2,03
1823,779	-5	-1,978
1825,897	-5	-2,031
1828,015	-5,5	-2,048
1830,145	-5,5	-2,01
1832,262	-5,5	-2,064
1834,38	-5,5	-2,059
1836,498	-6	-2,171
1838,616	-6	-2,155
1840,734	-5,5	-2,108
1842,858	-5,5	-2,03
1844,982	-5	-1,953
1847,1	-5	-1,948
1849,218	-5	-1,921
1851,335	-5	-1,97
1853,453	-6	-2,236
1855,571	-7	-2,306
1857,689	-6	-2,242
1859,807	-7	-2,269
1861,925	-7,5	-2,307
1864,049	-6,5	-2,287
1866,167	-8	-2,405
1868,278	-8,5	-2,489
1870,402	-9	-2,528
1872,514	-8,5	-2,525
1874,626	-10,5	-2,712
1876,744	-10,5	-2,706
1878,874	-10	-2,716
1880,992	-9,5	-2,658
1883,122	-9,5	-2,592
1885,239	-8,5	-2,492
1887,357	-9	-2,546
1889,487	-8,5	-2,555
1891,605	-10	-2,662
1893,717	-10	-2,698
1895,835	-10	-2,725
1897,959	-10	-2,626
1900,071	-9	-2,614
1902,194	-8,5	-2,552
1904,312	-8	-2,536
1906,43	-9	-2,612
1908,548	-8,5	-2,575
1910,672	-7,5	-2,46
1912,79	-7	-2,36
1914,908	-7	-2,385
1917,032	-7	-2,341
1919,149	-6,5	-2,336
1921,261	-7	-2,302
1923,385	-5,5	-2,14
1925,503	-6	-2,125
1927,621	-5,5	-2,114
1929,745	-5	-2,094
1931,863	-5,5	-2,107
1933,981	-7	-2,286
1936,105	-6	-2,257
1938,222	-6,5	-2,231
1940,34	-6	-2,152
1942,458	-6,5	-2,28
1944,576	-7	-2,329
1946,7	-7,5	-2,341
1948,818	-6,5	-2,278
1950,93	-6,5	-2,292
1953,048	-6	-2,276
1955,171	-6,5	-2,31
1957,289	-6,5	-2,3
1959,407	-6	-2,29
1961,531	-6,5	-2,292
1963,649	-7	-2,341
1965,767	-7,5	-2,464
1967,885	-8	-2,539
1970,003	-8	-2,512
1972,12	-8	-2,565
1974,238	-9	-2,592
1976,356	-9	-2,577
1978,486	-8	-2,502
1980,604	-8,5	-2,62
1982,722	-8,5	-2,609
1984,846	-8	-2,552
1986,97	-7,5	-2,47
1989,082	-9	-2,638
1991,211	-8,5	-2,573
1993,329	-9	-2,642
1995,447	-9	-2,643
1997,571	-9	-2,614
1999,689	-9	-2,641
2001,807	-9	-2,656
2003,931	-9,5	-2,701
2006,049	-9,5	-2,724
2008,172	-10,5	-2,811
2010,302	-9,5	-2,746
2012,42	-9	-2,704
2014,538	-8,5	-2,646
2016,656	-9	-2,636
2018,78	-7,5	-2,536
2020,898	-7,5	-2,536
2023,022	-7,5	-2,47
2025,145	-7,5	-2,451
2027,263	-7	-2,43
2029,381	-7,5	-2,435
2031,505	-6,5	-2,364
2033,629	-7	-2,404
2035,747	-6,5	-2,34
2037,871	-6,5	-2,337
2039,995	-6,5	-2,323
2042,112	-6	-2,286
2044,23	-6	-2,27
2046,354	-5,5	-2,172
2048,472	-5,5	-2,097
2050,59	-5	-2,076
2052,708	-5	-2,066
2054,826	-5	-2,083
2056,944	-4,5	-2,015
2059,062	-4,5	-2,005
2061,185	-4,5	-1,942
2063,297	-4,5	-2
2065,415	-4,5	-1,952
2067,539	-4	-1,858
2069,663	-3,5	-1,776
2071,775	-3,5	-1,795
2073,905	-3,5	-1,747
2076,017	-3	-1,756
2078,134	-3	-1,783
2080,252	-3,5	-1,735
2082,376	-3	-1,696
2084,494	-3	-1,653
2086,612	-3	-1,637
2088,736	-3	-1,602
2090,86	-2	-1,461
2092,978	-2	-1,376
2095,095	-1,5	-1,277
2097,219	-1,5	-1,209
2099,337	-1	-1,188
2101,467	-1	-1,144
2103,585	-1	-1,129
2105,703	-1	-1,129
2107,821	-1	-1,124
2109,945	-1	-1,17
2112,062	-1	-1,116
2114,186	-1	-1,076
2116,31	-1	-0,987
2118,428	-1	-0,982
2120,546	-1	-0,978
2122,664	-0,5	-0,931
2124,788	-0,5	-0,905
2126,906	-0,5	-0,906
2129,024	-0,5	-0,854
2131,141	0	-0,716
2133,265	0	-0,686
2135,383	0	-0,713
2137,507	-0,5	-0,731
2139,631	0	-0,691
2141,749	-0,5	-0,745
2143,867	0	-0,687
2145,985	-0,5	-0,836
2148,102	-0,5	-0,88
2150,226	-0,5	-0,902
2152,344	-0,5	-0,834
2154,468	-0,5	-0,782
2156,586	0	-0,724
2158,704	0	-0,666
2160,828	0	-0,6
2162,952	0	-0,533
2165,069	0	-0,539
2167,193	0	-0,632
2169,317	0	-0,64
2171,435	0	-0,666
2173,553	0	-0,704
2175,671	0	-0,794
2177,795	-0,5	-0,929
2179,913	-0,5	-1,031
2182,036	-0,5	-1,049
2184,16	-0,5	-0,956
2186,278	-1	-1,02
2188,396	-1	-1,062
2190,526	-1	-1,004
2192,644	-0,5	-0,924
2194,768	-0,5	-0,905
2196,886	-0,5	-0,932
2199,004	-0,5	-0,937
2201,121	-0,5	-0,938
2203,239	-0,5	-0,98
2205,363	-0,5	-0,984
2207,487	-1	-1,034
2209,605	-1	-1,05
2211,723	-1	-1,103
2213,853	-0,5	-0,963
2215,965	-1	-0,99
2218,076	-1	-1,094
2220,194	-1	-1,089
2222,318	-1,5	-1,139
2224,436	-1,5	-1,208
2226,56	-2	-1,392
2228,684	-2,5	-1,42
2230,802	-2,5	-1,469
2232,92	-3	-1,59
2235,043	-3,5	-1,705
2237,155	-3,5	-1,825
2239,279	-3,5	-1,802
2241,397	-4	-1,866
2243,521	-4	-1,81
2245,633	-4	-1,887
2247,745	-4	-1,902
2249,869	-4	-1,873
2251,987	-4	-1,878
2254,128	-3,5	-1,785
2256,246	-3,5	-1,812
2258,37	-4	-1,878
2260,488	-4,5	-1,959
2262,606	-4,5	-2,06
2264,73	-5	-2,12
2266,854	-5,5	-2,176
2268,966	-5,5	-2,174
2271,083	-6	-2,335
2273,207	-5,5	-2,182
2275,325	-6	-2,305
2277,437	-6,5	-2,315
2279,555	-8	-2,527
2281,673	-9	-2,676
2283,791	-8,5	-2,634
2285,909	-9	-2,635
2288,032	-9,5	-2,675
2290,15	-9,5	-2,738
2292,268	-9,5	-2,755
2294,386	-10,5	-2,845
2296,504	-10,5	-2,846
2298,628	-10,5	-2,821
2300,74	-12	-2,911
2302,858	-12,5	-2,976
2304,981	-11	-2,961
2307,099	-12,5	-2,966
2309,217	-12,5	-3,011
2311,341	-11,5	-3,002
2313,459	-12,5	-3,092
2315,571	-13,5	-3,192
2317,689	-13,5	-3,146
2319,813	-14	-3,185
2321,937	-13,5	-3,176
2324,048	-13,5	-3,213
2326,178	-13,5	-3,212
2328,296	-13,5	-3,153
2330,414	-13,5	-3,131
2332,526	-13,5	-3,173
2334,65	-13	-3,143
2336,768	-13	-3,126
2338,886	-12,5	-3,064
2340,997	-12,5	-3,11
2343,121	-12,5	-3,112
2345,239	-12,5	-3,097
2347,363	-13,5	-3,106
2349,481	-12	-3,041
2351,605	-11,5	-2,969
2353,723	-11	-2,947
2355,841	-11	-2,943
2357,964	-12	-2,988
2360,088	-12	-2,98
2362,206	-12	-2,985
2364,324	-11,5	-2,97
2366,442	-12	-2,96
2368,566	-12	-3,014
2370,69	-12,5	-3
2372,802	-11,5	-2,962
2374,931	-11	-2,86
2377,049	-11	-2,86
2379,167	-10,5	-2,834
2381,279	-10,5	-2,859
2383,409	-9,5	-2,709
2385,527	-9	-2,666
2387,645	-9	-2,656
2389,757	-9	-2,719
2391,88	-9	-2,695
2393,998	-8,5	-2,636
2396,116	-8,5	-2,664
2398,234	-8,5	-2,706
2400,352	-9	-2,68
2402,47	-10	-2,771
2404,588	-10,5	-2,809
2406,706	-10,5	-2,862
2408,824	-10	-2,788
2410,941	-10,5	-2,884
2413,065	-10	-2,78
2415,183	-9,5	-2,732
2417,301	-9,5	-2,781
2419,419	-9,5	-2,775
2421,531	-10	-2,775
2423,649	-10	-2,796
2425,767	-10	-2,802
2427,884	-9,5	-2,754
2430,008	-9,5	-2,751
2432,126	-9	-2,708
2434,244	-9	-2,72
2436,362	-9,5	-2,779
2438,486	-9	-2,701
2440,604	-10	-2,803
2442,728	-9	-2,73
2444,845	-9	-2,684
2446,969	-9,5	-2,712
2449,087	-9,5	-2,712
2451,205	-9	-2,708
2453,323	-9	-2,696
2455,441	-8	-2,591
2457,559	-8	-2,635
2459,677	-8,5	-2,64
2461,806	-7,5	-2,553
2463,924	-8	-2,581
2466,042	-8,5	-2,64
2468,16	-8,5	-2,656
2470,29	-7,5	-2,57
2472,414	-7,5	-2,577
2474,532	-7,5	-2,578
2476,65	-8,5	-2,605
2478,774	-8	-2,612
2480,891	-7,5	-2,596
2483,009	-7,5	-2,602
2485,127	-8,5	-2,629
2487,251	-7,5	-2,605
2489,375	-8	-2,602
2491,493	-8	-2,629
2493,611	-8,5	-2,694
2495,735	-8	-2,668
2497,852	-8,5	-2,685
2499,97	-8,5	-2,717
2502,094	-8	-2,666
2504,212	-8,5	-2,715
2506,336	-9	-2,75
2508,448	-9	-2,806
2510,572	-9	-2,771
2512,69	-9	-2,792
2514,801	-9	-2,749
2516,919	-10	-2,819
2519,043	-10	-2,82
2521,161	-10	-2,826
2523,273	-9,5	-2,814
2525,391	-9	-2,755
2527,515	-8,5	-2,674
2529,633	-8,5	-2,674
2531,763	-7,5	-2,523
2533,886	-6,5	-2,483
2536,01	-6,5	-2,47
2538,128	-6	-2,406
2540,246	-6,5	-2,465
2542,364	-7,5	-2,561
2544,488	-7,5	-2,59
2546,606	-7,5	-2,58
2548,724	-8	-2,591
2550,847	-7	-2,54
2552,971	-7,5	-2,548
2555,095	-7	-2,502
2557,213	-7,5	-2,582
2559,337	-8	-2,655
2561,461	-8,5	-2,693
2563,579	-8,5	-2,71
2565,703	-8	-2,61
2567,82	-9	-2,723
2569,938	-9,5	-2,809
2572,056	-10	-2,814
2574,174	-10,5	-2,969
2576,292	-11	-2,996
2578,41	-11	-3,012
2580,528	-10,5	-2,97
2582,646	-10,5	-3,008
2584,763	-10,5	-3,014
2586,893	-11	-3,012
2589,011	-11,5	-3,093
2591,129	-11	-3,061
2593,241	-12	-3,118
2595,365	-10,5	-2,982
2597,489	-10	-2,952
2599,607	-9,5	-2,936
2601,725	-10,5	-3
2603,848	-10,5	-2,971
2605,972	-10	-2,92
2608,096	-10	-2,906
2610,22	-10,5	-2,914
2612,332	-10,5	-2,987
2614,444	-10,5	-3,001
2616,568	-10,5	-2,988
2618,692	-10,5	-2,964
2620,809	-10,5	-3,006
2622,933	-10,5	-2,95
2625,051	-10	-2,946
2627,175	-10	-2,942
2629,293	-10,5	-2,996
2631,411	-10,5	-2,974
2633,535	-10,5	-2,977
2635,653	-11	-3,042
2637,776	-10	-2,932
2639,894	-10,5	-2,959
2642,012	-10,5	-3,012
2644,13	-10,5	-3,002
2646,248	-10,5	-3,013
2648,366	-9,5	-2,945
2650,484	-9,5	-2,913
2652,602	-9,5	-2,976
2654,725	-9,5	-2,926
2656,843	-9	-2,884
2658,961	-9	-2,851
2661,073	-9	-2,792
2663,191	-9	-2,809
2665,309	-9,5	-2,867
2667,427	-9,5	-2,916
2669,551	-8,5	-2,774
2671,675	-8	-2,686
2673,798	-7	-2,62
2675,916	-6	-2,519
2678,034	-6,5	-2,481
2680,152	-6,5	-2,499
2682,276	-5	-2,345
2684,394	-5,5	-2,32
2686,512	-5,5	-2,31
2688,63	-5,5	-2,316
2690,759	-5	-2,298
2692,877	-4,5	-2,266
2695,001	-5	-2,29
2697,119	-5	-2,27
2699,243	-5	-2,261
2701,361	-5	-2,304
2703,479	-5	-2,326
2705,603	-5	-2,28
2707,726	-5	-2,272
2709,844	-5	-2,267
2711,962	-5	-2,284
2714,086	-5	-2,222
2716,21	-4,5	-2,171
2718,328	-4	-2,097
2720,446	-4	-2,082
2722,558	-4	-2,117
2724,681	-4	-2,109
2726,799	-4	-2,066
2728,917	-4	-2,008
2731,041	-3,5	-1,937
2733,153	-4	-1,903
2735,277	-3	-1,879
2737,389	-3	-1,813
2739,507	-2,5	-1,75
2741,63	-3	-1,726
2743,748	-3	-1,758
2745,866	-3	-1,716
2747,984	-2,5	-1,664
2750,096	-2,5	-1,666
2752,214	-2,5	-1,661
2754,338	-2	-1,588
2756,456	-2	-1,483
2758,574	-1,5	-1,431
2760,691	-1,5	-1,415
2762,809	-1,5	-1,266
2764,927	-1	-1,138
2767,051	-0,5	-1,02
2769,169	0	-0,862
2771,287	0	-0,835
2773,405	0	-0,835
2775,523	0	-0,718
2777,646	0	-0,631
2779,77	0	-0,477
2781,882	0	-0,482
2784	0,5	-0,333
2786,118	0,5	-0,215
2788,242	1	-0,166
2790,366	1	-0,109
2792,478	1,5	-0,077
2794,595	1,5	-0,083
2796,719	1,5	-0,078
2798,837	1,5	-0,067
2800,955	1,5	-0,069
2803,067	1,5	-0,074
2805,185	1,5	-0,076
2807,309	2	-0,044
2809,421	1,5	-0,049
2811,539	2	-0,034
2813,656	2	-0,027
2815,78	2	-0,024
2817,898	2,5	-0,02
2820,01	2	-0,017
2822,128	2,5	-0,017
2824,252	2	-0,017
2826,37	2	-0,016
2828,482	2,5	-0,018
2830,599	2,5	-0,013
2832,723	2	-0,015
2834,841	2,5	-0,014
2836,959	2,5	-0,017
2839,083	2,5	-0,012
2841,201	2,5	-0,013
2843,319	2,5	-0,01
2845,443	2	-0,008
2847,56	2,5	-0,008
2849,678	2,5	-0,008
2851,796	2,5	-0,007
2853,914	2,5	-0,006
2856,032	2,5	-0,003
2858,15	2,5	-0,003
2860,274	2,5	-0,002
2862,392	2,5	-0,002
2864,509	2,5	-0,003
2866,627	2,5	-0,002
2868,745	3	-0,003
2870,875	2,5	-0,003
2872,993	2,5	-0,004
2875,117	2,5	-0,002
2877,235	2,5	-0,002
2879,353	2,5	-0,002
2881,471	3	-0,003
2883,582	2,5	-0,004
2885,7	2,5	-0,006
2887,818	2,5	-0,006
2889,942	2,5	-0,006
2892,06	2,5	-0,004
2894,184	2,5	-0,004
2896,302	2,5	-0,005
2898,426	2,5	-0,004
2900,537	2,5	-0,005
2902,655	2,5	-0,006
2904,773	2	-0,006
2906,897	2,5	-0,008
2909,009	2,5	-0,01
2911,133	2,5	-0,012
2913,251	2,5	-0,013
2915,363	2,5	-0,016
2917,492	2,5	-0,015
2919,61	2,5	-0,016
2921,728	2,5	-0,016
2923,846	2,5	-0,016
2925,964	2,5	-0,015
2928,088	2	-0,014
2930,212	2	-0,014
2932,33	2	-0,017
2934,453	2,5	-0,017
2936,577	2,5	-0,018
2938,695	2	-0,02
2940,813	2,5	-0,022
2942,931	2	-0,024
2945,049	2	-0,024
2947,173	2	-0,026
2949,291	2,5	-0,025
2951,415	2,5	-0,021
2953,532	2,5	-0,023
2955,656	2,5	-0,018
2957,78	2,5	-0,015
2959,898	2,5	-0,014
2962,016	2	-0,017
2964,134	2,5	-0,018
2966,258	2	-0,017
2968,376	2	-0,016
2970,493	2	-0,02
2972,605	2,5	-0,025
2974,729	2,5	-0,02
2976,847	2,5	-0,02
2978,959	2	-0,025
2981,077	2	-0,033
2983,195	2	-0,034
2985,319	2,5	-0,03
2987,436	2,5	-0,032
2989,554	2	-0,036
2991,672	2	-0,047
2993,796	2	-0,044
2995,914	1,5	-0,05
2998,032	2	-0,038
3000,15	2	-0,042
3002,28	2	-0,03
3004,398	2	-0,031
3006,515	2,5	-0,019
3008,633	2,5	-0,018
3010,751	2,5	-0,014
3012,875	2,5	-0,013
3014,999	2,5	-0,011
3017,117	2,5	-0,012
3019,241	2,5	-0,009
3021,365	2,5	-0,008
3023,488	2,5	-0,007
3025,606	2,5	-0,006
3027,724	2	-0,005
3029,848	2,5	-0,004
3031,96	2,5	-0,004
3034,09	2,5	-0,003
3036,202	2,5	-0,003
3038,32	2,5	-0,002
3040,438	2,5	-0,002
3042,561	2,5	-0,001
3044,679	2,5	-0,002
3046,797	2,5	-0,002
3048,915	2,5	-0,002
3051,033	2,5	-0,001
3053,157	2,5	-0,002
3055,281	2,5	-0,002
3057,398	2,5	-0,001
3059,516	2,5	-0,002
3061,634	2,5	-0,001
3063,758	2,5	-0,001
3065,876	2,5	-0,001
3067,994	2,5	-0,001
3070,112	2	-0,001
3072,23	2,5	-0,001
3074,354	2,5	-0,001
3076,465	2,5	-0,002
3078,583	2,5	-0,002
3080,701	2,5	-0,001
3082,825	2,5	-0,001
3084,937	2,5	-0,001
3087,049	2,5	-0,002
3089,167	2,5	-0,001
3091,297	2,5	-0,001
3093,414	2,5	-0,001
3095,526	2,5	-0,001
3097,638	2,5	-0,001
3099,756	2,5	-0,001
3101,886	2,5	-0,001
3104,004	2,5	-0,001
3106,122	2,5	-0,002
3108,24	2,5	-0,002
3110,363	2,5	-0,002
3112,487	2,5	-0,002
3114,611	2,5	-0,002
3116,729	2,5	-0,002
3118,841	3	-0,002
3120,965	2,5	-0,002
3123,083	2,5	-0,002
3125,201	2,5	-0,002
3127,318	2,5	-0,001
3129,442	2,5	-0,001
3131,56	2,5	-0,001
3133,678	2,5	0
3135,796	2,5	0
3137,92	2,5	-0,001
3140,038	2,5	0
3142,168	2,5	-0,056
3144,286	2,5	-0,119
3146,403	2,5	-0,207
3148,521	2,5	-0,268
3150,645	2	-0,309
3152,763	2	-0,346
3154,881	2	-0,34
3156,999	2	-0,323
3159,117	2	-0,346
3161,229	1,5	-0,308
3163,346	2	-0,372
3165,464	2	-0,404
3167,582	1,5	-0,425
3169,706	1	-0,524
3171,824	1,5	-0,492
3173,816	2,5	-0,001