File: Cycling_tests/_20perc/_1gap/entrada/_1.txt
Time (s)	Load (N)	Displacement (mm)
40,932	-1	-0,705
43,248	-8,5	-1,626
45,123	3	-0,232
46,968	2,5	-0,02
48,803	-5,5	-0,947
50,61	-22,5	-2,593
52,403	-30,5	-3,496
54,233	-20,5	-2,971
56,087	-6	-1,46
57,977	3	-0,141
59,735	1,5	-0,086
61,547	-11	-1,557
63,335	-29,5	-3,245
65,197	-29,5	-3,485
67,012	-15	-2,478
69,214	-17,5	-2,794
71,08	-6	-1,404
72,88	3	-0,001
74,74	1,5	-0,09
76,546	-11,5	-1,662
78,364	-29	-3,252
80,136	-27,5	-3,444
82,036	-14	-2,503
83,799	0,5	-0,621
85,587	3	-0,007
87,442	-2,5	-0,655
89,319	-14,5	-1,956
91,185	-29	-3,365
93,033	-28,5	-3,48
95,181	-28,5	-3,481
96,969	-12	-2,253
98,75	2	-0,503
100,562	3	-0,018
102,41	-4,5	-0,916
104,162	-25	-2,863
105,968	-28,5	-3,492
107,774	-15	-2,608
109,556	-0,5	-0,852
111,35	3	-0,008
113,114	-4,5	-0,947
114,884	-25,5	-2,848
116,665	-28,5	-3,484
118,501	-14	-2,567
120,691	-16	-2,758
122,491	-4	-1,093
124,333	3,5	-0,001
126,181	1	-0,122
128,071	-6	-1,203
129,919	-22,5	-2,716
131,707	-28	-3,492
133,464	-13	-2,43
135,295	-1	-0,804
137,154	3,5	-0,003
139,003	0	-0,305
140,778	-15	-2,092
142,614	-27,5	-3,499
144,438	-24,5	-3,437
146,256	-8,5	-1,941
148,446	-10,5	-2,266
150,288	0	-0,659
152,045	3,5	-0,021
153,858	-4,5	-1,068
155,687	-20,5	-2,652
157,481	-27,5	-3,493
159,258	-13,5	-2,573
161,051	-1	-0,821
162,809	3,5	-0,013
204,267	-9	-2,092
206,006	3,5	-0,031
207,777	2	-0,1
209,559	-9,5	-1,757
211,34	-27	-3,5
213,116	-22	-3,354
214,832	-4	-1,322
216,632	3,5	-0,002
218,474	0,5	-0,228
220,249	-13,5	-2,121
222,043	-27	-3,499
223,802	-18	-3,014
225,547	-3	-1
227,275	3,5	-0,011
229,003	-5,5	-1,378
230,779	-26,5	-3,268
232,579	-26	-3,457
234,355	-8,5	-1,912
236,125	3,5	-0,058
237,895	2	-0,091
239,652	-11	-1,883
241,416	-26,5	-3,499
243,229	-21,5	-3,335
244,926	-3	-1,118
246,648	3,5	-0,009
248,37	-6	-1,372
250,122	-26,5	-3,31
251,856	-23,5	-3,38
253,602	-5	-1,477
255,371	3,5	-0,002
257,111	-0,5	-0,512
258,827	-19,5	-2,676
260,621	-26	-3,494
262,745	-26	-3,493
264,545	-13	-2,598
266,315	-0,5	-0,718
268,079	3,5	-0,017
269,843	-5,5	-1,249
271,606	-26	-3,226
273,383	-25	-3,454
275,122	-6,5	-1,794
276,874	3,5	-0,001
278,65	0	-0,327
280,396	-14,5	-2,293
320,924	-25	-3,5
322,994	-25,5	-3,498
324,685	-11,5	-2,571
326,389	3,5	-0,364
328,165	3	-0,048
329,887	-9,5	-1,836
331,669	-25,5	-3,499
333,427	-19	-3,252
335,173	-4	-1,224
336,925	4	-0,004
338,689	-1,5	-0,837
340,447	-21,5	-2,737
342,21	-25	-3,486
343,944	-8	-2,095
345,661	4	0
347,388	1	-0,24
349,152	-11,5	-2,101
351,24	-14,5	-2,362
352,944	-25	-3,49
354,708	-10	-2,384
356,442	4	-0,231
358,176	3	-0,091
359,874	-12,5	-2,213
361,602	-25	-3,495
363,359	-12	-2,548
365,119	2,5	-0,541
366,845	3,5	-0,041
368,549	-8,5	-1,883
370,295	-25	-3,499
372,041	-16,5	-3,038
373,787	-3	-1,067
375,509	4	-0,009
377,212	-4	-1,294
378,94	-25	-3,462
381,04	-25	-3,499
382,762	-16,5	-3,059
384,46	-0,5	-0,798
386,224	4	-0,012
387,928	-4,5	-1,384
389,644	-24,5	-3,5
391,354	-17	-3,088
393,04	0	-0,762
394,755	4	-0,025
396,447	-8	-1,821
436,243	-8	-2,173
437,959	4	-0,071
439,651	0,5	-0,337
441,373	-15	-2,508
443,101	-24,5	-3,488
444,805	-8	-2,062
446,532	4	0
448,278	1,5	-0,239
449,982	-15	-2,437
451,692	-24,5	-3,489
453,372	-6,5	-1,919
455,089	4	-0,001
456,774	-1	-0,738
458,478	-21	-2,93
460,188	-23,5	-3,448
461,892	-5,5	-1,663
463,578	4	-0,003
465,251	-3	-1,145
466,931	-24,5	-3,461
468,629	-17,5	-3,234
470,333	-3	-1,102
472,025	4	-0,013
473,753	-4	-1,332
475,457	-24,5	-3,5
477,17	-17,5	-3,129
479,237	-12,5	-2,703
480,911	3,5	-0,326
482,602	2,5	-0,164
484,288	-14	-2,411
485,987	-24	-3,485
487,666	-6	-1,773
489,376	4	-0,001
491,068	-0,5	-0,792
492,778	-20	-2,892
494,452	-22	-3,419
496,156	-4	-1,426
497,854	4	-0,005
499,558	-3,5	-1,252
501,261	-24	-3,406
502,941	-15	-3,149
504,652	-1,5	-1,002
506,343	4	-0,014
508,047	-5	-1,594
509,733	-24	-3,499
548,911	-3	-1,124
550,615	-24	-3,401
552,361	-19,5	-3,36
554,04	-2,5	-1,125
555,744	4	-0,011
557,412	-7	-1,693
559,098	-23,5	-3,498
560,802	-11	-2,617
562,494	4	-0,288
564,186	2	-0,157
565,878	-13,5	-2,388
567,582	-23,5	-3,488
569,255	-6	-1,844
570,965	4	-0,001
572,681	0	-0,576
574,361	-21	-2,968
576,059	-22	-3,434
577,757	-3,5	-1,365
579,455	4	-0,006
581,147	-4	-1,352
582,875	-23,5	-3,479
584,561	-15,5	-3,093
586,247	0	-0,784
587,945	3,5	-0,038
589,624	-10	-2,041
591,334	-23,5	-3,497
593,014	-8,5	-2,246
594,706	4	-0,004
596,368	0	-0,549
598,072	-19,5	-2,807
599,758	-21,5	-3,448
601,438	-3,5	-1,382
603,118	4	-0,006
604,803	-4	-1,333
606,477	-23,5	-3,5
608,139	-13	-2,834
609,843	2	-0,572
611,517	3	-0,105
613,209	-12,5	-2,249
614,919	-23,5	-3,494
616,617	-7	-2,14
618,327	4	0
620,019	0	-0,593
621,68	-22	-3,064
697,954	2	-0,52
699,634	2,5	-0,114
701,296	-14	-2,458
702,982	-23	-3,482
704,65	-4,5	-1,691
706,348	4	-0,002
708,034	-1,5	-1,012
709,725	-23	-3,326
711,381	-15	-3,128
713,079	-0,5	-0,89
715,143	3	-0,465
716,817	2	-0,144
718,497	-13,5	-2,437
720,177	-22,5	-3,488
721,851	-5	-1,808
723,549	4	-0,002
725,241	-1	-0,887
726,896	-23	-3,408
728,57	-15	-3,101
730,274	-1,5	-0,907
731,954	3,5	-0,035
733,616	-9	-2,023
809,692	4	-0,03
811,378	0,5	-0,401
813,028	-20,5	-2,939
814,713	-20,5	-3,422
816,387	-3	-1,354
818,073	4	-0,007
819,735	-4,5	-1,547
821,403	-22,5	-3,499
823,077	-10,5	-2,671
824,751	4	-0,268
826,413	1,5	-0,294
828,075	-17	-2,773
829,755	-20,5	-3,442
831,459	-3,5	-1,539
833,108	4	-0,006
834,8	-2,5	-1,284
836,498	-22,5	-3,5
838,19	-14	-3,029
839,852	1,5	-0,578
841,532	3	-0,087
843,2	-11	-2,295
844,868	-22,5	-3,483
846,566	-5,5	-1,883
848,234	4	-0,002
849,919	-1	-0,972
851,587	-22,5	-3,426
853,255	-14	-3,046
854,905	1,5	-0,567
856,591	3,5	-0,064
858,271	-10	-2,152
859,927	-22,5	-3,487
861,619	-5,5	-1,866
863,287	4	-0,002
864,955	-2	-1,147
866,623	-22,5	-3,5
868,278	-13	-2,869
869,946	1,5	-0,533
871,632	3	-0,091
873,288	-12,5	-2,407
874,95	-21,5	-3,475
876,636	-4,5	-1,744
878,298	4	-0,004
879,966	-3	-1,267
881,622	-22,5	-3,499
1030,305	-1	-0,928
1031,955	-22	-3,407
1033,599	-12,5	-2,942
1035,267	1,5	-0,549
1036,923	2	-0,144
1038,567	-13,5	-2,543
1040,253	-21	-3,476
1041,914	-3,5	-1,592
1043,576	4,5	-0,004
1045,214	-4	-1,527
1046,864	-22	-3,498
1048,532	-9	-2,528
1050,176	4	0
1051,826	0	-0,571
1053,494	-20,5	-3,047
1055,144	-16	-3,31
1056,818	-1	-0,948
1058,468	3,5	-0,041
1060,118	-9,5	-2,132
1061,767	-22	-3,489
1063,423	-4,5	-1,803
1065,097	4	-0,002
1066,747	-2,5	-1,19
1068,397	-21,5	-3,499
1070,065	-11	-2,774
1071,727	3	-0,482
1073,395	2	-0,136
1075,075	-12	-2,396
1076,724	-21	-3,475
1078,405	-4	-1,73
1080,048	4,5	-0,004
1081,716	-3	-1,292
1083,372	-21,5	-3,499
1085,034	-10	-2,689
1086,678	4	-0,174
1088,322	0	-0,443
1089,966	-18,5	-2,978
1091,628	-18,5	-3,386
1093,272	-1,5	-0,959
1094,927	4	-0,029
1096,589	-8	-2,049
1098,233	-21,5	-3,491
1099,889	-4,5	-1,912
1101,539	4	-0,003
1103,183	-2,5	-1,318
1104,821	-21,5	-3,499
1106,477	-8	-2,564
1108,133	4	-0,108
1109,795	0	-0,433
1111,451	-16,5	-2,807
1113,106	-19,5	-3,42
1114,756	-1,5	-1,081
1116,436	4	-0,02
1118,104	-6	-1,862
1119,766	-21,5	-3,496
1121,41	-5	-2,066
1123,084	4	-0,001
1124,752	-0,5	-0,797
1126,396	-21,5	-3,348
1128,052	-13	-3,035
1129,713	3	-0,521
1131,369	2	-0,144
1133,025	-13	-2,522
1134,687	-20,5	-3,47
1136,355	-3	-1,519
1138,029	4,5	-0,006
1395,624	2	-0,207
1397,262	-15	-2,742
1398,918	-18	-3,433
1400,574	-2,5	-1,3
1402,224	4	-0,016
1403,886	-4,5	-1,733
1405,542	-21	-3,498
1407,186	-6	-2,19
1408,83	4	-0,001
1410,485	-0,5	-0,967
1412,147	-21	-3,312
1413,791	-13	-3,023
1415,435	2,5	-0,498
1417,097	2	-0,152
1418,753	-12,5	-2,573
1420,403	-19,5	-3,459
1422,449	-16,5	-3,342
1424,147	-1,5	-1,086
1425,797	3,5	-0,032
1427,441	-8	-2,112
1429,102	-21	-3,491
1430,758	-4,5	-1,943
1432,482	4,5	-0,001
1434,136	-0,5	-0,854
1435,798	-20,5	-3,353
1437,448	-13,5	-3,054
1439,092	2,5	-0,47
1440,73	1,5	-0,236
1442,374	-15	-2,733
1444,03	-19,5	-3,438
1445,674	-1,5	-1,116
1447,329	4	-0,027
1448,979	-7,5	-2,064
1450,647	-21	-3,494
1452,303	-5,5	-2,064
1453,947	4	-0,001
1455,603	-0,5	-0,965
1457,277	-20,5	-3,414
1458,921	-13	-2,988
1460,565	2,5	-0,447
1462,208	1,5	-0,239
1463,888	-12	-2,53
1465,55	-20	-3,467
1467,206	-2,5	-1,42
1468,862	4	-0,009
1470,524	-3,5	-1,588
1472,174	-21	-3,498
1473,812	-6	-2,297
1475,474	4	-0,001
1477,118	-0,5	-0,82
1478,767	-20,5	-3,288
1480,423	-14	-3,142
1482,073	0,5	-0,67
1483,729	3,5	-0,076
1485,397	-9	-2,233
1487,041	-20,5	-3,485
1488,697	-3,5	-1,731
1490,347	4	-0,004
1491,991	-2,5	-1,358
1493,641	-21	-3,499
1495,285	-8	-2,473
1496,928	4	0
1498,584	0	-0,649
1500,228	-20,5	-3,176
1501,908	-15,5	-3,35
1503,558	-1	-0,952
1505,214	4	-0,037
1506,864	-8	-2,127
1508,532	-20,5	-3,492
1510,188	-4	-1,916
1511,826	4	-0,003
1513,476	-2,5	-1,214
1515,137	-20,5	-3,5
1516,787	-9,5	-2,767
1518,443	4	-0,301
1520,1	1	-0,288
1521,767	-15	-2,713
1523,423	-19	-3,439
1525,073	-1,5	-1,23
1526,729	4	-0,018
1528,397	-5	-1,801
1530,041	-21	-3,496
1531,697	-6	-2,142
1533,34	4	-0,001
1534,99	-1	-0,979
1536,652	-20,5	-3,462
1538,302	-11,5	-2,928
1539,946	3,5	-0,403
1541,596	1,5	-0,225
1543,246	-14,5	-2,689
1544,914	-19,5	-3,449
1546,564	-2	-1,244
1548,208	4	-0,018
1549,851	-7	-1,956
1551,507	-20,5	-3,494
1553,157	-4,5	-1,911
1554,807	4	-0,002
1556,47	-1,5	-1,105
1558,131	-20,5	-3,5
1559,775	-9,5	-2,795
1561,413	4	-0,318
1563,063	1	-0,32
1564,713	-15	-2,773
1566,369	-18	-3,421
1568,013	-1,5	-1,102
1569,662	4	-0,025
1571,312	-6,5	-2,001
1572,986	-20,5	-3,495
1574,654	-6	-2,232
1576,304	4	-0,001
1577,948	-1	-0,938
1579,64	-20,5	-3,21
1581,284	-13,5	-3,176
1583,324	-8,5	-2,598
1584,979	4	-0,136
1586,635	1	-0,408
1588,291	-16	-2,888
1589,941	-16,5	-3,378
1591,609	-1,5	-1,109
1593,265	4	-0,024
1594,915	-6,5	-2,002
1596,583	-20,5	-3,495
1598,233	-4,5	-1,99
1599,877	4	-0,002
1601,533	-1	-1,103
1603,189	-20,5	-3,5
1604,85	-11	-2,894
1606,5	3,5	-0,394
1608,156	1,5	-0,23
1609,836	-12,5	-2,572
1611,48	-19	-3,452
1613,13	-2,5	-1,364
1614,78	4	-0,012
1616,46	-4	-1,621
1618,104	-20,5	-3,497
1619,747	-5,5	-2,192
1621,391	4	-0,001
1623,041	-1	-0,993
1624,703	-20,5	-3,462
1626,353	-12	-3,011
1628,003	2,5	-0,564
1629,647	2,5	-0,125
1631,297	-11	-2,453
1632,935	-19,5	-3,46
1634,591	-2,5	-1,404
1636,247	4	-0,01
1637,902	-4,5	-1,698
1639,546	-20,5	-3,497
1641,214	-6	-2,231
1642,864	4	-0,001
1644,508	-0,5	-0,903
1646,176	-20,5	-3,314
1647,82	-12	-3,017
1649,482	2,5	-0,556
1651,132	2	-0,16
1652,788	-12,5	-2,592
1654,432	-19,5	-3,449
1656,087	-2,5	-1,3
1657,761	4	-0,011
1659,405	-5,5	-1,832
1661,056	-20,5	-3,495
1662,711	-5	-2,063
1664,379	4	-0,001
1666,035	-1	-1,044
1667,679	-20,5	-3,499
1669,353	-12	-2,992
1670,997	3	-0,504
1672,646	2	-0,162
1674,308	-11	-2,486
1675,964	-19,5	-3,467
1677,62	-3	-1,597
1679,27	4	-0,006
1680,914	-4	-1,636
1682,576	-20,5	-3,498
1684,22	-6	-2,29
1685,864	4	-0,001
1687,508	-0,5	-0,874
1689,152	-20	-3,413
1690,813	-12,5	-3,074
1692,457	2,5	-0,544
1694,119	2,5	-0,106
1695,769	-11	-2,457
1697,425	-20	-3,47
1699,087	-3	-1,524
1700,743	4	-0,006
1702,387	-3,5	-1,542
1704,037	-20,5	-3,498
1705,699	-7	-2,436
1707,343	4	0
1708,992	0	-0,608
1710,648	-19	-3,068
1712,298	-15	-3,301
1713,96	0	-0,889
1715,604	3,5	-0,06
1717,254	-9	-2,253
1718,892	-19,5	-3,478
1720,542	-3	-1,535
1722,186	4	-0,008
1723,847	-4	-1,662
1725,492	-20	-3,498
1727,141	-5	-2,183
1728,797	4	-0,001
1730,447	-0,5	-0,938
1732,115	-20	-3,353
1733,759	-12	-3,03
1735,409	3	-0,523
1737,065	3	-0,124
1738,709	-12	-2,548
1740,371	-19,5	-3,468
1742,026	-2,5	-1,402
1743,67	4	-0,011
1745,32	-4,5	-1,705
1746,982	-20	-3,498
1748,626	-5,5	-2,189
1750,288	4	-0,001
1751,95	0	-0,72
1753,6	-20	-3,283
1755,244	-13	-3,082
1756,9	2,5	-0,56
1758,538	2	-0,154
1760,194	-12	-2,543
1762,114	-20	-3,499
1763,769	-9,5	-2,729
1765,431	4	-0,287
1767,075	1	-0,317
1768,731	-14,5	-2,734
1770,375	-18	-3,418
1772,031	-1,5	-1,12
1773,699	4	-0,02
1775,349	-5	-1,863
1776,999	-20	-3,495
1778,636	-4,5	-1,98
1780,292	4,5	-0,002
1781,936	-1	-1,034
1783,616	-20	-3,376
1785,272	-12	-3,069
1786,928	1,5	-0,589
1788,572	2,5	-0,113
1790,216	-11	-2,415
1791,872	-19,5	-3,474
1793,528	-3	-1,578
1795,177	4,5	-0,006
1796,821	-3	-1,538
1798,459	-20	-3,498
1800,116	-6	-2,353
1801,771	4	0
1803,427	0	-0,615
1805,077	-19,5	-3,148
1806,727	-14,5	-3,24
1808,389	-0,5	-0,798
1810,045	3,5	-0,05
1811,689	-8,5	-2,224
1813,332	-19,5	-3,481
1814,976	-3	-1,563
1816,626	4	-0,006
1818,27	-3	-1,468
1819,928	-20	-3,498
1821,57	-7	-2,428
1823,208	4	0
1824,864	0	-0,674
1826,502	-19,5	-3,176
1828,164	-14,5	-3,234
1829,807	0,5	-0,702
1831,463	3,5	-0,057
1833,125	-8	-2,199
1834,769	-19,5	-3,485
1836,413	-3	-1,67
1838,069	4,5	-0,004
1839,725	-2,5	-1,321
1841,381	-20	-3,499
1843,037	-8,5	-2,609
1844,693	4	-0,147
1846,349	0,5	-0,413
1848,004	-15	-2,851
1849,648	-16,5	-3,382
1851,292	-1	-0,996
1852,942	4	-0,03
1854,592	-7	-2,06
1856,638	-12	-2,606
1858,282	-18,5	-3,442
1859,926	-1,5	-1,224
1861,588	4	-0,016
1863,232	-5	-1,864
1864,888	-20	-3,496
1866,525	-4,5	-2,033
1868,181	4	-0,001
1869,819	-0,5	-0,987
1871,457	-20	-3,5
1873,113	-10,5	-2,904
1874,781	1,5	-0,542
1876,425	2,5	-0,134
1878,081	-9,5	-2,38
1879,731	-19,5	-3,476
1881,375	-3	-1,529
1883,012	4	-0,009
1884,662	-3,5	-1,598
1886,3	-20	-3,498
1887,938	-5,5	-2,184
1889,582	4	-0,001
1891,238	-0,5	-0,957
1892,888	-20	-3,42
1894,538	-12	-2,993
1896,188	1,5	-0,578
1897,832	3	-0,141
1899,488	-11,5	-2,509
1901,131	-19,5	-3,458
1902,793	-2,5	-1,396
1904,437	4	-0,009
1906,087	-4	-1,694
1907,731	-20	-3,497
1909,375	-5,5	-2,19
1911,031	4,5	0
1912,681	0	-0,709
1914,319	-19,5	-3,196
1915,963	-13	-3,151
1917,606	1	-0,631
1919,25	3	-0,112
1920,894	-10	-2,425
1922,532	-19,5	-3,464
1924,176	-2,5	-1,434
1925,814	4	-0,009
1927,476	-3	-1,537
1929,132	-19,5	-3,498
1930,782	-7	-2,39
1932,432	4	0
1934,075	0	-0,68
1935,731	-18	-3,119
1937,387	-14,5	-3,294
1939,049	-1	-0,89
1940,687	3,5	-0,05
1942,343	-7,5	-2,153
1943,981	-19,5	-3,485
1945,637	-3,5	-1,718
1947,281	4	-0,005
1948,925	-3	-1,473
1950,581	-19,5	-3,499
1952,224	-7,5	-2,504
1953,874	4	-0,003
1955,518	0	-0,667
1957,162	-19,5	-3,154
1958,806	-14	-3,24
1960,474	-0,5	-0,844
1962,118	3,5	-0,053
1963,762	-8,5	-2,287
1965,4	-19,5	-3,478
1967,038	-3	-1,543
1968,682	4	-0,006
1970,325	-3	-1,472
1971,969	-20	-3,498
1973,607	-7,5	-2,42
1975,245	4	0
1976,913	0	-0,568
1978,551	-16,5	-3,007
1980,189	-14	-3,326
1981,833	-1	-0,922
1983,477	3,5	-0,046
1985,127	-6,5	-2,125
1986,77	-19,5	-3,487
1988,408	-3,5	-1,648
1990,046	4	-0,006
1991,72	-2,5	-1,373
1993,364	-19,5	-3,499
1995,008	-7,5	-2,51
1996,646	4	0
1998,29	0	-0,582
1999,94	-19	-3,078
2001,584	-13,5	-3,266
2003,228	0	-0,733
2004,883	3	-0,07
2006,527	-10	-2,392
2008,171	-19	-3,469
2009,815	-2	-1,434
2011,453	4	-0,009
2013,097	-4	-1,658
2014,753	-19,5	-3,498
2016,397	-5	-2,152
2018,029	4	-0,002
2019,685	-1	-1,057
2021,328	-19,5	-3,5
2022,984	-10	-2,844
2024,628	3,5	-0,403
2026,272	1,5	-0,228
2027,922	-14,5	-2,698
2029,572	-17,5	-3,424
2031,21	-1,5	-1,08
2032,854	3,5	-0,028
2034,498	-7,5	-2,072
2036,142	-19,5	-3,488
2037,81	-4	-1,804
2039,453	4	-0,003
2041,097	-2	-1,226
2042,753	-19,5	-3,5
2044,403	-9,5	-2,752
2046,047	4	-0,218
2047,697	0,5	-0,407
2049,335	-16,5	-2,919
2050,973	-15	-3,324
2052,611	-0,5	-0,922
2054,261	3,5	-0,052
2055,923	-8,5	-2,169
2057,566	-19,5	-3,484
2059,204	-3	-1,568
2060,842	4	-0,008
2062,48	-4,5	-1,662
2064,124	-19,5	-3,497
2065,768	-5	-2,142
2067,406	4	-0,001
2069,044	-1	-1,102
2070,688	-19,5	-3,5
2072,35	-10	-2,878
2073,988	3,5	-0,348
2075,643	1,5	-0,232
2077,287	-14	-2,753
2078,931	-16,5	-3,407
2080,569	-1	-0,989
2082,207	3,5	-0,044
2083,851	-7,5	-2,166
2085,489	-19,5	-3,485
2087,127	-3	-1,688
2088,771	4	-0,004
2090,415	-2,5	-1,342
2092,059	-19,5	-3,499
2093,708	-7,5	-2,61
2095,346	4	-0,004
2096,996	0	-0,596
2098,64	-18,5	-3,144
2100,278	-12,5	-3,198
2101,922	1	-0,663
2103,56	3	-0,121
2105,204	-10,5	-2,482
2106,848	-18,5	-3,464
2108,492	-2	-1,365
2110,136	4	-0,011
2111,821	-3	-1,572
2113,465	-19,5	-3,498
2115,109	-5,5	-2,258
2116,753	4	-0,001
2118,397	-0,5	-0,862
2120,035	-19,5	-3,401
2121,673	-9,5	-2,892
2123,317	3,5	-0,447
2124,967	1,5	-0,203
2126,61	-12	-2,558
2128,248	-18	-3,451
2129,892	-1,5	-1,212
2131,536	4	-0,02
2133,174	-6	-1,993
2134,818	-19,5	-3,492
2136,456	-3,5	-1,882
2138,1	4	-0,003
2139,738	-2	-1,332
2141,388	-19,5	-3,499
2143,032	-7,5	-2,614
2144,669	4	-0,096
2146,337	1	-0,412
2147,987	-16	-2,922
2149,625	-14,5	-3,304
2151,263	-1	-0,923
2152,901	3,5	-0,052
2154,539	-8,5	-2,295
2156,183	-19,5	-3,479
2157,827	-3	-1,635
2159,477	4	-0,006
2161,114	-3	-1,488
2162,752	-19,5	-3,498
2164,391	-5	-2,208
2166,028	4	-0,001
2167,672	-0,5	-0,927
2169,31	-19,5	-3,5
2170,948	-9	-2,748
2172,586	4	-0,142
2174,224	0,5	-0,502
2175,88	-16	-2,95
2177,518	-15	-3,319
2179,167	0	-0,922
2180,805	3,5	-0,056
2182,443	-8,5	-2,305
2184,081	-19	-3,478
2185,749	-3	-1,662
2187,387	4	-0,006
2189,025	-3	-1,57
2190,675	-19,5	-3,498
2192,319	-5	-2,295
2193,975	4	-0,001
2195,637	0	-0,712
2197,293	-17,5	-3,077
2198,93	-13	-3,221
2200,574	0	-0,709
2202,218	3	-0,115
2203,862	-10,5	-2,497
2205,5	-18,5	-3,455
2207,138	-2	-1,216
2208,8	4	-0,014
2210,444	-5	-1,853
2212,094	-19	-3,495
2213,732	-4,5	-1,978
2215,375	4	-0,002
2217,013	-1,5	-1,23
2218,663	-19,5	-3,499
2220,319	-9	-2,738
2221,963	4	-0,318
2223,601	1	-0,317
2225,239	-15	-2,873
2226,883	-15	-3,377
2228,533	-1	-1
2230,177	3,5	-0,034
2231,832	-6	-2,087
2233,477	-19	-3,489
2235,12	-3	-1,722
2236,764	4	-0,004
2238,408	-2,5	-1,372
2240,058	-19,5	-3,499
2241,702	-7	-2,5
2243,352	4	0
2245,008	0	-0,638
2246,652	-18,5	-3,175
2248,29	-13	-3,11
2249,933	1,5	-0,558
2251,571	2,5	-0,157
2253,215	-11	-2,543
2254,859	-18	-3,454
2256,515	-2	-1,323
2258,159	4	-0,013
2259,803	-5	-1,827
2261,459	-19,5	-3,496
2263,097	-4,5	-2,035
2264,741	4	-0,002
2266,39	-0,5	-1,068
2268,028	-19	-3,5
2269,684	-9	-2,81
2271,322	4	-0,252
2272,966	0,5	-0,421
2274,61	-15,5	-2,974
2276,248	-15	-3,327
2277,892	-0,5	-0,85
2279,53	3	-0,074
2281,174	-8,5	-2,323
2282,812	-18,5	-3,475
2284,467	-3	-1,527
2286,117	4	-0,007
2287,767	-3	-1,531
2289,411	-19	-3,498
2291,055	-5,5	-2,245
2292,711	4,5	-0,001
2294,349	0	-0,873
2295,987	-19	-3,457
2297,631	-10,5	-2,96
2299,275	2,5	-0,51
2300,919	2	-0,18
2302,562	-13	-2,702
2304,2	-17	-3,432
2305,874	-1,5	-1,32
2307,512	4	-0,018
2309,15	-4,5	-1,868
2310,788	-19	-3,494
2312,438	-4	-1,958
2314,082	4	-0,002
2315,726	-1,5	-1,205
2317,37	-19	-3,499
2319,031	-8	-2,679
2320,687	4	-0,275
2322,326	1	-0,423
2323,969	-15	-2,953
2325,613	-15	-3,349
2327,257	-0,5	-0,856
2328,901	3,5	-0,06
2330,551	-7,5	-2,218
2332,201	-18,5	-3,486
2333,839	-3	-1,64
2335,489	4	-0,005
2337,138	-2,5	-1,512
2338,776	-19	-3,498
2340,42	-5,5	-2,273
2342,058	4	-0,001
2343,696	-0,5	-0,955
2345,352	-19	-3,371
2347,002	-10,5	-3,046
2348,64	2,5	-0,533
2350,296	2,5	-0,144
2351,934	-11,5	-2,604
2353,572	-17	-3,431
2355,209	-1,5	-1,123
2356,853	4	-0,029
2358,497	-6,5	-2,135
2360,135	-19	-3,488
2361,773	-3,5	-1,757
2363,417	4	-0,004
2365,055	-2,5	-1,463
2366,699	-19	-3,499
2368,337	-6	-2,434
2369,987	4	0
2371,642	0	-0,628
2373,286	-17,5	-3,16
2374,93	-13	-3,232
2376,586	0	-0,732
2378,23	3	-0,091
2379,874	-10	-2,467
2381,512	-17,5	-3,46
2383,156	-2	-1,354
2384,8	4	-0,014
2386,444	-3,5	-1,766
2388,088	-18,5	-3,496
2389,749	-5	-2,139
2391,387	4	-0,001
2393,025	0	-0,988
2394,663	-18,5	-3,5
2396,301	-9	-2,75
2397,945	4	-0,232
2399,589	1	-0,383
2401,227	-15	-2,948
2402,865	-14,5	-3,323
2404,515	0	-0,857
2406,159	3,5	-0,064
2407,802	-7,5	-2,338
2409,452	-18	-3,478
2411,09	-2,5	-1,498
2412,734	4	-0,008
2414,39	-3	-1,558
2416,034	-18,5	-3,498
2417,678	-5	-2,253
2419,328	4	-0,001
2420,972	0	-0,768
2422,61	-19	-3,414
2424,248	-10,5	-2,959
2425,885	3	-0,341
2427,523	1,5	-0,307
2429,185	-13	-2,768
2430,823	-15,5	-3,386
2432,467	-1	-1,044
2434,111	4	-0,036
2435,749	-8	-2,203
2437,393	-18	-3,486
2439,037	-3	-1,622
2440,681	4	-0,006
2442,318	-2,5	-1,608
2443,956	-18,5	-3,498
2445,594	-5	-2,248
2447,238	4	-0,001
2448,876	-0,5	-0,993
2450,514	-18	-3,5
2452,158	-8,5	-2,738
2453,802	3,5	-0,275
2455,446	1	-0,372
2457,084	-14,5	-2,963
2458,728	-14	-3,314
2460,366	0	-0,78
2462,003	3,5	-0,095
2463,641	-8	-2,413
2465,279	-17	-3,462
2466,917	-1,5	-1,284
2468,555	4	-0,018
2470,193	-4,5	-1,902
2471,831	-17,5	-3,493
2473,469	-3	-1,806
2475,107	4,5	-0,003
2476,744	-1,5	-1,392
2478,383	-17,5	-3,498
2480,026	-5,5	-2,383
2481,664	4	-0,001
2483,308	0	-0,768
2484,952	-17,5	-3,294
2486,608	-11	-3,102
2488,246	1,5	-0,546
2489,89	2,5	-0,159
2491,54	-9,5	-2,58
2493,178	-15	-3,44
2494,821	-1,5	-1,205
2496,465	4	-0,019
2498,103	-4,5	-1,952
2499,742	-17,5	-3,492
2501,379	-3	-1,819
2503,023	4	-0,004
2504,661	-2	-1,433
2506,305	-17,5	-3,499
2507,943	-5	-2,368
2509,587	4	-0,001
2511,231	0	-0,811
2512,868	-17	-3,326
2514,512	-9	-2,985
2516,156	3,5	-0,374
2517,806	1,5	-0,278
2519,45	-13,5	-2,812
2521,088	-14	-3,384
2522,732	0	-0,904
2524,376	3,5	-0,058
2526,014	-8	-2,422
2527,652	-16,5	-3,46
2529,289	-1,5	-1,274
2530,927	4	-0,02
2532,571	-4,5	-1,865
2534,209	-17	-3,493
2535,853	-3	-1,824
2537,497	4,5	-0,004
2539,153	-1	-1,227
2540,791	-17	-3,499
2542,435	-6,5	-2,568
2544,073	4	0
2545,711	0	-0,765
2547,354	-17	-3,348
2548,993	-9	-2,922
2550,63	3,5	-0,373
2552,274	1,5	-0,291
2553,918	-12,5	-2,779
2555,562	-14,5	-3,398
2557,23	-1	-1,188
2558,868	4	-0,02
2560,506	-5,5	-2,057
2562,15	-17	-3,487
2563,794	-2,5	-1,61
2565,443	4	-0,006
2567,081	-3	-1,617
2568,725	-17	-3,498
2570,363	-4,5	-2,194
2572,019	4	-0,001
2573,663	-0,5	-0,968
2575,307	-17,5	-3,483
2576,951	-8,5	-2,852
2578,589	3,5	-0,274
2580,227	1	-0,381
2581,87	-14	-2,948
2583,532	-14,5	-3,378
2585,182	-0,5	-0,95
2586,832	3,5	-0,044
2588,476	-6	-2,227
2590,12	-17	-3,482
2591,758	-2	-1,564
2593,396	4	-0,007
2595,04	-2,5	-1,603
2596,678	-17	-3,497
2598,328	-4,5	-2,186
2599,971	4	-0,001
2601,615	0	-0,946
2603,265	-17	-3,494
2604,903	-8	-2,859
2606,541	4	-0,29
2608,179	1	-0,386
2609,817	-13,5	-2,898
2611,455	-12,5	-3,353
2613,099	0	-0,876
2614,743	3,5	-0,056
2616,38	-7	-2,29
2618,024	-16,5	-3,48
2619,662	-2	-1,484
2621,3	4	-0,01
2622,938	-3	-1,756
2624,576	-16,5	-3,496
2626,22	-3,5	-2,051
2627,858	4	-0,002
2629,496	-0,5	-1,108
2631,14	-16,5	-3,5
2632,778	-6,5	-2,656
2634,415	4	-0,108
2636,066	0,5	-0,546
2637,703	-16	-3,118
2639,347	-12	-3,24
2640,985	0	-0,711
2642,629	3	-0,094
2644,285	-7,5	-2,398
2645,929	-15,5	-3,467
2647,585	-2	-1,435
2649,223	4	-0,01
2650,861	-3,5	-1,794
2652,517	-16,5	-3,497
2654,16	-4	-2,129
2655,804	4	-0,002
2657,442	-0,5	-1,118
2659,092	-16,5	-3,498
2660,736	-7,5	-2,807
2662,38	3,5	-0,366
2664,024	1,5	-0,294
2665,668	-12	-2,812
2667,306	-14	-3,389
2668,944	-1	-0,954
2670,581	3,5	-0,057
2672,225	-5,5	-2,222
2673,869	-16	-3,485
2675,537	-2,5	-1,658
2677,181	4	-0,005
2678,825	-2	-1,568
2680,469	-16	-3,498
2682,107	-4,5	-2,253
2683,751	4	-0,001
2685,389	0	-0,908
2687,027	-16,5	-3,476
2688,664	-8,5	-2,874
2690,326	3	-0,433
2691,964	1,5	-0,261
2693,626	-10,5	-2,718
2695,264	-14,5	-3,412
2696,902	-1	-1,053
2698,546	4	-0,034
2700,19	-4,5	-2,035
2701,828	-16,5	-3,488
2703,478	-2,5	-1,758
2705,121	4	-0,004
2706,765	-1,5	-1,42
2708,409	-16	-3,498
2710,065	-5	-2,374
2711,703	4	-0,001
2713,341	0	-0,837
2714,985	-16	-3,389
2716,623	-8,5	-2,954
2718,267	3,5	-0,351
2719,923	1,5	-0,237
2721,567	-11	-2,793
2723,21	-14	-3,405
2724,848	-0,5	-0,981
2726,49	4	-0,045
2728,126	-6	-2,278
2729,756	-15,5	-3,475
2731,418	-2	-1,597
2733,062	4	-0,006
2734,718	-2	-1,527
2736,356	-15,5	-3,498
2738	-4,5	-2,252
2739,637	4	-0,001
2741,281	0	-0,962
2742,925	-16	-3,497
2744,581	-9	-2,992
2746,225	3	-0,414
2747,863	1,5	-0,272
2749,507	-10,5	-2,768
2751,145	-13,5	-3,4
2752,783	-0,5	-0,987
2754,427	4	-0,04
2756,065	-5,5	-2,285
2757,708	-15	-3,477
2759,352	-1,5	-1,518
2760,996	4,5	-0,008
2762,64	-1,5	-1,687
2764,278	-14,5	-3,497
2765,922	-4	-2,21
2767,56	4	-0,001
2769,198	0	-0,897
2770,842	-14,5	-3,476
2772,486	-6,5	-2,855
2774,13	4	-0,323
2775,767	1,5	-0,37
2777,405	-11	-2,969
2779,049	-10,5	-3,33
2780,687	0	-0,87
2782,325	3,5	-0,06
2783,963	-4,5	-2,31
2785,613	-13,5	-3,48
2787,251	-1,5	-1,472
2788,895	4	-0,008
2790,539	-1,5	-1,738
2792,182	-13,5	-3,496
2793,832	-3	-2,143
2795,476	4	-0,001
2797,114	0	-1,007
2798,758	-13,5	-3,5
2800,396	-5,5	-2,741
2802,034	4	-0,158
2803,678	1,5	-0,468
2805,322	-10,5	-3,042
2806,972	-8,5	-3,293
2808,616	0	-0,766
2810,259	3	-0,083
2811,903	-4	-2,317
2813,541	-12	-3,476
2815,179	-1,5	-1,447
2816,841	4	-0,007
2818,491	-1	-1,617
2820,135	-12,5	-3,498
2821,779	-3	-2,215
2823,423	4	-0,001
2825,061	0	-0,968
2826,698	-12,5	-3,5
2828,336	-5,5	-2,797
2829,974	4	-0,154
2831,667	2	-0,253
2833,31	-7,5	-2,776
2834,954	-10,5	-3,397
2836,598	-0,5	-0,975
2838,236	3,5	-0,05
2839,88	-3,5	-2,298
2841,53	-12	-3,482
2843,168	-1,5	-1,543
2844,805	4,5	-0,007
2846,443	-0,5	-1,605
2848,093	-12	-3,498
2849,737	-3	-2,223
2851,381	4	-0,001
2853,019	0	-0,991
2854,663	-12	-3,499
2856,301	-5	-2,777
2857,939	4	-0,232
2859,577	1,5	-0,483
2861,221	-10	-3,039
2862,864	-8	-3,282
2864,502	1	-0,703
2866,146	3	-0,092
2867,796	-3,5	-2,372
2869,44	-12	-3,473
2871,084	-1	-1,412
2872,722	4	-0,011
2874,366	-1	-1,808
2876,016	-12	-3,496
2877,654	-2,5	-2,06
2879,297	4	-0,002
2880,942	0	-1,039
2882,585	-12	-3,5
2884,229	-5	-2,823
2885,891	3	-0,377
2887,535	2	-0,278
2889,173	-6,5	-2,772
2890,823	-10,5	-3,426
2892,479	-0,5	-1,127
2894,123	4	-0,028
2895,761	-2,5	-2,152
2897,399	-12	-3,486
2899,036	-1,5	-1,571
2900,674	4	-0,007
2902,318	-0,5	-1,617
2903,956	-12	-3,497
2905,594	-3	-2,128
2907,238	4	-0,001
2908,876	0,5	-0,927
2910,514	-12	-3,5
2912,17	-6	-2,95
2913,814	3	-0,403
2915,463	1,5	-0,234
2917,107	-6	-2,745
2918,751	-10,5	-3,416
2920,395	-0,5	-1,122
2922,033	4	-0,03
2923,677	-2	-1,996
2925,321	-12	-3,492
2926,959	-2	-1,88
2928,597	4	-0,003
2930,241	0	-1,293
2931,885	-12	-3,499
2933,528	-4	-2,622
2935,172	4	-0,072
2936,81	1,5	-0,603
2938,454	-9,5	-3,053
2940,092	-7,5	-3,25
2941,73	0	-0,74
2943,386	3,5	-0,074
2945,03	-3	-2,337
2946,68	-11,5	-3,478
2948,324	-1,5	-1,561
2949,961	4	-0,007
2951,605	-0,5	-1,627
2953,243	-12	-3,497
2954,887	-2,5	-2,158
2956,525	4	-0,002
2958,163	0	-1,098
2959,807	-11,5	-3,499
2961,445	-4,5	-2,677
2963,089	4	-0,149
2964,727	1,5	-0,527
2966,365	-9,5	-3,088
2968,002	-7	-3,231
2969,64	1,5	-0,652
2971,284	3	-0,116
2972,928	-4	-2,542
2974,566	-11	-3,455
2976,204	-1	-1,244
2977,848	4	-0,02
2979,492	-1,5	-1,946
2981,136	-12	-3,492
2982,804	-2	-1,984
2984,459	4	-0,002
2986,103	0	-1,13
2987,741	-11,5	-3,5
2989,385	-4	-2,746
2991,023	4	-0,228
2992,667	1,5	-0,411
2994,305	-8,5	-2,934
2995,955	-8	-3,366
2997,599	0	-0,921
2999,237	3	-0,066
3000,881	-4	-2,368
3002,518	-10,5	-3,466
3004,162	-0,5	-1,306
3005,8	4	-0,016
3007,438	-1	-1,928
3009,082	-11	-3,494
3010,726	-1,5	-1,941
3012,364	4,5	-0,002
3014,008	0	-1,233
3015,652	-11	-3,499
3017,296	-3,5	-2,674
3018,939	4	-0,141
3020,583	1,5	-0,516
3022,233	-9	-2,953
3023,877	-7	-3,331
3025,515	0,5	-0,853
3027,159	3,5	-0,054
3028,809	-2,5	-2,221
3030,447	-10,5	-3,48
3032,091	-1	-1,633
3033,729	4	-0,007
3035,367	-0,5	-1,633
3037,004	-10,5	-3,498
3038,648	-2,5	-2,253
3040,292	4	-0,001
3041,93	0,5	-0,983
3043,574	-11	-3,5
3045,212	-4	-2,818
3046,85	4	-0,256
3048,488	1,5	-0,421
3050,132	-9	-2,999
3051,77	-6,5	-3,309
3053,414	0,5	-0,807
3055,076	3	-0,055
3056,713	-3,5	-2,375
3058,357	-10,5	-3,474
3060,001	-1	-1,456
3061,645	4	-0,009
3063,283	-0,5	-1,722
3064,927	-11	-3,497
3066,571	-2	-2,14
3068,215	4	-0,001
3069,853	0	-1,03
3071,49	-10,5	-3,5
3073,134	-3,5	-2,696
3074,772	4	-0,165
3076,416	1	-0,402
3078,06	-7	-2,917
3079,71	-7,5	-3,373
3081,354	0	-0,902
3082,998	3,5	-0,054
3084,642	-2,5	-2,273
3086,28	-10,5	-3,479
3087,924	-1	-1,62
3089,561	4	-0,006
3091,205	0	-1,536
3092,843	-10,5	-3,498
3094,487	-2,5	-2,339
3096,131	4	-0,001
3097,769	0,5	-0,892
3099,413	-10,5	-3,395
3101,051	-4,5	-2,957
3102,689	3,5	-0,445
3104,339	2	-0,165
3105,983	-4	-2,544
3107,62	-9,5	-3,456
3109,258	-0,5	-1,257
3110,896	4	-0,018
3112,534	-1	-1,875
3114,178	-10,5	-3,495
3115,822	-1,5	-1,998
3117,466	4	-0,002
3119,11	0	-1,123
3120,754	-10,5	-3,5
3122,398	-3,5	-2,793
3124,036	4	-0,218
3125,685	1,5	-0,413
3127,329	-6,5	-2,852
3128,973	-7,5	-3,386
3130,617	0	-1
3132,255	3,5	-0,039
3133,893	-2	-2,153
3135,531	-10	-3,486
3137,577	-9	-3,441
3139,227	-0,5	-1,263
3140,877	4	-0,018
3142,52	-0,5	-1,832
3144,164	-10,5	-3,495
3145,802	-1,5	-1,991
3147,458	4,5	-0,002
3149,096	0,5	-1,033
3150,74	-10,5	-3,5
3152,378	-3,5	-2,752
3154,016	3,5	-0,308
3155,66	2	-0,273
3157,298	-5,5	-2,788
3158,935	-8,5	-3,402
3160,579	0	-1,061
3162,223	4	-0,031
3163,861	-1,5	-2,116
3165,505	-10,5	-3,487
3167,149	-1	-1,694
3168,787	4	-0,006
3170,425	0	-1,551
3172,063	-10,5	-3,498
3173,701	-2	-2,236
3175,339	4	-0,001
3176,977	0,5	-1,047
3178,62	-10,5	-3,5
3180,264	-4	-2,806
3181,908	4	-0,3
3183,546	1,5	-0,366
3185,184	-6,5	-2,889
3186,84	-8,5	-3,408
3188,49	0	-1,16
3190,134	4	-0,025
3191,778	-1	-2,052
3193,416	-10,5	-3,489
3195,053	-1	-1,725
3196,697	4	-0,005
3198,335	0	-1,468
3199,979	-10,5	-3,498
3201,623	-2,5	-2,352
3203,267	4	-0,001
3204,905	0,5	-0,783
3206,543	-10,5	-3,331
3208,181	-4,5	-2,987
3209,825	2,5	-0,542
3211,463	2	-0,167
3213,1	-4,5	-2,638
3214,738	-9	-3,44
3216,382	-0,5	-1,195
3218,02	4	-0,026
3219,664	-1	-1,992
3220,408	4	-0,001