File: Cycling_tests/_20perc/_1gap/entrada/_2.txt
Time (s)	Load (N)	Displacement (mm)
41,478	-22,5	-3,227
43,248	-6	-1,28
45	3	-0,003
46,836	-1,5	-0,432
48,642	-16,5	-2,073
50,826	-15	-1,805
52,629	-29	-3,5
54,432	-27	-3,43
56,213	-9,5	-1,93
57,977	3,5	0
59,729	0	-0,189
61,535	-14	-1,893
63,305	-28,5	-3,499
65,081	-23	-3,248
66,863	-7	-1,483
68,633	3,5	-0,001
70,427	0	-0,25
72,245	-13	-1,864
74,009	-28,5	-3,499
75,778	-21,5	-3,211
77,95	-22,5	-3,289
79,697	-5,5	-1,297
81,43	3,5	-0,004
203,295	-10	-1,798
205,074	-26	-3,5
206,769	-16	-2,97
208,479	-1,5	-0,834
210,2	3,5	-0,016
211,892	-8,5	-1,667
213,618	-26	-3,499
215,72	-26	-3,498
217,46	-15	-2,809
219,164	1	-0,578
220,814	1,5	-0,145
222,512	-14,5	-2,225
224,198	-25,5	-3,492
225,956	-12	-2,363
227,683	4	-0,204
229,411	1,5	-0,159
231,164	-13	-2,043
232,837	-25,5	-3,494
234,571	-12	-2,375
236,251	4	-0,208
237,955	0,5	-0,254
239,647	-18	-2,556
241,369	-25	-3,489
243,097	-9,5	-2,083
244,795	4	-0,001
246,858	4	-0,003
248,574	-3	-1,017
250,296	-25	-3,206
252,006	-22,5	-3,395
253,734	-5,5	-1,52
255,408	4	-0,005
257,106	-5,5	-1,329
258,81	-25,5	-3,5
260,502	-18	-3,068
262,176	0,5	-0,624
263,868	3,5	-0,068
265,553	-13,5	-2,089
267,317	-25,5	-3,498
269,009	-12,5	-2,497
270,738	3,5	-0,316
272,429	2	-0,156
274,115	-15	-2,384
275,86	-25	-3,494
277,937	-25	-3,482
279,593	-6	-1,582
281,327	4	-0,002
321,416	-18	-2,575
323,102	-24	-3,473
324,806	-6	-1,713
326,486	4,5	-0,003
328,166	-3,5	-1,148
329,84	-24,5	-3,5
331,502	-14,5	-2,869
333,206	1	-0,689
334,879	2,5	-0,086
336,565	-14	-2,287
338,228	-24,5	-3,485
340,312	-23,5	-3,447
342,001	-4,5	-1,455
343,681	4	-0,006
345,343	-5,5	-1,394
347,041	-24,5	-3,499
348,715	-15	-2,908
350,442	0	-0,73
352,128	3,5	-0,053
353,856	-10,5	-1,899
355,53	-24,5	-3,497
357,21	-10	-2,303
358,891	4	0
360,564	-0,5	-0,593
362,226	-22	-2,975
363,9	-21	-3,402
365,574	-3,5	-1,172
367,272	4	-0,009
369,365	4	-0,026
371,075	-9	-1,69
372,713	-24,5	-3,496
374,405	-10	-2,3
376,055	4	-0,001
377,731	-1,5	-0,764
379,397	-24,5	-3,18
381,041	-18	-3,182
382,727	0	-0,816
384,395	3	-0,06
386,056	-12,5	-2,154
387,712	-24	-3,484
389,374	-5,5	-1,705
391,048	4	-0,004
392,734	-4,5	-1,174
394,424	-24,5	-3,496
396,094	-14,5	-2,895
436,022	3	-0,099
437,671	-15,5	-2,423
439,345	-24	-3,48
441,019	-5,5	-1,671
442,68	4	-0,004
444,337	-4,5	-1,358
445,963	-24,5	-3,498
447,643	-11	-2,526
449,281	4	0
450,949	-0,5	-0,639
452,563	-24	-3,338
454,237	-17,5	-3,16
455,898	0	-0,747
457,542	3	-0,092
459,216	-14,5	-2,274
460,896	-24	-3,485
462,546	-5	-1,647
464,208	4	-0,004
465,876	-4,5	-1,338
467,862	-12	-2,163
469,536	-24	-3,491
471,204	-6,5	-1,922
472,878	4	-0,002
512,547	-24	-3,491
514,197	-6	-1,824
515,859	4	-0,002
517,509	-4,5	-1,261
519,165	-24	-3,499
520,791	-11,5	-2,529
522,441	4	0
524,085	-1	-0,603
525,734	-23	-3,165
527,39	-19	-3,273
529,016	1	-0,647
530,648	1,5	-0,159
532,28	-18	-2,714
533,93	-22,5	-3,43
535,568	-2,5	-1,117
537,176	3,5	-0,046
539,216	1	-0,275
540,83	-20,5	-2,975
542,468	-19	-3,34
544,105	0	-0,818
545,755	3	-0,081
547,405	-14,5	-2,397
549,055	-23,5	-3,47
550,687	-3,5	-1,286
552,355	4	-0,011
553,999	-8	-1,773
555,625	-24	-3,494
557,269	-7,5	-1,979
558,925	4	-0,002
560,562	-3,5	-1,208
562,206	-24	-3,499
563,851	-12	-2,601
565,5	4	-0,004
567,132	-1,5	-0,778
568,758	-24	-3,425
570,378	-14	-2,838
572,022	4	-0,247
573,66	0	-0,498
575,31	-21	-3,01
576,978	-19,5	-3,368
578,628	-2	-0,902
580,254	3,5	-0,078
581,891	-14,5	-2,434
583,535	-22,5	-3,463
585,197	-4	-1,392
661,483	-23,5	-3,346
663,115	-14,5	-2,921
664,741	3,5	-0,31
666,391	0	-0,387
668,016	-22,5	-3,126
669,654	-15	-3,127
671,274	3	-0,407
672,912	0,5	-0,288
674,538	-21	-2,943
676,188	-19	-3,31
677,82	1	-0,777
679,416	1,5	-0,173
681,072	-19,5	-2,689
682,716	-21	-3,424
684,354	-3	-1,117
685,979	3,5	-0,04
687,605	-11,5	-2,227
689,237	-23	-3,478
690,863	-4	-1,354
692,489	4	-0,022
694,127	-9,5	-2,057
695,789	-23,5	-3,493
697,433	-6	-1,885
773,166	-8,5	-2,324
774,792	4	-0,001
776,388	-4,5	-1,283
778,014	-23	-3,499
779,646	-9	-2,395
781,26	4	-0,001
782,88	-3	-1,09
784,494	-23	-3,499
786,12	-9,5	-2,447
787,746	4	-0,001
789,359	-2,5	-1,087
791,003	-23	-3,5
792,635	-11	-2,622
794,297	4	-0,148
795,923	-0,5	-0,595
797,549	-23	-3,293
799,163	-13,5	-2,896
800,807	3,5	-0,382
802,445	0	-0,318
804,071	-20	-2,885
805,697	-18	-3,322
807,305	2,5	-0,554
808,93	0,5	-0,247
810,532	-20	-2,978
812,164	-17	-3,264
813,796	0,5	-0,664
815,41	1,5	-0,157
817,024	-18,5	-2,789
818,65	-19	-3,372
820,288	-0,5	-0,895
821,908	2,5	-0,092
823,539	-15	-2,554
825,183	-21,5	-3,452
826,827	-3	-1,218
828,447	4	-0,025
830,055	-12	-2,288
831,675	-22,5	-3,468
833,289	-2,5	-1,296
834,927	4	-0,027
836,523	-13,5	-2,352
838,155	-22	-3,468
839,769	-2,5	-1,136
841,382	3,5	-0,039
842,991	-13,5	-2,328
844,622	-21,5	-3,456
956,468	-7	-2,16
958,1	4	-0,002
959,708	-4	-1,362
961,322	-22,5	-3,498
962,935	-6,5	-2,109
964,531	4	-0,003
966,145	-4,5	-1,439
967,753	-22,5	-3,497
969,355	-5,5	-1,901
970,981	4	-0,004
972,589	-5,5	-1,622
974,227	-22,5	-3,498
975,829	-6	-1,947
977,443	4	-0,004
979,063	-5,5	-1,613
980,676	-22,5	-3,496
982,29	-5,5	-1,922
983,898	4	-0,005
985,494	-7	-1,798
987,114	-22,5	-3,494
988,71	-5	-1,752
990,312	4	-0,008
991,938	-7,5	-1,796
993,558	-22,5	-3,493
995,178	-4,5	-1,72
996,785	4	-0,009
998,394	-7,5	-1,845
1000,013	-22,5	-3,491
1001,609	-4,5	-1,572
1003,211	4	-0,016
1004,831	-10	-2,113
1006,439	-22	-3,474
1008,065	-3,5	-1,315
1009,697	4	-0,019
1011,311	-10,5	-2,17
1012,907	-21,5	-3,464
1014,539	-3	-1,266
1016,147	4	-0,033
1017,742	-11	-2,28
1019,362	-22	-3,468
1020,976	-3	-1,211
1022,59	4	-0,039
1024,186	-14	-2,528
1025,788	-20	-3,409
1027,39	0	-0,776
1029,004	2,5	-0,122
1030,612	-17,5	-2,808
1032,22	-17,5	-3,291
1033,833	2	-0,571
1035,435	0	-0,368
1037,043	-21	-3,116
1038,645	-14,5	-3,062
1040,241	4	-0,258
1041,849	-0,5	-0,633
1043,463	-22,5	-3,32
1045,059	-13	-2,846
1046,667	4	-0,222
1048,287	0	-0,607
1049,883	-22	-3,432
1051,49	-10	-2,714
1053,11	4	-0,003
1054,724	-1	-0,783
1056,32	-22	-3,5
1057,916	-9	-2,477
1059,536	4	-0,001
1061,15	-2,5	-1,116
1062,77	-22	-3,499
1064,372	-8	-2,342
1065,992	4	-0,001
1067,599	-3	-1,179
1069,195	-22,5	-3,499
1070,815	-8,5	-2,408
1072,423	4	-0,001
1074,031	-2,5	-1,094
1075,627	-22	-3,499
1077,223	-7	-2,162
1078,843	4	-0,002
1080,451	-3,5	-1,328
1082,047	-22	-3,498
1083,643	-6	-2,012
1085,267	4	-0,002
1086,871	-5	-1,504
1088,472	-22,5	-3,497
1090,086	-6	-1,999
1091,7	4	-0,002
1093,314	-4,5	-1,464
1094,922	-22	-3,498
1096,524	-6,5	-2,099
1098,126	4	-0,003
1099,752	-4,5	-1,429
1101,36	-22	-3,498
1102,956	-6	-1,96
1104,581	4	-0,002
1106,183	-4,5	-1,39
1107,779	-22	-3,498
1109,375	-6	-2,019
1110,995	4,5	-0,002
1112,597	-4	-1,437
1114,223	-22	-3,498
1115,819	-6	-2,011
1117,433	4	-0,003
1119,041	-4,5	-1,499
1120,673	-22	-3,498
1122,274	-6,5	-2,03
1123,876	4,5	-0,004
1125,484	-5	-1,604
1127,08	-21,5	-3,495
1128,682	-4,5	-1,735
1130,29	4,5	-0,008
1131,898	-7	-1,884
1133,506	-21,5	-3,488
1135,12	-4	-1,559
1136,758	4	-0,008
1138,353	-8	-2,028
1322,867	-13,5	-3,056
1324,475	3,5	-0,373
1326,071	0	-0,504
1327,691	-21	-3,086
1329,311	-14	-3,145
1330,924	3	-0,431
1332,545	0,5	-0,32
1334,153	-19,5	-3,021
1335,754	-14	-3,158
1337,35	4	-0,345
1338,976	0	-0,48
1340,572	-21	-3,232
1342,168	-12,5	-2,973
1343,776	4	-0,21
1345,378	-0,5	-0,698
1346,974	-21,5	-3,47
1348,594	-10,5	-2,763
1350,189	4	0
1351,797	-1,5	-0,906
1353,393	-21,5	-3,5
1355,019	-10	-2,658
1356,615	4	-0,001
1358,229	-2	-1,023
1359,837	-21	-3,499
1361,433	-7,5	-2,356
1363,035	4	-0,001
1364,648	-3	-1,284
1366,25	-21,5	-3,498
1367,87	-6	-2,186
1369,472	4	-0,002
1371,086	-4	-1,492
1372,688	-21	-3,497
1374,308	-5,5	-1,987
1375,946	4	-0,002
1377,554	-4	-1,418
1379,15	-21,5	-3,497
1380,758	-5	-1,839
1382,378	4	-0,005
1383,979	-5,5	-1,739
1385,575	-21	-3,492
1387,183	-4	-1,608
1388,773	4	-0,014
1390,387	-8,5	-2,039
1391,995	-20,5	-3,482
1393,603	-3	-1,351
1395,205	4	-0,032
1396,801	-11,5	-2,394
1398,403	-19,5	-3,433
1399,998	-1	-0,912
1401,606	3	-0,107
1403,202	-15,5	-2,766
1404,804	-16,5	-3,315
1406,394	3	-0,515
1408,008	0,5	-0,354
1409,616	-19,5	-3,074
1411,224	-14	-3,106
1412,832	4	-0,32
1414,44	0	-0,503
1416,042	-21	-3,207
1417,644	-12	-2,904
1419,245	4	-0,077
1420,853	0	-0,67
1422,467	-21	-3,431
1424,075	-10,5	-2,73
1425,677	4	0
1427,279	-1,5	-1,019
1428,887	-21	-3,5
1430,501	-8,5	-2,503
1432,091	4	-0,001
1434,059	4	-0,015
1435,677	-7,5	-1,993
1437,28	-21	-3,484
1438,894	-3	-1,442
1440,484	4	-0,029
1442,086	-10,5	-2,297
1443,682	-20	-3,453
1445,29	-1,5	-1,082
1446,898	3,5	-0,055
1448,494	-13,5	-2,603
1450,103	-18,5	-3,402
1451,698	-0,5	-0,803
1453,3	2,5	-0,122
1454,914	-15	-2,736
1456,521	-18	-3,39
1458,123	0,5	-0,726
1459,719	1	-0,201
1461,315	-19	-2,996
1462,929	-13,5	-3,102
1464,525	4	-0,332
1466,133	0	-0,578
1467,735	-21	-3,359
1469,337	-11	-2,797
1470,944	4	-0,036
1472,552	-0,5	-0,817
1474,154	-21	-3,5
1475,762	-8,5	-2,49
1477,382	4	-0,001
1478,978	-2	-1,139
1480,586	-21	-3,499
1482,194	-7	-2,246
1483,784	4,5	-0,002
1485,38	-4,5	-1,534
1486,976	-21	-3,496
1488,583	-4,5	-1,766
1490,185	4	-0,007
1491,787	-6,5	-1,849
1493,377	-21	-3,487
1494,979	-3,5	-1,512
1496,581	4	-0,018
1498,189	-8,5	-2,158
1499,791	-20,5	-3,474
1501,405	-2,5	-1,244
1503,013	4	-0,034
1504,627	-10,5	-2,244
1506,222	-19,5	-3,452
1507,83	-2,5	-1,076
1509,432	3,5	-0,063
1511,058	-12	-2,466
1512,66	-19	-3,425
1514,268	-1	-0,879
1516,26	4	-0,015
1517,868	-0,5	-0,782
1519,476	-21	-3,5
1521,084	-9	-2,582
1522,691	4	0
1524,281	-1,5	-0,979
1525,889	-21	-3,499
1527,503	-8,5	-2,517
1529,105	4,5	-0,001
1530,713	-1,5	-1,028
1532,321	-20,5	-3,499
1533,929	-7,5	-2,408
1535,537	4,5	-0,001
1537,133	-2,5	-1,223
1538,729	-20,5	-3,498
1540,336	-6	-2,194
1541,962	4	-0,001
1543,564	-3	-1,302
1545,172	-21	-3,498
1546,804	-6,5	-2,268
1548,4	4,5	-0,002
1550,008	-3	-1,337
1551,604	-21	-3,498
1553,206	-5,5	-2,022
1554,82	4	-0,003
1556,422	-4	-1,5
1558,011	-20,5	-3,497
1559,607	-5	-1,926
1561,215	4	-0,004
1562,811	-5	-1,742
1564,413	-20,5	-3,492
1566,027	-4	-1,624
1567,629	4	-0,011
1569,225	-7	-2,027
1570,833	-20,5	-3,482
1572,429	-3	-1,378
1574,031	4	-0,024
1575,632	-9,5	-2,238
1577,24	-20	-3,466
1578,842	-2,5	-1,177
1580,444	4	-0,044
1582,052	-11,5	-2,45
1583,684	-19,5	-3,454
1585,28	-1,5	-1,032
1586,888	3,5	-0,063
1588,478	-12	-2,435
1590,098	-19	-3,443
1591,706	-1,5	-0,998
1593,302	3	-0,084
1594,903	-13,5	-2,658
1596,499	-16,5	-3,355
1598,107	1	-0,635
1599,721	1,5	-0,182
1601,323	-15,5	-2,877
1602,949	-16	-3,288
1604,539	3	-0,481
1606,153	1	-0,334
1607,779	-17,5	-2,937
1609,393	-14,5	-3,189
1610,988	3	-0,402
1612,591	0,5	-0,456
1614,192	-20,5	-3,309
1615,806	-12	-2,898
1617,408	4	-0,053
1619,016	-0,5	-0,773
1620,618	-20,5	-3,5
1622,214	-9	-2,587
1623,828	4	-0,001
1625,448	-1	-0,856
1627,044	-21	-3,5
1628,633	-8,5	-2,527
1630,229	4	-0,001
1631,825	-2	-1,12
1633,427	-21	-3,499
1635,023	-6,5	-2,223
1636,643	4	-0,002
1638,233	-3	-1,347
1639,841	-21	-3,498
1641,437	-5,5	-2,032
1643,033	4	-0,003
1644,653	-4	-1,507
1646,242	-21	-3,496
1647,844	-5	-1,897
1649,44	4,5	-0,004
1651,042	-4	-1,599
1652,65	-20,5	-3,496
1654,264	-5,5	-1,992
1655,86	4,5	-0,004
1657,456	-5	-1,646
1659,058	-20,5	-3,494
1660,66	-4,5	-1,813
1662,262	4	-0,006
1663,858	-5,5	-1,724
1665,465	-20,5	-3,491
1667,073	-4	-1,74
1668,675	4,5	-0,006
1670,265	-5	-1,748
1671,861	-20,5	-3,492
1673,463	-4	-1,636
1675,083	4,5	-0,007
1676,685	-6	-1,894
1678,293	-20,5	-3,488
1679,889	-3	-1,486
1681,496	4	-0,014
1683,092	-7,5	-2,066
1684,682	-20	-3,475
1686,278	-2,5	-1,207
1687,892	4	-0,032
1689,494	-10	-2,28
1691,102	-19,5	-3,456
1692,728	-2,5	-1,223
1694,336	4	-0,033
1695,932	-9,5	-2,269
1697,539	-19,5	-3,466
1699,141	-2	-1,113
1700,737	3,5	-0,06
1702,345	-11,5	-2,497
1703,935	-17	-3,409
1705,525	0	-0,772
1707,133	3	-0,108
1708,729	-14,5	-2,714
1710,325	-15,5	-3,355
1711,927	-0,5	-0,804
1713,523	3	-0,123
1715,149	-13,5	-2,641
1716,744	-18	-3,396
1718,334	0	-0,807
1719,936	3	-0,117
1721,538	-12	-2,574
1723,14	-15	-3,396
1724,76	-1,5	-0,932
1726,356	3	-0,102
1727,976	-13	-2,59
1729,572	-15,5	-3,396
1731,174	1	-0,864
1732,77	2,5	-0,1
1734,378	-14	-2,601
1735,997	-18	-3,406
1737,587	0	-0,855
1739,189	2,5	-0,115
1740,785	-15	-2,71
1742,387	-15	-3,364
1743,989	1	-0,737
1745,609	2,5	-0,106
1747,205	-14,5	-2,674
1748,801	-16	-3,352
1750,396	0	-0,746
1752,005	1,5	-0,126
1753,6	-15	-2,731
1755,208	-15,5	-3,351
1756,804	0,5	-0,738
1758,4	2	-0,141
1760,014	-14,5	-2,724
1761,623	-16,5	-3,38
1763,218	0	-0,824
1764,814	2,5	-0,12
1766,416	-14,5	-2,704
1768,011	-17	-3,363
1769,619	1,5	-0,722
1771,227	1,5	-0,148
1772,835	-15	-2,774
1774,431	-15,5	-3,331
1776,045	1	-0,714
1777,647	1,5	-0,153
1779,243	-15,5	-2,77
1780,839	-15	-3,31
1782,441	1	-0,712
1784,037	1	-0,178
1785,644	-16,5	-2,868
1787,258	-15	-3,303
1788,854	1	-0,708
1790,492	2,5	-0,127
1792,094	-15	-2,765
1793,69	-16,5	-3,342
1795,286	1,5	-0,649
1796,888	1	-0,208
1798,496	-16	-2,808
1800,104	-14,5	-3,269
1801,694	2,5	-0,503
1803,301	0,5	-0,321
1804,903	-18	-2,96
1806,511	-14,5	-3,199
1808,119	2,5	-0,542
1809,739	1	-0,222
1811,341	-16,5	-2,887
1812,943	-13,5	-3,205
1814,539	3	-0,509
1816,135	1	-0,326
1817,737	-18	-2,998
1819,333	-13	-3,092
1820,928	3	-0,416
1822,53	0,5	-0,399
1824,138	-19,5	-3,104
1825,734	-12	-3,012
1827,342	4	-0,37
1828,95	0,5	-0,463
1830,552	-19,5	-3,13
1832,148	-12,5	-3,012
1833,744	4	-0,212
1835,358	0	-0,567
1836,948	-20	-3,281
1838,537	-10	-2,745
1840,151	4	-0,053
1841,753	0	-0,734
1843,355	-20	-3,498
1844,945	-7,5	-2,53
1846,541	4	-0,001
1848,137	-1,5	-1,054
1849,733	-20	-3,499
1851,341	-6,5	-2,362
1852,937	4,5	-0,001
1854,527	-2	-1,268
1856,117	-20	-3,498
1857,719	-5	-2,092
1859,326	4	-0,002
1860,922	-3,5	-1,373
1862,518	-20	-3,498
1864,12	-5,5	-2,177
1865,716	4,5	-0,002
1867,312	-3	-1,397
1868,908	-20	-3,498
1870,516	-5,5	-2,132
1872,118	4	-0,002
1873,726	-2,5	-1,332
1875,351	-20	-3,499
1876,959	-6	-2,256
1878,549	4	-0,002
1880,157	-3	-1,294
1881,759	-20	-3,498
1883,355	-5	-2,049
1884,957	4,5	-0,003
1886,577	-3	-1,411
1888,173	-20	-3,498
1889,775	-5	-2,022
1891,376	4,5	-0,003
1892,996	-3	-1,353
1894,598	-20	-3,498
1896,188	-5,5	-2,103
1897,784	4	-0,003
1899,374	-3,5	-1,48
1900,964	-20	-3,496
1902,56	-4,5	-1,819
1904,15	4	-0,005
1905,758	-5,5	-1,739
1907,366	-20	-3,494
1908,973	-4	-1,767
1910,581	4	-0,006
1912,177	-5	-1,735
1913,779	-20	-3,493
1915,381	-3,5	-1,724
1916,977	4	-0,006
1918,573	-5,5	-1,808
1920,181	-20	-3,492
1921,771	-3,5	-1,684
1923,361	4	-0,009
1924,951	-6	-1,929
1926,54	-19,5	-3,482
1928,142	-2,5	-1,416
1929,732	4	-0,021
1931,334	-8	-2,142
1932,948	-19,5	-3,479
1934,544	-3	-1,385
1936,134	4	-0,025
1937,73	-9	-2,247
1939,332	-19,5	-3,463
1940,934	-2	-1,266
2051,495	3,5	-0,067
2053,085	-11,5	-2,517
2054,675	-17,5	-3,387
2056,271	0	-0,804
2057,861	2,5	-0,14
2059,451	-15	-2,829
2061,041	-14,5	-3,269
2062,637	1,5	-0,549
2064,232	1,5	-0,278
2065,822	-17,5	-3,018
2067,412	-13	-3,073
2069,026	3	-0,414
2070,622	0,5	-0,469
2072,212	-19	-3,241
2073,802	-10,5	-2,848
2075,392	4	-0,158
2076,982	0	-0,658
2078,572	-19,5	-3,406
2080,168	-10	-2,794
2081,758	4	-0,142
2083,353	0	-0,713
2084,949	-19,5	-3,438
2086,563	-9,5	-2,77
2088,159	4	-0,144
2089,749	-0,5	-0,738
2091,339	-19,5	-3,5
2092,935	-9	-2,609
2094,525	4	-0,001
2096,115	-1	-1,004
2097,723	-19,5	-3,499
2099,319	-6,5	-2,342
2100,914	4	-0,001
2102,51	-2	-1,284
2104,106	-19,5	-3,498
2105,696	-5	-2,062
2107,292	4,5	-0,002
2108,882	-3	-1,499
2110,478	-19,5	-3,496
2112,068	-4	-1,85
2113,658	4,5	-0,006
2115,254	-4,5	-1,782
2116,844	-19,5	-3,492
2118,458	-3,5	-1,698
2120,065	4	-0,006
2121,667	-6	-1,861
2123,275	-19,5	-3,49
2124,877	-3,5	-1,575
2126,473	4	-0,013
2128,063	-6,5	-1,992
2129,659	-19,5	-3,484
2131,249	-2,5	-1,36
2132,839	4	-0,028
2134,429	-8,5	-2,289
2136,018	-18	-3,456
2137,614	-1,5	-1,058
2139,21	3,5	-0,07
2140,806	-12	-2,543
2142,402	-17	-3,411
2143,992	-0,5	-0,81
2145,588	3	-0,125
2147,178	-13,5	-2,752
2148,786	-15,5	-3,352
2150,382	0	-0,739
2151,972	2	-0,186
2153,568	-15	-2,87
2155,169	-14,5	-3,234
2156,765	2	-0,58
2158,355	1	-0,333
2159,957	-17	-3,022
2161,547	-12,5	-3,037
2163,137	3,5	-0,321
2164,733	0	-0,565
2166,323	-19,5	-3,348
2167,931	-10,5	-2,788
2169,527	4	-0,113
2171,123	0	-0,69
2172,718	-19,5	-3,496
2174,338	-9,5	-2,76
2175,934	4	-0,064
2177,53	0	-0,74
2179,144	-19,5	-3,343
2180,74	-10	-2,796
2182,336	4	0
2183,938	-0,5	-0,87
2185,54	-19,5	-3,5
2187,136	-8	-2,552
2188,731	4	-0,001
2190,321	-1,5	-1,115
2191,911	-19,5	-3,499
2193,501	-6	-2,272
2195,097	4	-0,001
2196,693	-2	-1,265
2198,289	-19,5	-3,498
2199,885	-5	-2,048
2201,475	4	-0,003
2203,065	-3,5	-1,602
2204,655	-19,5	-3,494
2206,244	-4	-1,721
2207,859	4,5	-0,006
2209,454	-4,5	-1,797
2211,05	-19	-3,489
2212,646	-3	-1,497
2214,242	4	-0,018
2215,826	-6,5	-2,131
2217,416	-18	-3,473
2219,006	-2	-1,132
2220,596	4	-0,056
2222,186	-10,5	-2,57
2223,775	-15	-3,386
2225,371	0	-0,782
2226,991	3	-0,098
2228,593	-12,5	-2,63
2230,189	-15	-3,371
2231,797	0,5	-0,753
2233,399	1,5	-0,166
2234,989	-15	-2,906
2236,585	-12,5	-3,192
2238,175	4	-0,398
2239,765	0	-0,504
2241,384	-17	-3,107
2242,98	-10,5	-3,019
2244,576	4	-0,258
2246,172	0	-0,619
2247,768	-18,5	-3,446
2249,358	-7,5	-2,644
2250,954	4	0
2252,544	-0,5	-0,971
2254,134	-18,5	-3,499
2255,73	-6,5	-2,425
2257,32	4	-0,001
2258,915	-1,5	-1,189
2260,505	-18,5	-3,498
2262,095	-5	-2,147
2263,685	4,5	-0,002
2265,293	-2,5	-1,353
2266,907	-18,5	-3,498
2268,503	-4	-2,007
2270,129	4,5	-0,002
2271,719	-3	-1,51
2273,303	-18,5	-3,495
2274,91	-3,5	-1,786
2276,507	4,5	-0,006
2278,114	-4,5	-1,758
2279,716	-18	-3,49
2281,306	-2,5	-1,544
2282,896	4,5	-0,016
2284,492	-6	-2,012
2286,082	-18	-3,479
2287,672	-2	-1,231
2289,262	4	-0,037
2290,864	-8,5	-2,306
2292,46	-17,5	-3,459
2294,055	-1,5	-1,109
2295,651	3,5	-0,055
2297,241	-10,5	-2,549
2298,831	-15	-3,402
2300,433	0	-0,839
2302,023	2,5	-0,117
2303,619	-13	-2,77
2305,209	-12,5	-3,266
2306,805	3	-0,513
2308,401	1	-0,354
2309,991	-18	-3,184
2311,58	-9,5	-2,866
2313,17	4	-0,047
2314,766	0	-0,715
2316,362	-18	-3,494
2317,964	-8	-2,676
2319,56	4,5	0
2321,156	-0,5	-0,898
2322,752	-18	-3,499
2324,36	-7,5	-2,55
2325,956	4,5	-0,001
2327,558	-0,5	-1,016
2329,153	-18	-3,499
2330,749	-6	-2,388
2332,345	4,5	-0,001
2333,947	-1,5	-1,124
2335,543	-18	-3,499
2337,139	-5,5	-2,253
2338,741	4,5	-0,002
2340,331	-2,5	-1,411
2341,927	-18	-3,497
2343,523	-4	-1,907
2345,118	4,5	-0,005
2346,72	-4,5	-1,695
2348,31	-18	-3,492
2349,906	-3	-1,572
2351,496	4	-0,015
2353,092	-7,5	-2,174
2354,682	-17,5	-3,468
2356,272	-1,5	-1,159
2357,862	3,5	-0,053
2359,452	-10,5	-2,47
2361,048	-15	-3,421
2362,643	-0,5	-0,917
2364,233	2,5	-0,107
2365,859	-10,5	-2,526
2367,449	-15	-3,4
2369,039	0	-0,812
2370,623	2	-0,17
2372,231	-13,5	-2,772
2373,821	-13,5	-3,29
2375,417	2	-0,544
2377,013	1,5	-0,294
2378,603	-16,5	-3,05
2380,21	-10	-3,083
2381,806	3,5	-0,392
2383,402	0,5	-0,469
2384,992	-18	-3,308
2386,582	-9	-2,8
2388,178	4,5	-0,07
2389,768	0	-0,825
2391,358	-18	-3,5
2392,948	-6,5	-2,518
2394,544	4,5	-0,001
2396,152	-0,5	-1,07
2397,748	-18	-3,499
2399,349	-5	-2,242
2400,939	4,5	-0,002
2402,547	-2	-1,372
2404,137	-18	-3,497
2405,727	-3,5	-1,892
2407,323	4,5	-0,006
2408,919	-3,5	-1,698
2410,515	-18	-3,494
2412,111	-3,5	-1,728
2413,707	4,5	-0,009
2415,297	-5	-1,95
2416,892	-17,5	-3,479
2418,494	-2	-1,324
2420,084	4	-0,032
2421,674	-9	-2,433
2423,264	-15,5	-3,428
2424,872	-1	-0,932
2426,462	2,5	-0,121
2428,052	-13	-2,803
2429,642	-12,5	-3,261
2431,232	3	-0,396
2432,827	0,5	-0,476
2434,423	-18	-3,277
2436,025	-9	-2,866
2437,621	4	-0,065
2439,211	0	-0,822
2440,807	-18	-3,499
2442,403	-6	-2,402
2443,999	4	-0,001
2445,607	-2	-1,267
2447,203	-18	-3,498
2448,799	-5	-2,148
2450,394	4	-0,002
2451,99	-2,5	-1,517
2453,586	-18	-3,496
2455,176	-3	-1,735
2456,778	4,5	-0,007
2458,374	-4,5	-1,868
2459,97	-17,5	-3,487
2461,56	-2,5	-1,432
2463,156	4	-0,022
2464,752	-6,5	-2,158
2466,342	-17	-3,466
2467,997	-2,5	-1,415
2469,581	4	-0,021
2471,183	-7	-2,19
2472,785	-17	-3,472
2474,369	-2	-1,152
2475,959	3,5	-0,06
2477,555	-10,5	-2,574
2479,151	-15	-3,4
2480,741	1	-0,699
2482,337	1,5	-0,198
2483,927	-15	-3,034
2485,517	-10,5	-3,048
2487,106	4	-0,245
2488,738	0,5	-0,472
2490,334	-17,5	-3,246
2491,924	-9	-2,851
2493,52	4	-0,047
2495,116	0	-0,843
2496,736	-17,5	-3,497
2498,332	-7,5	-2,607
2499,928	4,5	-0,001
2501,53	-0,5	-1,044
2503,125	-17	-3,499
2504,721	-5	-2,227
2506,317	4	-0,002
2507,919	-2	-1,338
2509,515	-17,5	-3,497
2511,111	-4	-1,928
2512,725	4,5	-0,004
2514,321	-3	-1,672
2515,917	-17,5	-3,492
2517,513	-2,5	-1,604
2519,109	4	-0,01
2520,704	-4,5	-1,975
2522,294	-16,5	-3,482
2523,884	-2	-1,379
2525,486	4	-0,023
2527,082	-6	-2,174
2528,678	-15,5	-3,468
2530,268	-1,5	-1,091
2531,864	3,5	-0,062
2533,46	-9,5	-2,583
2535,056	-14	-3,397
2536,646	0	-0,747
2538,236	2	-0,175
2539,825	-13	-2,993
2541,421	-9,5	-3,07
2543,023	3,5	-0,318
2544,619	0	-0,542
2546,21	-15,5	-3,344
2547,805	-7,5	-2,767
2549,395	4	0
2550,991	-0,5	-1,008
2552,575	-15,5	-3,499
2554,177	-5	-2,302
2555,76	4,5	-0,002
2557,381	-1	-1,228
2558,976	-15,5	-3,498
2560,572	-4,5	-2,087
2562,162	4,5	-0,003
2563,77	-1,5	-1,527
2565,366	-15	-3,496
2566,962	-3	-1,787
2568,552	4,5	-0,008
2570,148	-3,5	-1,929
2571,738	-15	-3,483
2573,327	-2	-1,335
2574,923	4	-0,027
2576,513	-5,5	-2,227
2578,109	-14	-3,455
2579,699	-0,5	-0,982
2581,295	3	-0,097
2582,885	-9	-2,728
2584,481	-11,5	-3,331
2586,077	2	-0,586
2587,679	1,5	-0,253
2589,275	-13	-3,07
2590,871	-8	-3,002
2592,478	4,5	-0,284
2594,074	0,5	-0,538
2595,664	-14,5	-3,432
2597,26	-6,5	-2,691
2598,85	4	-0,001
2600,44	0	-1,048
2602,036	-14	-3,499
2603,626	-4,5	-2,24
2605,222	4,5	-0,002
2606,83	-0,5	-1,331
2608,419	-14	-3,498
2610,015	-3	-1,921
2611,611	4,5	-0,004
2613,207	-1,5	-1,638
2614,797	-13,5	-3,493
2616,387	-2,5	-1,674
2617,977	4,5	-0,012
2619,585	-3	-1,971
2621,175	-13	-3,482
2622,771	-1,5	-1,307
2624,361	4	-0,036
2625,956	-5	-2,376
2627,552	-12	-3,445
2629,142	-0,5	-1,008
2630,732	3	-0,092
2632,358	-6	-2,579
2633,954	-11	-3,402
2635,544	0	-0,86
2637,14	3	-0,11
2638,742	-7,5	-2,785
2640,338	-9	-3,283
2641,934	3	-0,49
2643,523	1	-0,456
2645,113	-12,5	-3,276
2646,709	-6	-2,833
2648,299	4,5	-0,145
2649,895	0,5	-0,681
2651,485	-12,5	-3,5
2653,069	-4,5	-2,559
2654,659	4,5	-0,001
2656,255	0	-1,072
2657,845	-12,5	-3,499
2659,435	-3,5	-2,224
2661,03	4,5	-0,002
2662,626	-0,5	-1,36
2664,222	-12,5	-3,498
2665,812	-3	-2,031
2667,408	4,5	-0,003
2669,004	-1	-1,513
2670,6	-12,5	-3,497
2672,184	-2,5	-1,82
2673,78	4,5	-0,006
2675,376	-1	-1,712
2676,966	-12,5	-3,492
2678,561	-2	-1,642
2680,151	4	-0,013
2681,747	-3	-2,048
2683,337	-12	-3,483
2684,933	-1,5	-1,353
2686,529	4	-0,03
2688,119	-4	-2,34
2689,715	-11,5	-3,449
2691,311	-0,5	-1,016
2692,901	3,5	-0,084
2694,503	-6	-2,612
2696,092	-10	-3,37
2697,682	0,5	-0,704
2699,284	2,5	-0,177
2700,874	-8,5	-2,934
2702,464	-7,5	-3,157
2704,06	3	-0,414
2705,65	1	-0,484
2707,24	-12	-3,267
2708,83	-5	-2,813
2710,438	4,5	-0,158
2712,04	0,5	-0,751
2713,635	-12	-3,496
2715,231	-4,5	-2,647
2716,821	4,5	-0,001
2718,417	0	-0,995
2720,007	-12	-3,499
2721,603	-3	-2,31
2723,199	4,5	-0,002
2724,795	0	-1,316
2726,391	-12	-3,498
2727,993	-2,5	-2,059
2729,583	4,5	-0,004
2731,172	-1	-1,698
2732,768	-11,5	-3,493
2734,358	-1,5	-1,628
2735,954	4	-0,012
2737,556	-2	-2,001
2739,152	-11,5	-3,481
2740,754	-1	-1,312
2742,35	4	-0,03
2743,946	-4,5	-2,348
2745,56	-11	-3,463
2747,156	0	-1,05
2748,751	3,5	-0,067
2750,347	-5,5	-2,535
2751,937	-9	-3,386
2753,533	0,5	-0,712
2755,135	2	-0,189
2756,725	-10	-2,979
2758,321	-6	-3,082
2759,917	4	-0,311
2761,507	0,5	-0,574
2763,103	-11,5	-3,35
2764,693	-4,5	-2,715
2766,288	4	-0,002
2767,884	0	-0,913
2769,474	-12	-3,499
2771,076	-3,5	-2,38
2772,672	4,5	-0,001
2774,274	0	-1,27
2775,864	-11,5	-3,498
2777,46	-2,5	-2,081
2779,08	4,5	-0,002
2780,67	-0,5	-1,434
2782,266	-11,5	-3,497
2783,867	-2	-1,797
2785,463	4	-0,008
2787,065	-1,5	-1,858
2788,661	-11,5	-3,489
2790,257	-1,5	-1,493
2791,859	4	-0,017
2793,449	-3	-2,182
2795,039	-11	-3,474
2796,635	-1	-1,255
2798,225	3,5	-0,041
2799,815	-4	-2,405
2801,404	-10	-3,446
2803	0	-1,011
2804,59	3	-0,094
2806,174	-7	-2,813
2807,77	-7,5	-3,298
2809,366	1,5	-0,635
2810,962	1,5	-0,294
2812,558	-10,5	-2,963
2814,172	-6	-3,144
2815,768	3,5	-0,421
2817,358	1	-0,546
2818,965	-11	-3,237
2820,561	-5	-2,876
2822,157	4,5	-0,163
2823,747	0,5	-0,707
2825,337	-11	-3,486
2826,939	-4,5	-2,723
2828,523	4,5	0
2830,119	0	-0,911
2831,703	-11	-3,5
2833,299	-3	-2,428
2834,895	4,5	-0,001
2836,49	0	-1,15
2838,098	-11	-3,499
2839,694	-3	-2,264
2841,296	4,5	-0,002
2842,892	0	-1,338
2844,494	-11	-3,498
2846,084	-2	-1,991
2847,668	4,5	-0,004
2849,264	-1	-1,716
2850,866	-11	-3,493
2852,474	-1,5	-1,767
2854,063	4,5	-0,008
2855,665	-1	-1,877
2857,261	-11	-3,486
2858,857	-1	-1,416
2860,447	4	-0,021
2862,037	-2,5	-2,17
2863,639	-10,5	-3,471
2865,235	-0,5	-1,167
2866,837	3,5	-0,051
2868,427	-4,5	-2,519
2870,022	-9,5	-3,424
2871,618	0	-0,854
2873,208	2,5	-0,154
2874,804	-6,5	-2,82
2876,4	-7	-3,3
2877,99	3	-0,479
2879,58	1	-0,482
2881,17	-11	-3,242
2882,754	-4,5	-2,832
2884,344	4,5	-0,022
2885,934	0,5	-0,829
2887,56	-11	-3,491
2889,155	-3,5	-2,613
2890,757	4,5	-0,001
2892,347	0	-0,998
2893,937	-11	-3,499
2895,533	-3	-2,408
2897,129	4,5	-0,001
2898,713	0	-1,333
2900,303	-11	-3,498
2901,905	-2	-2,07
2903,501	4,5	-0,004
2905,109	-0,5	-1,596
2906,704	-10,5	-3,495
2908,288	-1,5	-1,678
2909,884	4,5	-0,008
2911,48	-1	-1,938
2913,076	-10,5	-3,486
2914,666	-1	-1,425
2916,262	4	-0,026
2917,852	-3	-2,307
2919,442	-10	-3,46
2921,038	-0,5	-1,104
2922,634	3,5	-0,058
2924,224	-4,5	-2,543
2925,819	-9	-3,397
2927,415	1,5	-0,729
2929,011	2,5	-0,153
2930,631	-5,5	-2,762
2932,227	-7	-3,319
2933,817	3	-0,536
2935,413	1,5	-0,364
2937,003	-10	-3,165
2938,599	-5	-2,921
2940,189	4,5	-0,132
2941,779	1	-0,74
2943,368	-10,5	-3,5
2944,964	-3	-2,532
2946,56	4,5	-0,001
2948,156	0	-1,068
2949,746	-10,5	-3,499
2951,342	-2,5	-2,252
2952,932	4,5	-0,002
2954,54	0	-1,423
2956,136	-10,5	-3,498
2957,749	-2	-2,102
2959,351	4,5	-0,003
2960,947	-0,5	-1,607
2962,549	-10	-3,495
2964,145	-1,5	-1,716
2965,735	4	-0,009
2967,331	-1	-1,878
2968,927	-10	-3,488
2970,529	-1	-1,482
2972,125	4	-0,02
2973,727	-1,5	-2,089
2975,328	-10	-3,482
2976,924	-1	-1,409
2978,514	4	-0,023
2980,104	-2,5	-2,248
2981,694	-10	-3,466
2983,296	-0,5	-1,221
2984,892	3,5	-0,044
2986,5	-3	-2,362
2988,096	-9	-3,439
2989,686	0	-0,947
2991,276	3	-0,111
2992,871	-5	-2,677
2994,467	-7,5	-3,367
2996,057	0,5	-0,702
2997,653	2	-0,204
2999,249	-6	-2,868
3000,845	-6,5	-3,32
3002,441	1,5	-0,617
3004,031	1,5	-0,298
3005,639	-6	-2,923
3007,235	-5,5	-3,166
3008,837	3,5	-0,459
3010,433	1,5	-0,372
3012,028	-8	-3,052
3013,618	-4,5	-3,028
3015,208	4,5	-0,28
3016,798	1	-0,622
3018,394	-9,5	-3,45
3019,99	-3	-2,741
3021,58	4,5	-0,002
3023,176	0,5	-0,918
3024,778	-9,5	-3,499
3026,374	-2,5	-2,458
3027,963	4,5	-0,001
3029,559	0	-1,173
3031,155	-9,5	-3,499
3032,745	-2	-2,222
3034,335	4	-0,002
3035,931	0	-1,499
3037,527	-9,5	-3,497
3039,117	-1,5	-1,871
3040,713	4	-0,005
3042,309	-0,5	-1,688
3043,905	-9,5	-3,494
3045,495	-1	-1,659
3047,091	4	-0,011
3048,68	-1	-2,003
3050,276	-9	-3,48
3051,872	-0,5	-1,279
3053,462	4	-0,043
3055,07	-1,5	-2,286
3056,654	-9	-3,446
3058,244	0	-0,969
3059,84	3	-0,098
3061,436	-4	-2,706
3063,032	-7	-3,352
3064,627	1,5	-0,655
3066,217	1,5	-0,264
3067,813	-6,5	-2,998
3069,409	-5	-3,075
3071,005	3,5	-0,369
3072,601	1,5	-0,483
3074,191	-9,5	-3,282
3075,787	-3,5	-2,87
3077,383	4	-0,174
3078,985	1	-0,653
3080,581	-9,5	-3,353
3082,176	-3,5	-2,799
3083,772	4	-0,12
3085,362	0,5	-0,794
3086,97	-9	-3,498
3088,602	-3,5	-2,85
3090,198	4	-0,09
3091,794	0,5	-0,788
3093,39	-9	-3,5
3094,998	-3	-2,724
3096,588	4	-0,012
3098,183	0,5	-0,869
3099,779	-9	-3,5
3101,375	-2,5	-2,53
3102,965	4	-0,001
3104,561	0	-1,134
3106,157	-9	-3,499
3107,747	-2	-2,229
3109,337	4	-0,002
3110,927	0	-1,527
3112,517	-9	-3,496
3114,107	-1	-1,775
3115,703	4	-0,007
3117,299	-0,5	-1,788
3118,9	-9	-3,491
3120,496	-1	-1,539
3122,086	4	-0,016
3123,676	-1,5	-2,154
3125,284	-9	-3,479
3126,886	-0,5	-1,382
3128,482	4	-0,027
3130,078	-2	-2,308
3131,674	-8,5	-3,457
3133,263	0	-1,012
3134,859	3,5	-0,078
3136,449	-3	-2,644
3138,045	-7	-3,378
3139,641	0,5	-0,738
3141,231	2	-0,213
3142,821	-6	-2,929
3144,411	-4,5	-3,126
3146,007	3,5	-0,365
3147,597	1	-0,568
3149,187	-9	-3,382
3150,795	-3	-2,828
3152,391	4	-0,146
3153,98	1	-0,749
3155,576	-9	-3,498
3157,172	-3	-2,644
3158,762	4	-0,001
3160,352	0,5	-1,108
3161,948	-9	-3,499
3163,538	-1,5	-2,283
3165,146	4,5	-0,002
3166,748	0	-1,339
3168,337	-9	-3,497
3169,927	-1,5	-1,983
3171,511	4	-0,003
3173,107	0	-1,624
3174,703	-9	-3,494
3176,293	-0,5	-1,728
3177,889	4,5	-0,009
3179,479	-0,5	-1,934
3181,069	-8,5	-3,482
3182,659	-0,5	-1,32
3184,261	4	-0,026
3185,856	-1,5	-2,363
3187,446	-7,5	-3,437
3189,042	0	-0,936
3190,632	2,5	-0,106
3192,228	-3	-2,663
3193,824	-6	-3,373
3195,414	0,5	-0,748
3197,01	2	-0,156
3198,6	-5	-2,834
3200,19	-5	-3,266
3201,78	3	-0,493
3203,381	1,5	-0,402
3204,971	-8	-3,194
3206,567	-3,5	-2,929
3208,169	4	-0,205
3209,771	1	-0,629
3211,373	-8,5	-3,294
3212,975	-3	-2,889
3214,571	4	-0,176
3216,161	0,5	-0,73
3217,763	-8,5	-3,4
3219,359	-2,5	-2,698
3220,954	4	-0,002
3222,55	0,5	-0,882
3223,078	4	0