File: Cycling_tests/_20perc/_1gap/entrada/_4.txt
Time (s)	Load (N)	Displacement (mm)
242,587	-22,5	-2,948
242,892	-6,5	-1,352
243,216	3	-0,063
243,51	3,5	0
243,816	-5	-1,435
244,116	-16	-2,99
244,416	-25,5	-3,493
244,728	-21,5	-2,886
245,022	-7	-1,421
245,317	2	-0,099
245,64	3,5	-0,001
245,934	-4,5	-1,365
246,234	-16	-2,865
246,546	-25,5	-3,494
246,858	-21,5	-2,81
247,17	-5	-1,25
247,476	3	-0,034
247,797	3,5	-0,104
248,094	-5,5	-1,612
248,406	-18	-3,172
248,694	-25,5	-3,496
248,982	-22	-2,844
249,3	-5,5	-1,254
249,612	3	-0,045
249,912	3,5	-0,023
250,247	-6,5	-1,701
250,542	-18,5	-3,161
250,86	-25,5	-3,498
251,16	-19,5	-2,63
251,466	-4,5	-1,1
251,76	3	-0,037
252,06	3,5	-0,079
252,359	-5,5	-1,657
252,678	-19	-3,191
252,977	-25,5	-3,497
253,313	-18,5	-2,562
253,62	-4	-1,033
253,907	3,5	-0,034
254,249	3	-0,344
254,537	-6,5	-1,785
254,843	-19,5	-3,295
255,143	-25,5	-3,498
255,455	-18,5	-2,558
255,767	-3	-0,968
256,073	3,5	-0,022
256,404	3	-0,449
256,703	-7,5	-1,95
257,021	-22	-3,396
257,327	-25,5	-3,499
257,669	-13,5	-2,133
257,994	-0,5	-0,518
258,299	3,5	-0,005
258,593	0	-0,745
258,899	-10	-2,27
259,212	-24,5	-3,457
259,538	-25,5	-3,212
259,865	-9,5	-1,685
260,183	1	-0,157
260,483	3,5	-0,002
260,807	-4	-1,252
261,126	-15,5	-2,841
261,437	-25,5	-3,492
261,743	-22,5	-2,875
262,068	-5	-1,26
262,379	3	-0,041
262,685	3,5	-0,032
263,009	-6	-1,676
263,327	-20	-3,257
263,639	-25,5	-3,498
263,951	-16,5	-2,409
264,257	-3	-0,884
264,575	3,5	-0,013
264,899	1	-0,621
265,205	-9	-2,146
265,529	-24	-3,448
266,231	-7,5	-1,523
266,549	2	-0,114
266,849	3,5	-0,001
267,167	-4,5	-1,328
267,479	-15,5	-2,888
267,779	-25	-3,492
268,115	-20	-2,692
268,421	-5	-1,192
268,745	3	-0,032
269,087	3	-0,342
269,399	-7	-1,902
269,705	-21	-3,356
270,029	-25,5	-3,499
270,329	-15	-2,292
270,665	-1,5	-0,642
270,959	3,5	-0,009
271,277	0	-0,697
271,583	-9,5	-2,233
271,9	-23,5	-3,456
272,195	-25,5	-3,497
272,525	-10	-1,838
272,842	0	-0,258
273,142	3,5	-0,002
273,46	-3	-1,106
273,76	-13	-2,612
274,097	-25	-3,49
274,438	-22,5	-2,829
274,75	-5,5	-1,339
275,064	2,5	-0,058
275,387	3,5	-0,097
275,705	-6	-1,699
276,004	-18,5	-3,204
276,298	-25,5	-3,497
276,616	-19,5	-2,664
276,916	-4,5	-1,164
277,21	3	-0,041
277,516	3,5	-0,028
277,834	-6	-1,642
278,134	-18,5	-3,142
278,464	-25	-3,498
278,77	-16	-2,32
279,105	-1,5	-0,751
279,406	3,5	-0,012
279,706	1,5	-0,495
280,048	-9,5	-2,196
280,348	-24	-3,442
280,66	-25,5	-3,5
280,972	-12	-2,012
281,29	0	-0,427
281,59	3,5	-0,004
359,459	-15	-2,422
359,748	-3	-0,988
360,071	3,5	-0,016
360,377	3,5	-0,351
360,695	-7	-1,938
361,001	-21,5	-3,372
361,307	-24,5	-3,499
361,607	-15,5	-2,343
361,937	-2	-0,793
362,249	3,5	-0,011
362,555	2	-0,519
362,843	-7,5	-1,959
363,15	-21	-3,379
363,449	-24,5	-3,499
363,773	-14,5	-2,283
364,073	-1,5	-0,783
364,385	3,5	-0,01
364,673	2,5	-0,496
364,961	-7,5	-1,932
365,249	-19,5	-3,325
365,561	-24,5	-3,498
365,873	-15,5	-2,383
366,173	-2	-0,884
366,473	3,5	-0,017
366,785	2,5	-0,424
367,079	-6	-1,895
367,397	-20,5	-3,378
367,685	-24,5	-3,498
367,985	-16	-2,488
368,309	-2	-0,868
368,609	3,5	-0,016
368,927	2	-0,469
369,227	-7,5	-1,969
369,551	-22	-3,411
369,845	-24,5	-3,499
370,163	-13,5	-2,215
370,457	-2,5	-0,75
370,769	3,5	-0,01
371,075	0,5	-0,67
371,405	-10	-2,29
371,693	-23	-3,442
371,987	-24,5	-3,499
372,299	-12	-2,094
372,611	-0,5	-0,539
372,917	3,5	-0,006
373,229	-0,5	-0,777
373,535	-9,5	-2,307
373,835	-23,5	-3,455
374,147	-24,5	-3,492
374,446	-11	-1,976
374,735	-0,5	-0,536
375,058	3,5	-0,004
375,371	-1,5	-0,892
375,677	-10,5	-2,421
375,971	-24	-3,47
376,27	-24,5	-3,471
376,576	-10,5	-1,916
376,864	0	-0,476
377,17	3,5	-0,005
377,47	0	-0,748
377,758	-8,5	-2,188
378,07	-23	-3,446
378,381	-24,5	-3,5
378,683	-11,5	-2,066
378,97	-0,5	-0,632
379,258	3,5	-0,009
379,576	1	-0,613
379,864	-8	-2,053
380,171	-22	-3,41
380,482	-24,5	-3,499
380,782	-13,5	-2,184
381,094	-1,5	-0,694
381,4	3,5	-0,009
381,73	0	-0,756
382,048	-10	-2,346
382,337	-23,5	-3,452
382,664	-24,5	-3,466
382,967	-10,5	-1,939
383,296	0	-0,29
383,59	4	-0,003
383,884	-2	-0,909
384,184	-11	-2,469
384,49	-24	-3,469
384,82	-24,5	-3,269
385,12	-8,5	-1,765
385,429	1	-0,244
385,726	3,5	-0,002
386,038	-3	-1,056
386,338	-11,5	-2,551
386,644	-24	-3,481
386,95	-24,5	-3,2
387,262	-7,5	-1,673
387,55	0,5	-0,242
387,86	3,5	-0,002
388,162	-3	-1,033
388,462	-12	-2,533
388,75	-24	-3,473
389,044	-24,5	-3,497
389,356	-12	-1,93
389,644	0	-0,49
389,938	3,5	-0,006
390,238	-1	-0,814
390,548	-9,5	-2,324
390,862	-23,5	-3,464
391,174	-24,5	-3,482
391,462	-11	-2,023
391,768	0	-0,493
392,068	3,5	-0,006
392,368	0	-0,686
392,667	-8,5	-2,221
392,973	-22,5	-3,44
393,292	-24,5	-3,499
393,58	-11	-2,064
393,885	0	-0,53
394,185	4	-0,006
394,486	0	-0,706
394,797	-9	-2,266
395,097	-23	-3,448
395,409	-24,5	-3,5
395,71	-11,5	-2,038
396,009	-0,5	-0,538
396,297	3,5	-0,008
396,585	1,5	-0,546
396,897	-8,5	-2,106
397,191	-21,5	-3,408
472,913	4	-0,001
473,225	-4,5	-1,45
473,525	-15	-2,944
473,813	-24	-3,492
474,131	-20,5	-2,864
474,431	-5	-1,364
474,743	3	-0,064
475,037	3,5	-0,001
475,325	-4	-1,353
475,631	-14,5	-2,884
475,943	-24	-3,493
476,243	-21	-2,938
476,531	-6	-1,497
476,819	2	-0,14
477,119	3,5	-0,001
477,419	-3	-1,153
477,707	-12	-2,593
478,013	-24	-3,483
478,313	-23,5	-3,139
478,619	-7	-1,653
478,913	1	-0,208
479,206	3,5	-0,002
479,507	-2,5	-1,041
479,806	-11,5	-2,541
480,106	-23,5	-3,478
480,413	-24	-3,283
480,712	-8	-1,778
481,024	0,5	-0,232
481,324	3,5	-0,002
481,66	-3	-1,167
481,948	-12	-2,602
482,236	-23,5	-3,478
482,542	-24	-3,332
482,842	-9	-1,824
483,142	0	-0,324
483,454	3,5	-0,003
483,742	-2	-0,982
484,054	-12	-2,546
484,342	-23,5	-3,474
484,656	-24	-3,301
484,954	-8	-1,796
485,26	1	-0,269
485,566	4	-0,002
485,854	-2	-0,954
486,148	-10	-2,505
486,466	-23	-3,474
486,766	-24	-3,394
487,073	-8,5	-1,845
487,366	0	-0,38
487,684	3,5	-0,003
487,984	-2	-0,978
488,29	-10,5	-2,508
488,59	-23	-3,476
488,896	-24	-3,26
489,196	-7,5	-1,758
489,496	1	-0,217
489,82	3,5	-0,002
490,108	-2	-0,997
490,408	-10,5	-2,497
490,708	-23	-3,475
491,008	-23,5	-3,461
491,32	-9	-1,876
491,614	0	-0,406
491,902	4	-0,005
492,208	-0,5	-0,801
492,496	-9	-2,242
492,784	-22	-3,433
493,09	-24	-3,499
493,39	-13	-2,172
493,684	-1	-0,732
493,984	4	-0,011
494,284	3	-0,457
494,578	-6,5	-1,927
494,878	-20	-3,353
495,184	-23,5	-3,499
495,496	-14	-2,384
495,784	-2	-0,944
496,072	4	-0,025
496,378	3,5	-0,249
496,677	-5,5	-1,751
496,972	-18,5	-3,308
497,289	-24	-3,498
497,583	-16,5	-2,593
497,883	-3	-1,093
498,178	3,5	-0,037
498,49	3,5	-0,097
498,789	-4,5	-1,616
499,096	-17,5	-3,146
499,389	-23,5	-3,496
499,695	-17,5	-2,688
499,989	-4	-1,218
500,29	3,5	-0,049
500,584	4	0
500,877	-4	-1,417
501,177	-15	-2,917
501,471	-23,5	-3,492
501,765	-20,5	-2,917
502,083	-4,5	-1,327
502,371	3	-0,068
502,689	4	-0,001
502,989	-3,5	-1,376
503,289	-14	-2,876
503,577	-23,5	-3,491
503,889	-20,5	-2,903
504,183	-5,5	-1,433
504,477	2,5	-0,104
504,771	4	-0,001
505,083	-3,5	-1,357
505,383	-14	-2,852
505,695	-23,5	-3,493
505,989	-21	-2,946
506,283	-5,5	-1,475
506,589	2,5	-0,097
506,889	3,5	-0,001
507,195	-3,5	-1,337
507,495	-14,5	-2,837
507,795	-24	-3,491
508,095	-21,5	-3,018
508,383	-6	-1,517
508,683	1,5	-0,149
508,983	4	-0,001
509,283	-3	-1,145
509,607	-13	-2,764
509,895	-23,5	-3,487
510,202	-23	-3,153
548,275	-23,5	-3,498
548,575	-14,5	-2,462
548,875	-2	-0,962
549,187	3,5	-0,018
549,475	3,5	-0,274
549,763	-5	-1,716
550,08	-18,5	-3,286
550,368	-23,5	-3,498
550,668	-15	-2,539
550,968	-2,5	-1,038
551,269	3,5	-0,028
551,574	3,5	-0,212
551,862	-5	-1,656
552,15	-17	-3,161
552,474	-23,5	-3,497
552,768	-17	-2,714
553,056	-3,5	-1,274
553,368	3,5	-0,048
553,656	4	0
553,956	-4	-1,478
554,25	-15	-3,008
554,55	-23,5	-3,494
554,868	-19	-2,795
555,156	-4,5	-1,355
555,444	3	-0,09
555,756	4	-0,001
556,044	-3,5	-1,28
556,332	-13,5	-2,72
556,644	-23,5	-3,49
556,932	-21	-3,022
557,232	-5,5	-1,522
557,52	1,5	-0,151
557,814	4	-0,002
558,108	-3	-1,088
558,396	-11	-2,523
558,708	-23,5	-3,481
559,002	-23,5	-3,285
559,302	-8	-1,8
559,59	0,5	-0,36
559,89	4	-0,004
560,202	-1,5	-0,9
560,49	-10	-2,34
560,784	-22,5	-3,455
561,084	-23,5	-3,5
561,384	-10,5	-2,044
561,678	0	-0,574
561,978	4	-0,007
562,272	0	-0,66
562,56	-7,5	-2,099
562,878	-19,5	-3,434
563,166	-23,5	-3,499
563,454	-12,5	-2,28
563,772	-0,5	-0,69
564,06	4	-0,012
564,372	0,5	-0,584
564,666	-7	-2,055
564,954	-20,5	-3,381
565,254	-23,5	-3,499
565,542	-14	-2,388
565,836	-1,5	-0,918
566,142	4	-0,018
566,436	3	-0,339
566,724	-5,5	-1,78
567,024	-18	-3,267
567,323	-23,5	-3,498
567,629	-15,5	-2,601
567,929	-2,5	-1,091
568,23	3,5	-0,034
568,529	3,5	-0,136
568,83	-5	-1,65
569,117	-16	-3,086
569,405	-23,5	-3,495
569,705	-19	-2,78
570,005	-4	-1,28
570,299	3	-0,065
570,593	3,5	-0,001
570,881	-3,5	-1,358
571,175	-14	-2,828
571,487	-23,5	-3,494
571,788	-19	-2,87
572,093	-4	-1,34
572,381	3	-0,086
572,675	3,5	-0,001
572,963	-3	-1,284
573,281	-14	-2,873
573,581	-23	-3,492
573,893	-19	-2,856
574,181	-5	-1,416
574,469	2,5	-0,109
574,775	3,5	-0,001
575,075	-3,5	-1,265
575,363	-12,5	-2,704
575,669	-23	-3,488
575,97	-21	-3,029
576,257	-6	-1,584
576,557	1,5	-0,152
576,857	3,5	-0,001
577,157	-3	-1,181
577,469	-13,5	-2,74
577,763	-23	-3,487
578,051	-22,5	-3,088
578,339	-6,5	-1,647
578,627	1,5	-0,195
578,933	4	-0,002
579,233	-2,5	-1,076
579,545	-12,5	-2,636
579,845	-23	-3,484
580,139	-23	-3,196
580,445	-7	-1,664
580,733	1	-0,236
581,027	4	-0,002
581,327	-2,5	-1,042
581,627	-11	-2,477
581,933	-22,5	-3,476
582,221	-23,5	-3,383
582,521	-8,5	-1,87
582,809	0,5	-0,43
583,121	4	-0,004
583,415	-1,5	-0,88
583,721	-10	-2,41
584,008	-22,5	-3,46
584,303	-23,5	-3,426
584,602	-9	-1,907
584,9	0	-0,402
585,196	4	-0,005
585,496	-0,5	-0,801
585,784	-8,5	-2,241
586,072	-22	-3,433
586,373	-23,5	-3,5
586,672	-9,5	-2,009
586,972	0	-0,508
587,272	4	-0,006
587,56	0,5	-0,636
587,86	-7,5	-2,136
588,172	-19,5	-3,436
588,46	-23	-3,499
588,748	-11,5	-2,214
589,048	-0,5	-0,709
589,342	4	-0,012
589,648	2	-0,54
589,948	-7	-1,981
590,242	-20,5	-3,375
590,542	-23,5	-3,499
590,842	-14	-2,378
591,136	-1,5	-0,908
591,424	3,5	-0,022
591,736	3	-0,333
592,031	-5,5	-1,8
592,318	-17,5	-3,236
592,618	-23,5	-3,497
592,918	-15	-2,486
593,206	-2	-1,046
593,528	4	-0,02
593,818	3,5	-0,226
594,106	-5	-1,669
594,406	-17,5	-3,169
594,694	-23,5	-3,496
594,982	-20,5	-2,763
595,288	-3	-1,233
595,576	3,5	-0,062
595,876	3,5	0
596,176	-3,5	-1,402
596,464	-13,5	-2,842
596,752	-23	-3,49
597,064	-23	-3,007
597,352	-5,5	-1,567
597,64	1,5	-0,174
597,946	4	-0,002
598,234	-2,5	-1,091
598,54	-11,5	-2,622
598,834	-23	-3,481
599,134	-23	-3,256
599,434	-7	-1,752
599,722	0,5	-0,312
600,01	4	-0,004
600,31	-1,5	-0,871
600,622	-9,5	-2,43
600,91	-22,5	-3,463
601,198	-23	-3,5
601,498	-10	-2,023
601,786	0	-0,583
602,085	4	-0,007
602,374	2	-0,584
602,679	-7,5	-2,113
602,981	-19,5	-3,419
603,279	-23,5	-3,499
603,574	-11,5	-2,207
603,873	-0,5	-0,707
604,186	4	-0,009
604,485	0	-0,596
604,773	-7,5	-2,166
605,085	-21,5	-3,413
605,373	-23,5	-3,499
605,661	-12	-2,2
605,973	-0,5	-0,7
606,268	3,5	-0,011
606,567	1	-0,521
606,855	-7	-1,961
607,149	-18	-3,355
607,437	-23,5	-3,498
607,749	-13,5	-2,385
608,049	-1,5	-0,89
608,361	3,5	-0,014
608,661	3	-0,4
608,961	-6	-1,896
609,261	-18	-3,338
609,561	-23,5	-3,498
609,849	-14,5	-2,47
610,155	-1,5	-0,94
610,443	3,5	-0,025
610,743	3,5	-0,244
611,043	-5	-1,748
611,331	-17,5	-3,188
611,62	-23,5	-3,496
611,931	-16	-2,64
612,219	-3,5	-1,205
612,519	3,5	-0,047
612,819	3,5	-0,042
613,119	-4,5	-1,569
613,407	-15,5	-3,004
613,713	-23,5	-3,495
614,001	-19	-2,822
614,301	-4,5	-1,322
614,601	3	-0,066
614,901	3,5	0
615,201	-4	-1,4
615,507	-15	-2,93
615,795	-23	-3,492
616,095	-20	-2,959
616,383	-5,5	-1,518
616,677	2	-0,136
616,989	4	-0,001
617,277	-3	-1,216
617,589	-13,5	-2,836
617,895	-23	-3,49
618,189	-21	-3,053
618,495	-5,5	-1,528
618,783	1,5	-0,154
619,082	4	-0,002
619,389	-3	-1,223
619,695	-13	-2,758
619,989	-23	-3,488
620,283	-23	-3,136
620,582	-6,5	-1,635
620,882	1,5	-0,176
621,176	3,5	-0,002
621,476	-3	-1,11
621,776	-12	-2,615
622,064	-22,5	-3,479
622,364	-23,5	-3,322
696,85	-2,5	-0,939
697,162	3,5	-0,017
697,456	4	-0,284
697,744	-4,5	-1,726
698,044	-16,5	-3,219
698,344	-23	-3,497
698,632	-17	-2,644
698,938	-3	-1,11
699,226	3,5	-0,042
699,52	4	-0,012
699,82	-4	-1,532
700,12	-15	-3,032
700,414	-23	-3,494
700,702	-19,5	-2,886
701,002	-4,5	-1,381
701,29	2	-0,099
701,578	3,5	-0,001
701,878	-2,5	-1,225
702,178	-12,5	-2,73
702,466	-22,5	-3,485
702,766	-22,5	-3,251
703,054	-8	-1,808
703,348	0,5	-0,338
703,636	4	-0,004
703,942	-1	-0,876
704,248	-9	-2,405
704,548	-22	-3,467
704,848	-23	-3,439
705,136	-10	-1,976
705,448	0	-0,417
705,736	4	-0,005
706,03	0	-0,74
706,342	-8,5	-2,301
706,63	-21	-3,444
706,918	-23	-3,499
707,218	-10,5	-2,125
707,512	-1	-0,63
707,805	3,5	-0,01
708,105	1,5	-0,562
708,795	-22	-3,476
709,083	-23	-3,376
709,407	-7,5	-1,744
709,696	0	-0,304
709,995	4	-0,003
710,295	-1	-0,906
710,589	-9	-2,376
710,877	-21,5	-3,456
711,177	-23	-3,498
711,465	-10,5	-2,055
711,765	0	-0,555
712,071	3,5	-0,006
712,359	0,5	-0,636
712,671	-7,5	-2,196
712,971	-21	-3,436
713,265	-23	-3,499
713,554	-13	-2,264
713,865	-1	-0,704
714,153	3,5	-0,012
714,447	3	-0,42
714,735	-5	-1,866
715,047	-18,5	-3,348
715,347	-22,5	-3,498
715,635	-13,5	-2,338
715,941	-1,5	-0,898
716,229	3,5	-0,022
716,517	3,5	-0,258
716,811	-5	-1,731
717,105	-16,5	-3,205
717,406	-22,5	-3,498
717,705	-15,5	-2,604
717,993	-3	-1,159
718,299	3,5	-0,037
718,599	3,5	-0,053
718,887	-4	-1,52
719,175	-13,5	-2,955
719,469	-23	-3,494
719,769	-20,5	-2,924
720,063	-5	-1,454
720,351	1,5	-0,122
720,663	3,5	-0,001
720,951	-3	-1,267
721,239	-12	-2,706
721,527	-22,5	-3,487
721,827	-22,5	-3,216
722,121	-7,5	-1,744
722,421	1	-0,251
722,733	3,5	-0,002
723,021	-2	-0,946
723,309	-9	-2,516
723,621	-22,5	-3,47
723,921	-22,5	-3,463
724,209	-9,5	-1,994
724,508	0	-0,494
724,796	3,5	-0,006
725,097	0	-0,661
725,396	-7,5	-2,161
725,696	-20	-3,429
725,984	-23	-3,499
726,273	-13,5	-2,308
726,579	-1	-0,778
726,866	3,5	-0,015
727,16	3,5	-0,438
727,46	-6	-1,938
727,76	-19	-3,371
728,054	-22,5	-3,498
728,348	-14,5	-2,459
728,649	-2,5	-0,959
728,936	3,5	-0,027
729,236	3,5	-0,214
729,536	-5	-1,718
729,824	-16	-3,158
730,136	-22,5	-3,497
730,424	-17	-2,702
730,718	-3,5	-1,232
731,006	3	-0,061
731,306	3,5	0
731,6	-4	-1,432
731,894	-13	-2,902
732,188	-23	-3,492
732,477	-20	-2,964
732,776	-5,5	-1,463
733,076	2,5	-0,105
733,364	3,5	-0,001
733,664	-3	-1,214
733,952	-11	-2,654
808,456	-22,5	-3,494
808,768	-18,5	-2,838
809,056	-4	-1,398
809,344	2,5	-0,103
809,65	4	-0,001
809,944	-3	-1,29
810,232	-12	-2,73
810,52	-22,5	-3,488
810,82	-22,5	-3,186
811,12	-6,5	-1,684
811,408	1	-0,252
811,72	4	-0,002
812,007	-1,5	-0,992
812,307	-9,5	-2,492
812,608	-21,5	-3,479
812,908	-22,5	-3,298
813,195	-7,5	-1,852
813,483	0	-0,412
813,79	4	-0,004
814,077	0	-0,721
814,365	-7	-2,161
814,665	-20	-3,429
814,961	-22,5	-3,499
815,247	-11	-2,176
815,535	-0,5	-0,737
815,835	3,5	-0,011
816,124	3	-0,417
816,411	-5,5	-1,852
816,699	-17	-3,276
817,005	-22,5	-3,498
817,293	-13,5	-2,457
817,581	-2	-1,018
817,893	3,5	-0,022
818,181	4	-0,216
818,487	-4,5	-1,749
818,787	-16	-3,244
819,075	-22,5	-3,497
819,363	-15	-2,548
819,651	-2,5	-1,108
819,963	3,5	-0,029
820,251	4	-0,037
820,551	-4	-1,559
820,851	-15	-3,06
821,139	-22,5	-3,494
821,427	-17,5	-2,713
821,715	-3	-1,268
822,015	3,5	-0,057
822,309	3,5	0
822,597	-3	-1,342
822,891	-13	-2,811
823,191	-22,5	-3,49
823,479	-20	-2,974
823,767	-5,5	-1,534
824,061	2	-0,143
824,361	4	-0,001
824,661	-2,5	-1,14
824,955	-10,5	-2,671
825,255	-22	-3,483
825,543	-22,5	-3,16
825,831	-6	-1,719
826,137	1,5	-0,211
826,437	4	-0,002
826,725	-1,5	-1,041
827,013	-10	-2,481
827,307	-21,5	-3,471
827,595	-22,5	-3,279
827,889	-8	-1,834
828,189	0,5	-0,334
828,477	4	-0,004
828,777	-0,5	-0,848
829,065	-7,5	-2,288
829,365	-21	-3,452
829,652	-22,5	-3,489
829,953	-8,5	-1,972
830,252	0	-0,476
830,54	4	-0,006
830,84	0	-0,706
831,128	-7,5	-2,15
831,428	-20	-3,425
831,716	-22,5	-3,499
832,004	-11	-2,205
832,304	-0,5	-0,7
832,592	4	-0,012
832,88	3,5	-0,372
833,168	-4,5	-1,808
833,468	-16,5	-3,287
833,756	-22,5	-3,498
834,056	-14,5	-2,52
834,344	-2,5	-1,086
834,644	3,5	-0,032
834,932	4	-0,111
835,22	-3,5	-1,564
835,532	-15,5	-3,124
835,82	-22,5	-3,496
836,108	-18	-2,777
836,396	-3,5	-1,337
836,708	3	-0,058
837,008	4	0
837,296	-3	-1,416
837,584	-13,5	-2,917
837,884	-22	-3,491
838,185	-19,5	-2,897
838,49	-4	-1,366
838,784	2,5	-0,085
839,072	4	-0,001
839,36	-2,5	-1,236
839,66	-11,5	-2,736
839,948	-22	-3,486
840,236	-21,5	-3,137
840,548	-5,5	-1,576
840,836	1,5	-0,179
841,124	4	-0,002
841,412	-1,5	-0,985
841,7	-9	-2,425
842,012	-22	-3,474
842,3	-22	-3,336
842,588	-8,5	-1,888
842,888	0	-0,388
843,182	4	-0,004
843,47	-0,5	-0,786
843,782	-8	-2,341
844,07	-21	-3,451
844,358	-22,5	-3,5
844,646	-10	-2,08
844,958	0	-0,52
845,252	4	-0,006
845,54	1,5	-0,599
845,828	-6	-2,039
846,128	-18	-3,396
846,416	-22,5	-3,499
846,704	-12,5	-2,328
846,991	-1,5	-0,888
847,286	3,5	-0,019
847,573	3,5	-0,289
847,861	-4,5	-1,731
848,15	-16	-3,171
848,455	-22,5	-3,497
848,744	-15,5	-2,618
849,031	-3	-1,178
849,325	3	-0,047
849,613	4	0
849,901	-3	-1,377
850,189	-13	-2,817
850,495	-22,5	-3,492
850,783	-20	-2,96
851,071	-5	-1,525
851,359	2	-0,15
851,671	4	-0,001
851,959	-2,5	-1,14
852,247	-10	-2,58
852,535	-21,5	-3,477
852,841	-22,5	-3,172
853,129	-6	-1,73
853,417	0,5	-0,291
853,705	3,5	-0,004
854,005	-0,5	-0,87
854,293	-8,5	-2,31
854,581	-21	-3,446
854,869	-22,5	-3,5
855,163	-10,5	-2,108
855,451	-0,5	-0,663
855,739	4	-0,011
856,049	0,5	-0,606
856,339	-6	-2,046
856,627	-18,5	-3,378
856,915	-22,5	-3,499
857,203	-13	-2,382
857,503	-1,5	-0,877
857,815	4	-0,014
858,103	3,5	-0,355
858,391	-5	-1,796
858,679	-16	-3,232
858,985	-22,5	-3,498
859,273	-13,5	-2,463
859,561	-2	-1,023
859,861	3,5	-0,027
860,149	4	-0,167
860,449	-4,5	-1,676
860,737	-15	-3,116
861,037	-22	-3,496
861,337	-15,5	-2,648
861,637	-2,5	-1,147
861,937	3,5	-0,039
862,225	4	-0,032
862,513	-4	-1,496
862,801	-13,5	-2,941
863,107	-22,5	-3,494
863,395	-18	-2,848
863,683	-4,5	-1,407
863,971	2,5	-0,088
864,271	4	-0,001
864,558	-2,5	-1,21
864,846	-10,5	-2,65
865,159	-22	-3,487
865,446	-21,5	-3,045
865,734	-5,5	-1,604
866,022	1,5	-0,196
866,34	4	-0,002
866,628	-2	-1,087
866,916	-10	-2,527
867,204	-21,5	-3,472
867,492	-22	-3,274
867,792	-7	-1,77
868,092	1	-0,331
868,38	4	-0,004
868,68	-0,5	-0,851
868,968	-8,5	-2,291
869,256	-21	-3,443
869,561	-22,5	-3,496
869,863	-9	-1,986
870,15	0	-0,546
870,444	4	-0,007
870,744	0,5	-0,671
871,032	-7	-2,111
871,32	-19,5	-3,4
871,608	-22,5	-3,499
871,909	-11	-2,256
872,196	-1,5	-0,816
872,484	3,5	-0,017
872,778	3,5	-0,303
873,072	-5	-1,774
873,372	-17	-3,263
873,66	-22,5	-3,497
873,96	-14,5	-2,496
874,248	-2	-1,056
874,536	3,5	-0,036
874,836	3,5	-0,08
875,136	-4	-1,6
875,424	-14	-3,04
875,712	-22,5	-3,494
876	-18,5	-2,724
876,312	-3,5	-1,289
876,6	3	-0,074
876,888	4	-0,001
877,176	-3	-1,321
877,482	-12,5	-2,85
877,77	-22	-3,49
878,058	-20,5	-3
878,346	-5	-1,5
878,646	1,5	-0,141
878,946	3,5	-0,001
879,234	-2,5	-1,085
879,534	-10,5	-2,585
879,822	-22	-3,477
880,11	-22	-3,228
880,398	-7	-1,785
880,704	1	-0,26
880,992	4	-0,003
881,292	-1,5	-0,917
881,58	-8	-2,357
881,879	-21,5	-3,461
882,174	-22	-3,461
882,461	-9	-1,996
882,762	0	-0,496
883,05	4	-0,007
883,349	0	-0,686
883,638	-6,5	-2,126
883,938	-20	-3,421
884,225	-22,5	-3,499
884,52	-11	-2,206
884,819	-0,5	-0,707
885,107	4	-0,012
885,395	3	-0,415
885,683	-5	-1,915
885,995	-18	-3,348
886,283	-22	-3,498
886,571	-13	-2,452
886,859	-2	-1,012
887,165	3,5	-0,024
887,453	4	-0,178
887,741	-4	-1,623
888,029	-15	-3,063
888,329	-22	-3,495
888,629	-15,5	-2,668
888,917	-3	-1,233
889,217	3,5	-0,052
889,511	4	0
889,799	-3	-1,42
890,087	-13	-2,86
890,393	-22	-3,492
890,681	-20	-2,988
890,969	-5	-1,547
891,257	1,5	-0,164
891,557	4	-0,002
891,851	-2	-1,111
892,139	-10	-2,551
892,451	-22	-3,483
892,739	-22	-3,237
893,027	-6,5	-1,793
893,315	0,5	-0,354
893,615	4	-0,004
893,903	-0,5	-0,834
894,191	-8	-2,303
894,485	-20,5	-3,444
894,785	-22	-3,499
895,073	-10	-2,155
895,373	-0,5	-0,654
895,661	4	-0,01
895,961	1,5	-0,575
896,249	-6	-2,015
896,543	-18,5	-3,378
896,843	-22	-3,499
897,131	-12,5	-2,397
897,419	-1,5	-0,958
897,707	4	-0,026
898,013	3,5	-0,269
898,301	-4	-1,712
898,589	-15,5	-3,152
898,889	-22	-3,497
899,189	-15,5	-2,676
899,477	-3	-1,236
899,776	3,5	-0,052
900,076	4	-0,002
900,364	-3,5	-1,446
900,652	-13	-2,886
900,952	-22	-3,492
901,253	-18	-2,871
901,54	-4,5	-1,43
901,828	2,5	-0,114
902,116	4	-0,001
902,416	-2,5	-1,185
902,71	-11	-2,655
902,998	-22	-3,482
903,286	-22	-3,321
903,586	-6,5	-1,813
903,874	0,5	-0,373
904,174	4	-0,004
904,462	0	-0,798
904,762	-7,5	-2,298
905,05	-21	-3,444
905,338	-22	-3,499
905,626	-9,5	-2,124
905,938	0	-0,564
906,226	4	-0,007
906,52	1,5	-0,62
906,808	-6,5	-2,06
907,12	-19,5	-3,419
907,408	-22	-3,499
907,696	-12	-2,338
907,984	-1,5	-0,893
908,284	4	-0,018
908,572	3,5	-0,278
908,86	-4	-1,78
909,172	-16,5	-3,267
909,46	-22	-3,497
909,748	-15	-2,647
910,036	-3	-1,202
910,336	3,5	-0,047
910,624	4	0
910,912	-3	-1,427
911,2	-12,5	-2,867
911,5	-22	-3,492
911,788	-19,5	-3,005
912,076	-5	-1,565
912,364	1,5	-0,173
912,652	4	-0,002
912,952	-2,5	-1,116
913,246	-9,5	-2,591
913,552	-22	-3,483
913,85	-21,5	-3,192
914,146	-6	-1,72
914,434	1	-0,281
914,722	4	-0,003
915,01	-1,5	-0,885
915,316	-9	-2,415
915,604	-21	-3,461
915,892	-22	-3,499
916,18	-9,5	-2,061
916,48	0	-0,561
916,773	4	-0,007
917,062	1,5	-0,586
917,374	-6,5	-2,146
917,661	-19,5	-3,41
917,949	-22	-3,499
918,237	-12,5	-2,35
1174,831	0	-0,567
1175,119	4	-0,008
1175,419	1,5	-0,605
1175,707	-5,5	-2,045
1175,995	-18	-3,378
1176,283	-21,5	-3,499
1176,583	-12,5	-2,392
1176,871	-1,5	-0,953
1177,171	4	-0,021
1177,471	4	-0,272
1177,771	-4,5	-1,774
1178,065	-15	-3,24
1178,353	-21,5	-3,497
1178,641	-16,5	-2,745
1178,941	-3	-1,245
1179,228	3,5	-0,064
1179,516	4	-0,001
1179,804	-2,5	-1,311
1180,099	-11	-2,84
1180,398	-21	-3,49
1180,686	-21,5	-3,166
1180,974	-6	-1,729
1181,263	0,5	-0,286
1181,562	4	-0,003
1181,85	-1,5	-0,946
1182,138	-8	-2,386
1182,444	-20,5	-3,468
1182,738	-21,5	-3,456
1183,026	-9	-1,991
1183,314	0	-0,551
1183,602	4	-0,008
1183,89	1	-0,603
1184,202	-6	-2,163
1184,49	-19	-3,415
1184,778	-21,5	-3,499
1185,084	-11	-2,217
1185,372	-0,5	-0,783
1185,66	4	-0,015
1185,948	3	-0,366
1186,236	-4,5	-1,806
1186,548	-17	-3,32
1186,836	-21,5	-3,498
1187,124	-15	-2,619
1187,436	-2	-1,058
1187,724	3,5	-0,036
1188,012	4	-0,037
1188,3	-3	-1,499
1188,589	-13	-2,939
1188,888	-21	-3,493
1189,176	-19,5	-2,991
1189,464	-5	-1,55
1189,752	2	-0,166
1190,052	4	-0,002
1190,346	-1,5	-1,112
1190,634	-9	-2,552
1190,922	-20,5	-3,474
1191,216	-21	-3,456
1191,504	-9,5	-1,989
1191,792	0	-0,549
1192,08	3,5	-0,008
1192,374	1	-0,646
1192,674	-6	-2,145
1192,968	-19,5	-3,418
1193,256	-21,5	-3,499
1193,544	-12	-2,354
1193,844	-1,5	-0,854
1194,132	4	-0,019
1194,42	4	-0,268
1194,708	-4	-1,711
1194,996	-14,5	-3,151
1195,29	-21	-3,496
1195,578	-16	-2,714
1195,866	-3,5	-1,274
1196,154	3	-0,07
1196,454	4	0
1196,741	-3	-1,39
1197,029	-12	-2,83
1197,329	-21	-3,491
1197,63	-19	-2,97
1197,918	-5	-1,525
1198,205	1,5	-0,152
1198,505	4	-0,001
1198,805	-2	-1,242
1199,093	-10,5	-2,682
1199,381	-21	-3,483
1199,669	-21	-3,253
1199,975	-6	-1,719
1200,263	0,5	-0,281
1200,551	4	-0,003
1200,839	-0,5	-0,853
1201,139	-7,5	-2,354
1201,427	-20	-3,461
1201,727	-21	-3,475
1202,015	-8,5	-2,009
1202,321	0	-0,479
1202,609	4	-0,006
1202,897	1,5	-0,617
1203,197	-6	-2,117
1203,497	-18,5	-3,418
1203,785	-21	-3,499
1204,073	-12	-2,368
1204,361	-1,5	-0,923
1204,661	4	-0,019
1204,949	4	-0,269
1205,237	-4	-1,711
1205,525	-13,5	-3,151
1205,825	-21	-3,496
1206,125	-16	-2,703
1206,413	-3	-1,259
1206,701	3	-0,068
1206,989	4	-0,001
1207,289	-2,5	-1,337
1207,583	-10,5	-2,807
1207,871	-21	-3,488
1208,159	-21	-3,162
1208,447	-5,5	-1,66
1208,747	1,5	-0,233
1209,035	4	-0,003
1209,323	-0,5	-0,896
1209,611	-7,5	-2,336
1209,905	-20	-3,454
1210,205	-21	-3,5
1210,493	-9,5	-2,13
1210,781	0	-0,694
1211,093	4	-0,008
1211,381	2,5	-0,563
1211,669	-5,5	-2,003
1211,957	-17	-3,361
1212,257	-21	-3,499
1212,545	-14	-2,518
1212,833	-2	-1,073
1213,121	3,5	-0,038
1213,409	4	-0,073
1213,703	-3	-1,562
1213,991	-13,5	-3,002
1214,284	-21	-3,494
1214,573	-20,5	-2,932
1214,872	-4	-1,431
1215,173	2,5	-0,094
1215,46	4	-0,001
1215,749	-2,5	-1,261
1216,048	-11	-2,761
1216,348	-21	-3,489
1216,636	-21	-3,14
1216,924	-6	-1,698
1217,242	1,5	-0,164
1217,53	4	-0,002
1217,818	-1,5	-1,057
1218,118	-9	-2,557
1218,418	-21	-3,479
1218,706	-21	-3,373
1218,994	-7,5	-1,923
1219,282	0	-0,423
1219,594	4	-0,004
1219,888	-0,5	-0,838
1220,176	-7	-2,278
1220,47	-20	-3,446
1220,77	-21	-3,5
1221,064	-9,5	-2,067
1221,352	0	-0,628
1221,64	4	-0,01
1221,928	2,5	-0,485
1222,228	-5,5	-1,986
1222,516	-17	-3,352
1222,804	-21	-3,498
1223,104	-13,5	-2,458
1223,404	-2	-0,958
1223,692	3,5	-0,027
1223,992	4	-0,227
1224,28	-4	-1,736
1224,58	-14,5	-3,176
1224,88	-21	-3,497
1225,168	-15	-2,712
1225,456	-3	-1,272
1225,756	3,5	-0,058
1226,044	4	-0,001
1226,332	-2,5	-1,33
1226,632	-11	-2,829
1226,932	-21	-3,491
1227,22	-20,5	-3,07
1227,508	-5	-1,629
1227,808	2	-0,175
1228,108	4	-0,002
1228,396	-1,5	-1,138
1228,684	-9	-2,578
1228,972	-20,5	-3,476
1229,284	-21	-3,332
1229,572	-7	-1,884
1229,86	0	-0,444
1230,148	4	-0,006
1230,448	0	-0,771
1230,736	-6	-2,211
1231,023	-19	-3,426
1231,312	-21	-3,499
1231,617	-10,5	-2,223
1231,906	-0,5	-0,778
1232,193	4	-0,015
1232,481	4	-0,339
1232,769	-4,5	-1,78
1233,069	-15,5	-3,268
1233,357	-21	-3,497
1233,646	-14,5	-2,657
1233,945	-2	-1,157
1234,245	3,5	-0,04
1234,533	4	-0,012
1234,821	-3	-1,471
1235,109	-12	-2,911
1235,421	-21	-3,494
1235,709	-18	-2,944
1235,997	-4,5	-1,504
1236,285	2,5	-0,145
1236,573	4	-0,002
1236,873	-1,5	-1,103
1237,161	-7,5	-2,543
1237,449	-20,5	-3,473
1237,737	-21	-3,378
1238,049	-6	-1,807
1238,337	0,5	-0,357
1238,625	4	-0,004
1238,925	0	-0,789
1239,225	-7,5	-2,284
1239,513	-19,5	-3,442
1239,801	-21	-3,499
1240,095	-10,5	-2,23
1240,395	-0,5	-0,725
1240,683	4	-0,013
1240,977	3	-0,49
1241,265	-5	-1,931
1241,587	-18,5	-3,4
1241,877	-21	-3,499
1242,171	-11	-2,351
1242,471	-0,5	-0,851
1242,759	4	-0,019
1243,053	4	-0,326
1243,365	-5	-1,882
1243,653	-16	-3,3
1243,953	-21	-3,498
1244,241	-13,5	-2,507
1244,529	-1,5	-1,067
1244,817	4	-0,037
1245,117	4	-0,116
1245,405	-3,5	-1,567
1245,693	-13	-3,007
1245,993	-21	-3,494
1246,293	-17	-2,853
1246,581	-4	-1,418
1246,869	2,5	-0,11
1247,157	4	-0,001
1247,445	-2	-1,16
1247,751	-10	-2,691
3137,319	0	-0,843
3137,607	-3	-2,283
3137,895	-8,5	-3,441
3138,183	-10	-3,499
3138,471	-2,5	-2,189
3138,765	1	-0,749
3139,052	4	-0,014
3139,341	3	-0,415
3139,629	-1,5	-1,856
3139,917	-6	-3,279
3140,21	-9,5	-3,497
3140,498	-4,5	-2,633
3140,787	0	-1,193
3141,074	3,5	-0,055
3141,362	4	0
3141,65	-0,5	-1,413
3141,944	-4,5	-2,883
3142,232	-9,5	-3,49
3142,52	-8,5	-3,065
3142,808	-0,5	-1,624
3143,096	2	-0,208
3143,384	4	-0,002
3143,708	-0,5	-1,16
3143,996	-3	-2,6
3144,284	-9,5	-3,478
3144,572	-9,5	-3,338
3144,86	-1	-1,891
3145,154	1,5	-0,421
3145,442	4	-0,005
3145,73	0,5	-0,696
3146,018	-2	-2,136
3146,306	-8,5	-3,407
3146,618	-9,5	-3,499
3146,906	-2,5	-2,304
3147,194	0,5	-0,864
3147,482	4	-0,02
3147,77	4	-0,228
3148,076	-1,5	-1,762
3148,364	-5,5	-3,201
3148,652	-10	-3,496
3148,94	-6	-2,768
3149,228	0	-1,328
3149,516	2,5	-0,083
3149,81	4	-0,001
3150,098	-0,5	-1,274
3150,392	-3,5	-2,714
3150,68	-9,5	-3,485
3150,968	-9,5	-3,286
3151,256	-1,5	-1,842
3151,55	1	-0,373
3151,838	4	-0,004
3152,126	0	-0,815
3152,414	-2,5	-2,265
3152,702	-8	-3,438
3152,99	-9,5	-3,499
3153,29	-3	-2,225
3153,578	0	-0,785
3153,866	4	-0,015
3154,154	4	-0,325
3154,442	-1,5	-1,766
3154,73	-5,5	-3,206
3155,024	-10	-3,497
3155,312	-5,5	-2,743
3155,6	0	-1,298
3155,888	3	-0,076
3156,176	4	-0,001
3156,476	-0,5	-1,4
3156,764	-4	-2,84
3157,052	-9,5	-3,489
3157,34	-9,5	-3,109
3157,627	-1	-1,668
3157,915	1,5	-0,239
3158,209	4	-0,002
3158,497	0	-0,952
3158,785	-3	-2,392
3159,073	-9	-3,458
3159,361	-10	-3,5
3159,656	-2,5	-2,092
3159,943	0,5	-0,652
3160,231	3,5	-0,01
3160,519	3	-0,438
3160,807	-1,5	-1,878
3161,095	-6	-3,294
3161,395	-9,5	-3,498
3161,683	-4	-2,564
3161,971	0	-1,123
3162,259	3	-0,044
3162,547	4	0
3162,835	-1	-1,428
3163,129	-4,5	-2,898
3163,417	-9,5	-3,491
3163,705	-8,5	-3,092
3163,993	-1	-1,651
3164,281	1,5	-0,226
3164,569	4	-0,003
3164,863	0	-0,936
3165,151	-2,5	-2,376
3165,439	-8,5	-3,456
3165,727	-9,5	-3,5
3166,015	-2,5	-2,142
3166,315	0,5	-0,643
3166,603	4	-0,01
3166,891	2,5	-0,505
3167,179	-2	-1,946
3167,467	-6,5	-3,333
3167,755	-10	-3,498
3168,049	-4	-2,558
3168,337	0	-1,118
3168,625	3,5	-0,043
3168,913	3,5	-0,007
3169,201	-1	-1,461
3169,489	-4,5	-2,901
3169,783	-9,5	-3,492
3170,071	-8,5	-3,038
3170,359	-1	-1,598
3170,647	1,5	-0,192
3170,935	4	-0,002
3171,229	0	-1,048
3171,517	-3	-2,488
3171,805	-9	-3,468
3172,093	-9,5	-3,499
3172,381	-2,5	-2,057
3172,669	1	-0,617
3172,963	4	-0,009
3173,131	4	0