File: Cycling_tests/_20perc/_1gap/entrada/_5.txt
Time (s)	Load (N)	Displacement (mm)
0	0	-0,05
2,198	0,5	-0,294
4,453	-4	-0,848
6,734	-9,5	-1,525
9,031	-15,5	-2,244
11,263	-20	-2,814
13,627	-31	-3,464
15,859	-31,5	-3,492
18,186	-31,5	-3,499
20,887	-6	-0,925
23,107	-3	-0,531
25,423	1	-0,052
27,644	2	-0,02
29,876	2	-0,006
32,172	2,5	0
34,428	1	-0,394
36,69	-4	-0,934
39,06	-12,5	-2,077
41,321	-16,5	-2,562
43,607	-25	-3,271
46,223	-30	-3,285
48,461	-25	-2,809
50,669	-21	-2,504
52,918	-16,5	-2,054
55,162	-12	-1,573
57,414	-7	-1,124
59,71	-1,5	-0,405
62,074	3	-0,013
64,366	2,5	-0,001
66,628	2,5	-0,078
68,89	-0,5	-0,658
71,079	-1,5	-0,849
73,329	-6,5	-1,473
75,525	-8	-1,584
77,739	-10,5	-2,042
79,929	-12,5	-2,178
82,149	-16,5	-2,696
84,375	-21	-3,178
86,631	-24,5	-3,42
88,791	-27	-3,444
90,963	-27,5	-3,457
93,146	-27,5	-3,474
95,36	-28,5	-3,491
97,58	-28,5	-3,497
100,166	-14,5	-2,069
102,326	-14,5	-1,961
104,546	-10	-1,598
106,729	-7,5	-1,368
108,938	-5,5	-1,072
111,103	-4	-0,948
113,365	0	-0,321
115,585	2	-0,093
117,769	2,5	-0,044
119,995	3	-0,01
122,274	3	-0,001
124,452	3	0
126,63	3	-0,071
128,868	0	-0,619
131,082	-3,5	-0,966
133,29	-5,5	-1,34
135,504	-8,5	-1,784
137,712	-11,5	-2,18
139,998	-18,5	-3,009
142,218	-23	-3,384
144,426	-25,5	-3,473
146,627	-27	-3,492
148,793	-27	-3,496
150,959	-27	-3,498
153,155	-27	-3,499
155,681	-12	-1,967
157,846	-11	-1,823
160,036	-9,5	-1,613
162,185	-8	-1,489
164,344	-7	-1,397
166,534	-4,5	-1,038
168,742	-1,5	-0,635
170,932	-0,5	-0,455
173,11	0	-0,286
175,276	0	-0,222
177,549	2,5	-0,034
179,703	3	-0,028
181,929	3	-0,006
184,113	3,5	-0,003
186,711	-6,5	-1,639
188,889	-7,5	-1,826
191,12	-10,5	-2,254
193,332	-13	-2,531
195,464	-13	-2,467
197,63	-13,5	-2,65
199,802	-15	-2,674
201,998	-17	-2,986
243,798	0	-0,248
246,312	3,5	-0,001
248,423	3,5	-0,001
250,559	3,5	-0,001
252,678	3,5	-0,002
254,819	3,5	-0,001
256,973	3,5	-0,001
259,145	3,5	0
261,323	3	-0,083
263,458	3	-0,146
265,589	3,5	-0,156
267,724	3,5	-0,234
269,896	2,5	-0,425
272,157	-2	-0,912
274,348	-4	-1,135
276,886	-19	-3,216
279,016	-19	-3,15
281,211	-22	-3,358
283,342	-21	-3,344
285,465	-18,5	-3,182
287,589	-18,5	-3,126
289,713	-17,5	-3,046
291,855	-16,5	-2,984
293,997	-17	-3,039
296,11	-16,5	-2,928
298,216	-14	-2,789
300,339	-15	-2,836
302,438	-13	-2,681
304,52	-10,5	-2,342
307,01	-25	-3,481
309,182	-25	-3,489
311,294	-25	-3,484
313,405	-24,5	-3,474
315,535	-24,5	-3,473
317,629	-24	-3,448
319,729	-23	-3,411
321,883	-23	-3,438
324,025	-23	-3,428
326,191	-24,5	-3,467
328,309	-24,5	-3,466
330,427	-24	-3,457
332,532	-23	-3,437
334,662	-22,5	-3,408
336,774	-21,5	-3,384
338,928	-22,5	-3,392
341,046	-22	-3,378
343,158	-20	-3,311
345,324	-21,5	-3,396
347,444	-21	-3,384
349,553	-20	-3,308
351,671	-19,5	-3,25
353,825	-21	-3,334
355,931	-19,5	-3,252
358,037	-16,5	-3,007
360,131	-15	-2,838
362,255	-14	-2,762
364,343	-11	-2,484
366,466	-11	-2,376
368,56	-8	-2,09
370,655	-6,5	-1,852
372,712	-5	-1,494
374,825	-4,5	-1,363
376,912	-3,5	-1,184
379,006	-2,5	-0,97
381,076	0	-0,644
383,163	1,5	-0,472
385,239	3,5	-0,2
387,339	3,5	-0,002
389,409	3,5	-0,001
391,503	3,5	-0,002
393,598	3,5	-0,003
395,691	3,5	-0,007
436,032	2,5	-0,068
438,402	3,5	-0,002
440,49	3,5	-0,004
442,584	3,5	-0,01
444,703	3,5	-0,014
446,826	3,5	-0,022
448,908	2,5	-0,053
450,996	1,5	-0,105
453,06	0,5	-0,295
455,129	-0,5	-0,544
457,223	-1	-0,708
459,329	-2	-0,87
461,399	-3,5	-1,195
463,511	-5	-1,337
465,605	-6	-1,514
467,669	-9,5	-1,893
469,751	-12	-2,142
471,833	-15	-2,408
473,945	-16,5	-2,587
476,003	-21,5	-2,918
478,09	-24	-3,216
480,166	-24	-3,5
482,266	-24	-3,499
484,318	-24	-3,497
486,388	-24	-3,493
488,481	-24	-3,488
490,551	-23,5	-3,466
492,633	-22,5	-3,445
494,703	-20	-3,344
496,773	-15,5	-3,036
498,897	-15	-2,901
500,967	-11,5	-2,522
503,067	-9,5	-2,298
505,191	-8,5	-2,217
507,26	-6,5	-1,88
509,354	-5	-1,617
511,412	-3	-1,216
513,509	-2,5	-0,998
515,595	0	-0,726
517,682	2	-0,469
519,716	3,5	0
521,768	3,5	-0,002
523,855	3,5	-0,004
525,949	3,5	-0,01
527,995	3	-0,045
530,083	2	-0,106
532,147	0	-0,378
534,223	-1	-0,711
536,287	-2,5	-0,993
538,351	-5	-1,406
540,415	-7	-1,762
542,461	-12	-2,238
544,512	-18	-2,702
546,564	-23	-3,15
548,628	-23,5	-3,49
550,68	-24	-3,498
552,726	-23,5	-3,492
554,778	-22,5	-3,461
556,836	-20	-3,349
558,9	-14,5	-3,008
560,951	-11	-2,571
563,027	-9	-2,265
565,068	-5,5	-1,737
567,149	-4	-1,465
569,231	-3	-1,19
571,289	0	-0,766
573,365	2,5	-0,422
575,429	3,5	-0,003
577,487	3,5	-0,002
579,545	3,5	-0,008
581,578	3,5	-0,042
583,648	1,5	-0,157
623,276	-19,5	-3,346
625,322	-15	-2,955
627,398	-11,5	-2,602
629,462	-8,5	-2,272
631,513	-6	-1,856
633,565	-4	-1,393
635,606	-1,5	-0,821
637,681	2	-0,544
639,745	3,5	-0,124
641,779	3,5	-0,001
643,843	3,5	-0,006
645,901	3,5	-0,024
647,94	2	-0,13
650,004	0	-0,389
652,063	-1	-0,752
654,102	-3,5	-1,228
656,142	-7	-1,734
658,2	-11	-2,168
660,24	-15,5	-2,617
662,268	-23	-3,263
664,332	-23	-3,5
666,377	-23	-3,497
668,412	-22	-3,48
670,445	-21	-3,396
672,461	-13,5	-2,955
674,903	-23	-3,495
676,973	-22,5	-3,489
679,013	-22	-3,458
681,088	-20	-3,388
683,129	-15	-3,001
685,168	-11	-2,591
687,214	-7,5	-2,233
689,278	-5	-1,747
691,312	-3,5	-1,316
693,352	-1	-0,83
695,386	3	-0,306
697,432	3,5	-0,001
699,489	3,5	-0,003
701,541	3,5	-0,011
703,581	3	-0,057
705,627	0,5	-0,284
707,685	-0,5	-0,7
709,731	-3	-1,182
711,771	-5,5	-1,562
713,829	-8,5	-1,914
715,881	-13,5	-2,363
717,926	-18	-2,803
720,002	-21,5	-3,042
722,048	-23	-3,5
724,088	-23	-3,498
726,116	-23	-3,491
728,168	-22,5	-3,471
730,208	-19,5	-3,378
732,266	-15	-3,092
734,299	-10,5	-2,598
773,225	-22,5	-3,496
775,277	-22,5	-3,486
777,323	-21	-3,444
779,351	-16	-3,224
781,385	-11	-2,689
783,437	-8,5	-2,385
785,477	-5,5	-1,954
787,516	-3	-1,349
789,568	-2	-0,976
791,602	2,5	-0,476
793,624	3,5	0
795,658	4	-0,002
797,674	3,5	-0,014
799,69	2,5	-0,095
801,718	0	-0,433
803,751	-1,5	-0,868
805,785	-3,5	-1,228
807,837	-6	-1,714
809,871	-11	-2,16
811,899	-15	-2,622
813,933	-21	-3,015
815,973	-22,5	-3,421
818,037	-22,5	-3,499
820,053	-22,5	-3,495
822,074	-22	-3,477
824,132	-20	-3,428
826,142	-15	-3,06
828,182	-10,5	-2,611
830,216	-7,5	-2,164
832,274	-5	-1,878
834,302	-3	-1,375
836,33	-0,5	-0,846
838,363	2,5	-0,425
840,385	3,5	-0,001
842,407	3,5	-0,003
844,435	3,5	-0,016
846,457	3	-0,081
848,473	-0,5	-0,598
850,501	-3	-1,175
852,535	-6,5	-1,744
854,569	-12,5	-2,298
856,614	-16,5	-2,775
858,654	-22,5	-3,361
860,694	-22,5	-3,499
862,716	-22,5	-3,493
864,738	-21,5	-3,464
866,772	-17	-3,315
869,196	-22,5	-3,498
871,212	-22	-3,488
873,239	-20	-3,414
875,273	-15	-3,089
877,313	-11	-2,65
879,353	-6	-2,041
881,375	-3,5	-1,422
883,391	0	-0,79
885,431	3,5	-0,208
887,465	4	-0,001
889,481	4	-0,01
891,502	3	-0,081
893,53	0	-0,438
895,564	-2,5	-1,088
897,598	-6	-1,704
899,62	-12,5	-2,387
901,654	-19	-2,962
903,67	-22,5	-3,5
905,692	-22,5	-3,497
907,72	-22	-3,477
909,759	-19	-3,372
911,781	-12,5	-2,852
913,815	-8	-2,304
915,855	-5	-1,829
917,883	-3	-1,267
919,923	0	-0,749
921,951	3,5	-0,13
923,985	3,5	-0,002
926,018	3,5	-0,009
928,04	3	-0,058
930,08	0,5	-0,288
932,096	-1,5	-0,958
934,124	-5	-1,546
936,17	-8	-1,986
938,18	-15,5	-2,675
940,202	-22	-3,175
942,242	-22	-3,5
944,275	-22	-3,497
946,315	-22	-3,482
948,349	-20	-3,415
950,377	-14,5	-3,068
952,393	-9,5	-2,493
954,439	-6	-2,026
956,473	-4	-1,538
958,489	-1	-0,798
960,529	3	-0,273
962,55	3,5	-0,001
964,566	3,5	-0,014
966,588	3	-0,08
968,616	0	-0,543
970,65	-2,5	-1,208
972,678	-8	-1,94
974,73	-12,5	-2,451
976,746	-21	-3,176
978,761	-22	-3,499
980,772	-22	-3,494
982,799	-21	-3,461
984,845	-18	-3,331
986,867	-12	-2,78
988,895	-8	-2,297
990,917	-4,5	-1,742
992,951	-3	-1,296
994,955	0	-0,677
996,982	3,5	-0,126
999,011	3,5	-0,001
1001,038	3,5	-0,006
1003,066	3,5	-0,029
1005,106	2	-0,124
1007,134	0	-0,52
1009,162	-2	-1,056
1011,178	-5,5	-1,683
1013,211	-10,5	-2,248
1015,239	-16,5	-2,735
1017,255	-22	-3,365
1019,277	-22	-3,499
1021,299	-22	-3,494
1023,327	-21,5	-3,479
1025,367	-20	-3,415
1027,395	-14,5	-3,058
1029,405	-8,5	-2,374
1031,42	-4,5	-1,758
1033,454	-3	-1,279
1035,495	-1	-0,852
1037,51	3,5	-0,278
1039,532	4	-0,001
1041,56	4	-0,004
1043,594	3,5	-0,017
1045,598	2	-0,118
1047,644	0,5	-0,371
1049,69	-0,5	-0,81
1051,693	-4,5	-1,497
1053,721	-7	-1,968
1055,743	-13	-2,528
1057,759	-20,5	-3,087
1059,781	-21,5	-3,5
1061,785	-21,5	-3,495
1063,807	-19,5	-3,468
1065,834	-17,5	-3,339
1067,85	-11,5	-2,772
1069,896	-8	-2,372
1071,906	-4,5	-1,711
1073,934	-2,5	-1,191
1075,956	1	-0,593
1077,966	3,5	0
1079,982	3,5	-0,003
1081,998	3,5	-0,026
1084,013	1	-0,226
1086,035	-1	-0,802
1088,063	-3,5	-1,395
1090,061	-8,5	-2,118
1092,089	-15	-2,675
1094,123	-21	-3,21
1096,133	-21,5	-3,499
1098,149	-21,5	-3,493
1100,171	-20,5	-3,46
1102,21	-15	-3,318
1104,22	-11	-2,669
1106,248	-6,5	-2,14
1108,276	-4	-1,598
1110,304	-2	-1,074
1112,344	0,5	-0,576
1114,366	3,5	0
1116,418	3,5	-0,002
1118,439	3,5	-0,014
1120,455	3	-0,083
1122,477	0,5	-0,484
1124,487	-2	-1,153
1126,497	-5,5	-1,772
1128,519	-10,5	-2,322
1130,535	-18	-2,875
1132,587	-21,5	-3,284
1134,609	-21,5	-3,499
1136,637	-21,5	-3,495
1138,652	-21	-3,474
1140,668	-17	-3,318
1142,69	-11	-2,723
1144,718	-7	-2,171
1146,734	-4	-1,629
1148,756	-2	-1,031
1150,772	1,5	-0,501
1152,8	3,5	-0,001
1154,833	4	-0,003
1156,855	3,5	-0,022
1158,871	2	-0,136
1160,893	-0,5	-0,675
1162,915	-3,5	-1,261
1164,919	-5,5	-1,736
1166,935	-10,5	-2,3
1168,957	-16,5	-2,818
1170,979	-21	-3,323
1173,018	-21,5	-3,499
1175,034	-21	-3,496
1177,074	-21	-3,48
1179,102	-19	-3,428
1181,118	-14	-3,129
1183,14	-9,5	-2,606
1185,552	-20,5	-3,479
1187,586	-18	-3,412
1189,602	-13	-3,012
1191,641	-9	-2,594
1193,657	-5,5	-2,047
1195,685	-3,5	-1,57
1197,707	-1,5	-1,133
1199,717	1,5	-0,56
1201,739	4	-0,012
1203,767	4	-0,002
1205,776	3,5	-0,014
1207,786	2,5	-0,078
1209,826	0,5	-0,263
1211,842	-0,5	-0,785
1213,876	-2,5	-1,223
1215,91	-5	-1,632
1217,914	-10	-2,249
1219,942	-15,5	-2,716
1221,97	-21	-3,233
1223,979	-21	-3,499
1226,001	-21	-3,494
1228,023	-20	-3,466
1230,027	-15	-3,26
1232,043	-9,5	-2,686
1234,047	-5,5	-2,052
1236,075	-3,5	-1,563
1238,115	-2	-1,094
1240,124	2	-0,58
1242,146	3,5	0
1244,156	4	-0,002
1246,172	4	-0,019
1248,182	1,5	-0,134
1250,192	0	-0,599
1252,214	-2	-1,159
1254,23	-5,5	-1,738
1256,252	-10	-2,262
1258,262	-17,5	-2,865
1260,32	-21	-3,196
1262,341	-21	-3,499
1264,363	-21	-3,495
1266,379	-20,5	-3,477
1268,401	-18	-3,403
1270,423	-12,5	-2,991
1272,433	-7,5	-2,349
1274,443	-4,5	-1,792
1276,458	-2,5	-1,251
1278,486	0	-0,732
1280,502	4	-0,201
1282,518	4	-0,001
1284,552	4	-0,004
1286,568	3,5	-0,027
1288,59	1,5	-0,159
1290,6	-0,5	-0,759
1292,616	-3	-1,271
1294,619	-7	-1,909
1296,641	-11,5	-2,338
1298,687	-15	-2,719
1300,691	-21	-3,384
1302,713	-21,5	-3,498
1304,723	-21	-3,493
1306,757	-20,5	-3,472
1308,773	-17,5	-3,367
1310,802	-12	-2,935
1312,822	-7	-2,306
1314,826	-4	-1,655
1316,842	-0,5	-1,012
1318,87	1,5	-0,535
1320,88	3,5	0
1322,908	3,5	-0,003
1324,93	3,5	-0,018
1326,928	2,5	-0,107
1328,943	0	-0,55
1330,971	-1,5	-1,022
1332,987	-4	-1,494
1335,003	-7,5	-2,049
1337,313	-2	-1,126
1339,341	-5	-1,629
1341,357	-9	-2,145
1343,379	-15	-2,689
1345,395	-21	-3,263
1347,434	-21	-3,499
1349,45	-21	-3,495
1351,466	-20,5	-3,474
1353,488	-17	-3,346
1355,504	-11	-2,796
1357,526	-6	-2,182
1359,536	-3	-1,482
1361,552	-1	-0,946
1363,585	3	-0,434
1365,589	4	-0,001
1367,611	4	-0,005
1369,651	3,5	-0,021
1371,661	2,5	-0,135
1373,677	0	-0,64
1375,693	-3	-1,208
1377,721	-5	-1,718
1379,725	-9,5	-2,262
1381,728	-16,5	-2,874
1383,744	-20,5	-3,457
1385,76	-20,5	-3,498
1387,773	-20,5	-3,486
1389,78	-19	-3,424
1391,808	-13	-3,082
1393,818	-7,5	-2,441
1395,858	-5	-1,986
1397,88	-3	-1,469
1399,883	-0,5	-0,808
1401,899	3,5	-0,253
1403,915	4	-0,001
1405,931	4	-0,005
1407,941	3,5	-0,038
1409,975	1,5	-0,18
1412,003	0	-0,638
1414,007	-2,5	-1,276
1416,022	-6	-1,826
1418,038	-11	-2,42
1420,096	-15,5	-2,736
1422,106	-21	-3,305
1424,128	-20,5	-3,499
1426,156	-20,5	-3,495
1428,16	-19,5	-3,466
1430,182	-16	-3,315
1432,198	-11	-2,804
1434,207	-6	-2,184
1436,235	-3,5	-1,606
1438,239	-1,5	-1,004
1440,267	3	-0,426
1442,277	4	-0,001
1444,305	4	-0,002
1446,327	4	-0,014
1448,337	3	-0,087
1450,352	0	-0,551
1452,374	-1,5	-1,079
1454,396	-4,5	-1,624
1456,412	-10	-2,256
1458,422	-16	-2,877
1460,45	-20,5	-3,428
1462,46	-20,5	-3,498
1464,476	-20,5	-3,49
1466,492	-19	-3,446
1468,513	-14	-3,203
1470,523	-9	-2,622
1472,557	-6	-2,163
1474,579	-4	-1,731
1476,589	-2	-1,106
1478,623	1	-0,604
1480,621	4	0
1482,643	4	-0,003
1484,659	4	-0,021
1486,681	2,5	-0,137
1488,678	0	-0,624
1490,712	-2,5	-1,224
1492,74	-5,5	-1,808
1494,756	-10,5	-2,386
1496,772	-17	-2,903
1498,782	-20,5	-3,5
1500,798	-20,5	-3,497
1502,814	-20	-3,484
1504,865	-19	-3,442
1506,875	-14	-3,116
1508,891	-8	-2,499
1510,907	-4,5	-1,887
1512,935	-2,5	-1,293
1514,945	1	-0,615
1516,961	4	0
1518,983	4	-0,003
1521,01	3,5	-0,017
1523,038	3	-0,083
1525,054	0	-0,534
1527,064	-2	-1,159
1529,08	-5	-1,755
1531,114	-9	-2,244
1533,136	-15,5	-2,843
1535,14	-20,5	-3,476
1537,18	-20,5	-3,498
1539,183	-20	-3,486
1541,211	-19	-3,429
1543,221	-13	-3,027
1545,243	-8	-2,488
1547,253	-4,5	-1,889
1549,269	-2,5	-1,277
1551,267	1	-0,624
1553,283	3,5	-0,102
1555,293	3,5	-0,002
1557,302	3,5	-0,015
1559,312	2,5	-0,099
1561,334	0	-0,506
1563,35	-1,5	-1,112
1565,373	-4,5	-1,656
1567,376	-9,5	-2,312
1569,392	-19,5	-2,939
1571,408	-20,5	-3,5
1573,447	-20,5	-3,498
1575,481	-20	-3,49
1577,503	-19	-3,441
1579,519	-13,5	-3,108
1581,553	-9	-2,576
1583,557	-4,5	-1,889
1585,609	-2,5	-1,49
1587,625	-0,5	-0,846
1589,659	3,5	-0,243
1591,674	3,5	-0,001
1593,702	3,5	-0,008
1595,73	3,5	-0,038
1597,758	1,5	-0,194
1599,756	-0,5	-0,916
1601,778	-3,5	-1,498
1603,776	-9	-2,247
1605,816	-15	-2,803
1607,838	-20	-3,355
1609,866	-20,5	-3,499
1611,875	-20	-3,492
1613,903	-18,5	-3,462
1615,901	-13,5	-3,142
1617,93	-9	-2,537
1619,939	-5	-1,961
1621,967	-3	-1,35
1623,983	0	-0,728
1625,998	3,5	-0,132
1628,014	3,5	-0,002
1630,024	3,5	-0,017
1632,028	2,5	-0,137
1634,044	0	-0,661
1636,072	-2	-1,218
1638,088	-5	-1,829
1640,11	-10,5	-2,41
1642,12	-18,5	-3,048
1644,141	-20,5	-3,499
1646,169	-20,5	-3,496
1648,185	-19,5	-3,476
1650,213	-17,5	-3,391
1652,223	-12,5	-2,955
1654,251	-8	-2,494
1656,249	-4,5	-1,851
1658,271	-2	-1,265
1660,269	1	-0,642
1662,285	3,5	-0,026
1664,288	4	-0,002
1666,304	3,5	-0,019
1668,314	2	-0,126
1670,336	0	-0,498
1672,352	-1,5	-1,068
1674,392	-4	-1,528
1676,408	-8,5	-2,138
1678,411	-16	-2,854
1680,439	-20	-3,332
1682,443	-20	-3,498
1684,465	-20	-3,49
1686,475	-18,5	-3,445
1688,491	-13,5	-3,173
1690,489	-7	-2,413
1692,529	-4,5	-1,917
1694,539	-2	-1,28
1696,554	0	-0,727
1698,558	3,5	-0,002
1700,58	4	-0,002
1702,578	3,5	-0,023
1704,576	1	-0,198
1706,598	-1	-0,784
1708,614	-3,5	-1,363
1710,63	-8,5	-2,034
1712,646	-14	-2,693
1714,661	-20	-3,333
1716,701	-20	-3,499
1718,723	-20	-3,494
1720,733	-19	-3,453
1722,743	-13	-3,111
1724,741	-7,5	-2,43
1726,763	-4,5	-1,875
1728,773	-1,5	-1,191
1730,771	3	-0,462
1732,792	3,5	-0,001
1734,808	3,5	-0,005
1736,836	3,5	-0,028
1738,84	1	-0,229
1740,868	0	-0,741
1742,872	-3	-1,391
1744,894	-7,5	-2,015
1746,916	-14	-2,644
1748,925	-20	-3,236
1750,935	-20	-3,498
1752,951	-20	-3,493
1754,967	-19	-3,455
1757,001	-15	-3,327
1759,029	-10	-2,838
1761,051	-6	-2,311
1763,067	-3,5	-1,682
1765,083	-1,5	-1,099
1767,099	2,5	-0,486
1769,138	4	0
1771,154	4	-0,002
1773,17	4	-0,016
1775,18	2,5	-0,119
1777,196	0	-0,648
1779,2	-2,5	-1,357
1781,21	-7,5	-2,034
1783,232	-13	-2,564
1785,253	-19,5	-3,201
1787,269	-20	-3,499
1789,291	-20	-3,494
1791,295	-19,5	-3,459
1793,305	-13,5	-3,177
1795,339	-9	-2,703
1797,349	-5	-2,077
1799,365	-2,5	-1,402
1801,374	-0,5	-0,804
1803,396	3,5	-0,246
1805,406	4	-0,001
1807,404	4	-0,01
1809,426	3	-0,061
1811,43	0	-0,52
1813,452	-2,5	-1,144
1815,462	-5,5	-1,823
1817,466	-11	-2,445
1819,482	-19,5	-3,117
1821,479	-20	-3,499
1823,501	-19,5	-3,494
1825,517	-19	-3,457
1827,521	-14	-3,219
1829,549	-8,5	-2,653
1831,553	-5	-2,025
1833,551	-3	-1,464
1835,572	-1	-0,869
1837,576	3,5	-0,291
1839,598	3,5	-0,001
1841,608	4	-0,008
1843,624	3,5	-0,053
1845,64	0,5	-0,325
1847,638	-1	-1
1849,678	-3	-1,497
1851,694	-7	-2,066
1853,703	-13	-2,617
1855,719	-19,5	-3,216
1857,735	-20	-3,499
1859,739	-20	-3,493
1861,743	-19	-3,45
1863,765	-13,5	-3,196
1865,769	-7,5	-2,54
1867,773	-4,5	-1,881
1869,783	-2	-1,255
1871,78	1,5	-0,553
1873,802	3,5	-0,006
1875,8	4	-0,003
1877,81	3,5	-0,023
1879,826	1,5	-0,169
1881,824	-0,5	-0,863
1883,84	-3	-1,463
1885,844	-8	-2,134
1887,841	-16	-2,878
1889,857	-19,5	-3,5
1891,855	-19,5	-3,496
1893,859	-19	-3,472
1895,869	-14,5	-3,253
1897,873	-8	-2,535
1899,871	-4	-1,818
1901,887	-1,5	-1,19
1903,909	1	-0,582
1905,936	4	-0,006
1907,946	4	-0,003
1909,962	4	-0,023
1911,96	1,5	-0,217
1913,958	-0,5	-0,872
1915,968	-3	-1,566
1917,978	-8,5	-2,202
1919,982	-16	-2,869
1922,004	-20	-3,5
1924,019	-19,5	-3,498
1926,023	-19,5	-3,476
1928,033	-15	-3,311
1930,043	-9	-2,695
1932,047	-5,5	-2,126
1934,075	-3	-1,6
1936,091	-1	-0,972
1938,113	3,5	-0,305
1940,123	4	-0,001
1942,138	4	-0,009
1944,142	3	-0,06
1946,146	0,5	-0,5
1948,15	-1,5	-1,178
1950,154	-5	-1,817
1952,164	-10,5	-2,506
1954,168	-18,5	-3,13
1956,166	-20	-3,499
1958,193	-19,5	-3,493
1960,197	-18,5	-3,443
1962,195	-12	-3,051
1964,211	-7	-2,414
1966,209	-3,5	-1,696
1968,243	-2	-1,148
1970,259	2	-0,526
1972,263	4	-0,001
1974,273	4	-0,005
1976,27	3,5	-0,043
1978,274	1	-0,268
1980,296	-1	-0,888
1982,295	-3,5	-1,553
1984,292	-9,5	-2,323
1986,296	-17,5	-3
1988,294	-19,5	-3,499
1990,298	-19,5	-3,492
1992,302	-18,5	-3,434
1994,305	-12	-2,985
1996,309	-6,5	-2,308
1998,307	-3	-1,645
2000,317	-0,5	-0,848
2002,333	3,5	-0,234
2004,343	3,5	-0,001
2006,347	4	-0,012
2008,351	3	-0,079
2010,349	0	-0,549
2012,364	-1	-1,072
2014,38	-3,5	-1,669
2016,39	-9,5	-2,343
2018,394	-17,5	-2,999
2020,392	-19,5	-3,499
2022,426	-19,5	-3,497
2024,436	-19	-3,474
2026,434	-15	-3,325
2028,437	-9	-2,746
2030,448	-5	-2,021
2032,451	-2	-1,338
2034,455	1	-0,614
2036,483	4	-0,036
2038,499	4	-0,002
2040,503	3,5	-0,018
2042,531	2,5	-0,111
2044,535	0	-0,723
2046,532	-3	-1,461
2048,542	-7,5	-2,166
2050,546	-15	-2,892
2052,55	-19,5	-3,5
2054,548	-19,5	-3,496
2056,546	-18,5	-3,458
2058,55	-12,5	-3,111
2060,566	-7,5	-2,478
2062,564	-3,5	-1,798
2064,567	-2	-1,153
2066,577	2	-0,447
2068,581	4	-0,001
2070,585	4	-0,01
2072,601	3,5	-0,059
2074,605	0,5	-0,436
2076,603	-1,5	-1,168
2078,625	-4,5	-1,778
2080,628	-10,5	-2,49
2082,626	-19,5	-3,259
2084,63	-19,5	-3,498
2086,634	-19,5	-3,488
2088,632	-16	-3,382
2090,642	-10,5	-2,849
2092,64	-5,5	-2,116
2094,644	-3	-1,465
2096,642	0	-0,7
2098,657	4	-0,18
2100,661	4	-0,002
2102,665	4	-0,014
2104,675	3	-0,092
2106,679	0	-0,613
2108,677	-2	-1,368
2110,681	-6,5	-2,097
2112,679	-18	-2,836
2114,683	-19,5	-3,5
2116,68	-19,5	-3,497
2118,69	-19	-3,476
2120,7	-15	-3,305
2122,698	-8	-2,555
2124,714	-4,5	-1,943
2126,736	-2,5	-1,32
2128,752	0,5	-0,671
2130,75	3,5	0
2132,753	4	-0,004
2134,77	3,5	-0,022
2136,773	2	-0,17
2138,777	0	-0,76
2140,781	-2,5	-1,426
2142,815	-5,5	-1,948
2144,831	-11,5	-2,527
2146,841	-19	-3,202
2148,839	-19,5	-3,499
2150,849	-19,5	-3,49
2152,858	-16,5	-3,432
2154,88	-12	-3,12
2156,884	-6	-2,39
2158,894	-3,5	-1,775
2160,892	-1	-1,052
2162,89	4	-0,339
2164,894	4	-0,001
2166,898	4	-0,012
2168,895	2,5	-0,096
2170,906	0	-0,578
2172,921	-2	-1,239
2174,925	-6	-1,908
2176,947	-12,5	-2,548
2178,951	-19,5	-3,294
2180,949	-19,5	-3,498
2182,971	-19,5	-3,49
2184,975	-16,5	-3,41
2186,979	-10	-2,871
2188,988	-5	-2,209
2190,986	-2,5	-1,524
2192,99	-0,5	-0,831
2195	4	-0,154
2197,01	4	-0,002
2199,026	4	-0,016
2201,042	2	-0,122
2203,04	0	-0,789
2205,044	-3	-1,407
2207,047	-7,5	-2,068
2209,045	-15,5	-2,854
2211,043	-19,5	-3,499
2213,053	-19,5	-3,496
2215,075	-18,5	-3,472
2217,085	-13,5	-3,275
2219,095	-8,5	-2,708
2221,093	-4,5	-2,065
2223,096	-2,5	-1,478
2225,1	-0,5	-0,886
2227,128	2,5	-0,462
2229,156	3,5	-0,002
2231,16	4	-0,002
2233,164	3,5	-0,024
2235,18	1,5	-0,14
2237,19	0	-0,655
2239,193	-2,5	-1,316
2241,239	-5,5	-1,799
2243,243	-11	-2,465
2245,241	-19	-3,124
2247,245	-19,5	-3,499
2249,255	-19,5	-3,493
2251,253	-18	-3,446
2253,263	-11,5	-3,106
2255,267	-6,5	-2,382
2257,288	-3,5	-1,774
2259,298	-1	-1,096
2261,296	2,5	-0,495
2263,294	4	-0,001
2265,316	4	-0,006
2267,32	3,5	-0,055
2269,324	1	-0,378
2271,364	-0,5	-0,896
2273,367	-3	-1,535
2275,365	-8,5	-2,289
2277,363	-16,5	-3,024
2279,379	-19,5	-3,5
2281,383	-19	-3,496
2283,381	-18	-3,47
2285,403	-15	-3,344
2287,401	-8,5	-2,738
2289,399	-4,5	-2,038
2291,396	-2	-1,369
2293,412	0	-0,752
2295,416	4	-0,064
2297,414	4	-0,002
2299,424	4	-0,016
2301,434	2	-0,115
2303,438	0	-0,664
2305,442	-2	-1,258
2307,446	-5	-1,857
2309,449	-10	-2,449
2311,453	-18	-3,058
2313,457	-19	-3,499
2315,461	-19	-3,493
2317,459	-17	-3,432
2319,475	-11,5	-3,094
2321,473	-6	-2,393
2323,507	-4	-1,972
2325,528	-2,5	-1,449
2327,526	0	-0,7
2329,536	4	-0,031
2331,54	4	-0,003
2333,544	3,5	-0,026
2335,548	1,5	-0,193
2337,558	-0,5	-0,776
2339,556	-3	-1,434
2341,56	-6,5	-2,122
2343,569	-13	-2,705
2345,567	-19	-3,452
2347,571	-19	-3,498
2349,575	-19	-3,485
2351,573	-15,5	-3,383
2353,571	-9	-2,778
2355,575	-4	-2,098
2357,573	-2	-1,372
2359,577	1	-0,68
2361,58	4	-0,012
2363,584	4	-0,003
2365,589	3,5	-0,036
2367,586	0,5	-0,343
2369,62	-0,5	-0,88
2371,624	-3,5	-1,609
2373,628	-8	-2,239
2375,626	-15	-2,874
2377,642	-19,5	-3,5
2379,645	-19	-3,496
2381,643	-18,5	-3,468
2383,665	-13,5	-3,259
2385,687	-8,5	-2,709
2387,703	-5	-2,086
2389,701	-2	-1,337
2391,699	0,5	-0,61
2393,697	4	0
2395,7	4	-0,005
2397,704	3,5	-0,032
2399,702	1	-0,299
2401,7	-0,5	-0,968
2403,74	-2,5	-1,46
2405,756	-6	-2,119
2407,784	-13,5	-2,676
2409,788	-18,5	-3,422
2411,798	-18,5	-3,498
2413,813	-18,5	-3,49
2415,817	-16	-3,393
2417,815	-10,5	-2,913
2419,843	-6	-2,388
2421,853	-2,5	-1,673
2423,851	-0,5	-0,933
2425,855	4	-0,211
2427,871	4	-0,002
2429,869	4	-0,015
2431,866	2	-0,143
2433,864	-0,5	-0,86
2435,874	-2,5	-1,486
2437,89	-6,5	-2,09
2439,888	-14	-2,783
2441,892	-18,5	-3,496
2443,908	-18,5	-3,497
2445,906	-18	-3,477
2447,91	-13,5	-3,296
2449,925	-8,5	-2,724
2451,923	-4	-1,922
2453,921	-1,5	-1,211
2455,925	2	-0,491
2457,947	4	-0,001
2459,945	3,5	-0,007
2461,949	3	-0,056
2463,953	0,5	-0,425
2465,95	-1,5	-1,105
2467,96	-4	-1,736
2469,964	-10	-2,465
2471,974	-16,5	-3,086
2473,972	-18,5	-3,499
2475,972	-18,5	-3,494
2477,974	-17	-3,44
2480,002	-12,5	-3,225
2482,012	-8	-2,64
2484,028	-4,5	-2,071
2486,025	-2	-1,381
2488,023	0	-0,758
2490,027	3,5	-0,182
2492,031	4	-0,002
2494,029	3,5	-0,012
2496,033	3,5	-0,068
2498,043	0,5	-0,404
2500,041	-1	-1,117
2502,038	-4	-1,771
2504,042	-9,5	-2,431
2506,058	-16	-3,033
2508,062	-18	-3,499
2510,066	-18	-3,495
2512,064	-17,5	-3,462
2514,08	-13,5	-3,281
2516,084	-7,5	-2,628
2518,081	-3,5	-1,894
2520,085	-1,5	-1,234
2522,095	0	-0,64
2524,093	3,5	0
2526,091	4	-0,004
2528,101	3,5	-0,03
2530,099	1	-0,326
2532,097	-0,5	-1,018
2534,095	-3	-1,654
2536,098	-8	-2,32
2538,102	-15,5	-2,983
2540,112	-18	-3,5
2542,152	-18	-3,497
2544,162	-17,5	-3,482
2546,16	-14,5	-3,364
2548,17	-9,5	-2,878
2550,168	-5	-2,231
2552,184	-3	-1,692
2554,181	-1	-1,028
2556,179	3,5	-0,342
2558,177	4	-0,001
2560,181	4	-0,01
2562,185	3	-0,058
2564,189	0,5	-0,429
2566,223	-0,5	-0,971
2568,227	-3	-1,669
2570,225	-7	-2,291
2572,222	-15	-2,95
2574,25	-18	-3,5
2576,26	-18	-3,497
2578,264	-17,5	-3,476
2580,268	-14	-3,326
2582,272	-8	-2,729
2584,27	-4	-1,996
2586,274	-2	-1,393
2588,278	0	-0,753
2590,281	4	-0,094
2592,291	4	-0,002
2594,295	4	-0,011
2596,317	3	-0,064
2598,333	0,5	-0,475
2600,331	-0,5	-1,101
2602,335	-3,5	-1,773
2604,345	-7,5	-2,372
2606,342	-14,5	-3,03
2608,346	-17,5	-3,499
2610,35	-18	-3,495
2612,36	-16	-3,466
2614,358	-12	-3,236
2616,356	-7	-2,608
2618,36	-4	-1,988
2620,37	-2	-1,278
2622,368	1,5	-0,528
2624,372	4	-0,001
2626,369	4	-0,005
2628,391	3,5	-0,03
2630,395	1,5	-0,222
2632,393	0	-0,934
2634,427	-2	-1,45
2636,437	-5,5	-2,091
2638,441	-11,5	-2,731
2640,463	-17,5	-3,274
2642,466	-17,5	-3,498
2644,464	-17,5	-3,49
2646,462	-15	-3,437
2648,478	-9	-2,989
2650,476	-5	-2,297
2652,474	-2,5	-1,617
2654,472	-0,5	-0,948
2656,476	4	-0,269
2658,48	4	-0,001
2660,489	4	-0,011
2662,493	3	-0,08
2664,503	0,5	-0,484
2666,507	-1	-1,156
2668,505	-3,5	-1,81
2670,503	-9	-2,49
2672,513	-16,5	-3,095
2674,517	-17	-3,499
2676,515	-17	-3,492
2678,518	-15	-3,432
2680,528	-10,5	-3,127
2682,532	-5,5	-2,419
2684,536	-2,5	-1,758
2686,534	-1	-1,088
2688,55	3	-0,493
2690,578	4	-0,006
2692,576	4	-0,003
2694,573	3,5	-0,03
2696,577	1,5	-0,221
2698,581	0	-0,886
2700,597	-2	-1,466
2702,595	-6	-2,129
2704,599	-11	-2,738
2706,603	-16,5	-3,468
2708,613	-16,5	-3,497
2710,622	-16	-3,485
2712,632	-13,5	-3,398
2714,648	-8	-2,888
2716,67	-4,5	-2,306
2718,686	-2,5	-1,69
2720,69	-0,5	-0,992
2722,694	3,5	-0,351
2724,692	4	-0,001
2726,702	4	-0,01
2728,705	3	-0,075
2730,71	0	-0,597
2732,713	-1	-1,253
2734,723	-4	-1,946
2736,727	-9,5	-2,623
2738,725	-15,5	-3,366
2740,723	-15,5	-3,498
2742,733	-15,5	-3,487
2744,731	-12	-3,367
2746,728	-7	-2,773
2748,726	-3,5	-2,114
2750,73	-1,5	-1,459
2752,728	0,5	-0,757
2754,726	4	-0,101
2756,73	4	-0,002
2758,74	4	-0,014
2760,738	2	-0,131
2762,736	0	-0,674
2764,733	-1	-1,343
2766,749	-3,5	-1,859
2768,753	-7,5	-2,467
2770,751	-15	-3,12
2772,755	-15,5	-3,499
2774,789	-15,5	-3,496
2776,799	-15	-3,475
2778,797	-11,5	-3,289
2780,819	-7	-2,756
2782,816	-4	-2,112
2784,82	-2	-1,463
2786,824	0	-0,818
2788,828	4	-0,159
2790,85	4	-0,002
2792,854	4	-0,01
2794,858	2,5	-0,093
2796,862	0,5	-0,538
2798,86	-1	-1,259
2800,875	-3	-1,85
2802,885	-8,5	-2,481
2804,889	-15	-3,084
2806,887	-15,5	-3,499
2808,903	-15,5	-3,496
2810,907	-15	-3,475
2812,917	-11	-3,295
2814,915	-6	-2,646
2816,918	-3	-1,969
2818,922	-1,5	-1,324
2820,926	1	-0,716
2822,924	4	-0,011
2824,928	4	-0,002
2826,932	4	-0,018
2828,954	2,5	-0,122
2830,958	0	-0,599
2832,955	-1	-1,194
2834,965	-3,5	-1,767
2836,963	-8,5	-2,426
2838,961	-14	-3,027
2840,959	-15	-3,499
2842,963	-15	-3,495
2845,003	-15	-3,481
2847,007	-12	-3,381
2849,023	-9	-3,071
2851,038	-4,5	-2,4
2853,042	-2,5	-1,755
2855,04	-1	-1,079
2857,062	1,5	-0,615
2859,06	4	0
2861,058	4	-0,004
2863,074	3,5	-0,024
2865,09	3	-0,104
2867,1	0,5	-0,581
2869,109	-0,5	-1,168
2871,113	-3	-1,787
2873,117	-6,5	-2,427
2875,115	-14	-3,092
2877,113	-15	-3,499
2879,117	-15	-3,495
2881,121	-14	-3,459
2883,119	-9,5	-3,232
2885,123	-5	-2,601
2887,12	-3	-1,98
2889,148	-2	-1,524
2891,152	0	-0,901
2893,156	4	-0,285
2895,154	4	-0,001
2897,164	4	-0,006
2899,162	3	-0,049
2901,16	1,5	-0,354
2903,158	0	-1,003
2905,161	-1,5	-1,627
2907,159	-5	-2,306
2909,157	-10,5	-2,908
2911,161	-13	-3,497
2913,171	-13	-3,497
2915,175	-13	-3,481
2917,173	-10	-3,338
2919,177	-5,5	-2,722
2921,186	-3	-2,118
2923,191	-1,5	-1,511
2925,188	-0,5	-0,903
2927,192	4	-0,252
2929,19	4	-0,002
2931,2	4	-0,01
2933,216	3	-0,061
2935,232	1	-0,446
2937,236	0	-1,176
2939,239	-2	-1,832
2941,249	-5,5	-2,5
2943,253	-12	-3,12
2945,269	-12,5	-3,499
2947,267	-12,5	-3,495
2949,271	-12	-3,464
2951,275	-8	-3,193
2953,279	-4	-2,552
2955,282	-2,5	-1,871
2957,28	-1	-1,259
2959,278	1,5	-0,6
2961,282	4	0
2963,304	4	-0,002
2965,302	3,5	-0,017
2967,3	2,5	-0,143
2969,304	0,5	-0,628
2971,302	0	-1,261
2973,306	-1,5	-1,872
2975,309	-6	-2,566
2977,313	-12	-3,176
2979,311	-12,5	-3,498
2981,309	-12,5	-3,489
2983,313	-10,5	-3,413
2985,311	-6	-2,994
2987,321	-3,5	-2,406
2989,319	-2	-1,758
2991,316	-0,5	-1,068
2993,32	2	-0,481
2995,33	4	-0,001
2997,328	4	-0,004
2999,326	3,5	-0,04
3001,33	1,5	-0,254
3003,334	0	-0,941
3005,332	-1	-1,626
3007,366	-3	-2,184
3009,369	-9	-2,925
3011,373	-12	-3,5
3013,383	-12	-3,496
3015,387	-11,5	-3,471
3017,391	-7,5	-3,228
3019,431	-4,5	-2,723
3021,435	-2,5	-2,03
3023,433	-1	-1,346
3025,431	1,5	-0,606
3027,428	3,5	0
3029,438	4	-0,004
3031,436	3,5	-0,053
3033,434	0,5	-0,535
3035,444	0	-1,188
3037,442	-1,5	-1,91
3039,44	-5,5	-2,618
3041,438	-12	-3,269
3043,441	-12	-3,498
3045,452	-12	-3,488
3047,467	-10	-3,413
3049,465	-5	-2,846
3051,463	-2,5	-2,188
3053,473	-1,5	-1,6
3055,471	0	-0,861
3057,475	3	-0,262
3059,473	4	-0,002
3061,482	4	-0,011
3063,48	3	-0,092
3065,478	1	-0,549
3067,482	0	-1,23
3069,492	-1,5	-1,782
3071,496	-4	-2,48
3073,5	-10,5	-3,153
3075,498	-11,5	-3,499
3077,514	-11	-3,492
3079,517	-10,5	-3,44
3081,527	-5,5	-3,003
3083,525	-3	-2,296
3085,535	-1,5	-1,66
3087,533	-0,5	-0,968
3089,537	3,5	-0,295
3091,535	4	-0,002
3093,551	3,5	-0,019
3095,555	2	-0,182
3097,552	0,5	-0,976
3099,556	-0,5	-1,61
3101,554	-3	-2,364
3103,57	-9	-2,96
3105,568	-11	-3,499
3107,566	-11	-3,495
3109,57	-10,5	-3,46
3111,58	-7	-3,247
3113,577	-3,5	-2,466
3115,581	-1,5	-1,79
3117,585	-0,5	-1,076
3119,613	1	-0,556
3121,629	4	0
3123,627	4	-0,005
3125,649	3,5	-0,033
3127,653	1,5	-0,256
3129,669	0	-0,879
3131,672	-0,5	-1,584
3133,682	-3,5	-2,33
3135,68	-10	-3,048
3137,684	-11	-3,499
3139,694	-11	-3,494
3141,704	-10,5	-3,472
3143,702	-6,5	-3,275
3145,7	-3	-2,551
3147,698	-1,5	-1,85
3149,701	-0,5	-1,119
3151,705	3	-0,464
3153,703	4	-0,001
3155,725	4	-0,008
3157,723	2,5	-0,078
3159,721	0,5	-0,63
3161,719	0	-1,35
3163,747	-1,5	-1,945
3165,751	-5	-2,606
3167,754	-11	-3,278
3169,782	-10,5	-3,499
3171,786	-10,5	-3,492
3173,79	-9	-3,419
3175,788	-5	-2,949
3177,834	-3	-2,471
3179,838	-1,5	-1,774
3181,842	-0,5	-1,134
3183,839	4	-0,313
3185,849	4	-0,002
3187,847	4	-0,017
3189,845	1,5	-0,188
3191,843	0	-0,89
3193,853	-0,5	-1,574
3195,857	-2,5	-2,155
3197,861	-7,5	-2,827
3199,864	-10,5	-3,5
3201,875	-11	-3,497
3203,872	-10,5	-3,472
3205,18	3,5	-0,001