File: Cycling_tests/_newS/_2G20/entrada/_1.txt
Time (s)	Load (N)	Displacement (mm)
0	-0,28	-0,022
2,157	0,88	-0,168
4,311	1,24	-0,275
6,447	1,28	-0,297
8,583	1,38	-0,285
10,719	1,14	-0,386
12,854	1,52	-0,36
14,99	2,22	-0,138
17,126	2,38	-0,002
19,268	2,5	0
21,404	2,62	-0,001
23,54	2,7	-0,001
25,676	2,8	-0,001
27,812	2,88	-0,001
29,954	2,92	0
32,089	2,98	0
34,225	3,06	0
36,361	3,14	-0,001
38,503	3,22	-0,001
40,645	3,28	-0,001
42,787	3,36	-0,001
44,923	3,42	-0,002
47,064	3,46	-0,002
49,2	3,52	-0,002
51,336	3,58	-0,002
53,472	3,64	-0,002
55,608	3,64	-0,001
57,75	3,66	-0,001
59,892	3,72	-0,001
62,04	3,74	-0,001
64,188	3,74	0
66,329	3,78	0
68,471	3,84	0
70,619	3,86	0
72,755	3,9	-0,001
74,891	3,96	-0,001
77,027	4,04	-0,002
79,169	4,06	-0,002
81,305	4,1	-0,002
83,44	4,12	-0,002
85,576	4,14	-0,002
87,718	4,18	-0,002
89,854	4,2	-0,002
91,99	4,22	-0,002
94,132	4,26	-0,002
96,268	4,28	-0,002
98,41	4,3	-0,001
100,545	4,34	-0,002
102,687	4,36	-0,001
104,823	4,36	-0,002
106,965	4,38	-0,002
109,101	4,42	-0,002
111,243	4,46	-0,002
113,379	4,48	-0,003
115,526	4,52	-0,003
117,662	4,54	-0,007
119,798	4,54	-0,009
121,94	4,58	-0,008
124,076	4,6	-0,007
126,218	4,62	-0,006
128,366	4,64	-0,004
130,502	4,66	-0,004
132,638	4,68	-0,004
134,78	4,7	-0,003
136,921	4,72	-0,004
139,063	4,72	-0,003
141,205	4,76	-0,003
143,353	4,78	-0,004
145,489	4,78	-0,006
147,625	4,8	-0,008
149,761	4,78	-0,012
151,903	4,82	-0,01
154,044	4,76	-0,015
156,18	4,56	-0,03
158,322	4,14	-0,047
160,458	3,28	-0,085
162,606	3,34	-0,087
164,742	3,04	-0,103
166,884	2,18	-0,142
169,026	3,14	-0,105
171,161	2,3	-0,154
173,297	2,1	-0,162
175,439	3	-0,127
177,581	3,82	-0,073
179,717	3,96	-0,07
181,865	3,92	-0,071
184,013	4,16	-0,071
186,155	3,72	-0,084
188,29	3,66	-0,108
190,432	3,74	-0,094
192,568	3,92	-0,085
194,704	3,44	-0,084
196,84	4,34	-0,058
198,976	4,06	-0,069
201,112	3,86	-0,097
203,26	3,76	-0,088
205,401	3,52	-0,091
207,543	3,62	-0,075
209,679	3,36	-0,112
211,827	3,76	-0,1
213,969	4,42	-0,07
216,111	2,34	-0,196
218,259	2,26	-0,168
220,4	2,46	-0,139
222,542	2,82	-0,141
224,678	2,22	-0,181
226,832	3,6	-0,102
228,974	3,16	-0,115
231,116	2,74	-0,159
233,252	2,06	-0,198
235,388	1,58	-0,25
237,53	1,74	-0,27
239,677	0,02	-0,436
241,813	-0,26	-0,453
243,955	-0,28	-0,499
246,109	0	-0,462
248,245	-0,66	-0,559
250,393	-1,08	-0,62
252,535	-2,7	-0,789
254,677	-3,54	-0,871
256,818	-4,3	-0,995
258,966	-5,22	-1,134
261,103	-6,38	-1,245
263,244	-6,72	-1,354
265,392	-7,76	-1,402
267,528	-10,5	-1,573
269,67	-9,28	-1,614
271,818	-11,42	-1,675
273,953	-10,68	-1,755
276,095	-11,08	-1,765
278,237	-12,16	-1,846
280,385	-11,42	-1,879
282,539	-12,2	-1,864
284,681	-13,22	-1,94
286,823	-13,12	-2,07
288,965	-15,28	-2,243
291,106	-16,94	-2,331
293,26	-18,96	-2,434
295,408	-18,06	-2,496
297,55	-19,96	-2,643
299,698	-21,54	-2,695
301,84	-21,92	-2,804
303,988	-22,04	-2,846
306,13	-25,18	-3,061
308,272	-25,84	-3,254
310,419	-25,86	-3,301
312,561	-25,88	-3,5
314,703	-25,9	-3,5
316,851	-25,92	-3,499
318,987	-25,94	-3,499
321,129	-25,98	-3,498
323,277	-25,98	-3,498
325,424	-25,86	-3,498
327,566	-25,86	-3,497
329,714	-25,86	-3,497
331,868	-25,86	-3,496
334,016	-25,8	-3,495
336,158	-25,8	-3,494
338,312	-25,8	-3,494
340,454	-25,72	-3,492
342,59	-25,72	-3,49
344,737	-25,64	-3,49
346,879	-25,72	-3,489
349,021	-25,52	-3,48
351,157	-25,3	-3,472
353,305	-24,68	-3,461
355,453	-24,68	-3,454
357,601	-24,62	-3,446
359,755	-23,84	-3,443
361,902	-25,26	-3,47
364,05	-25,08	-3,47
366,198	-25,18	-3,461
368,352	-24,84	-3,458
370,5	-25	-3,46
372,648	-25,02	-3,46
374,796	-25,1	-3,458
376,944	-24,58	-3,452
379,091	-24,3	-3,442
381,239	-24,26	-3,436
383,381	-24	-3,422
385,529	-23,12	-3,415
387,683	-22,8	-3,397
389,831	-22,06	-3,399
391,985	-22,12	-3,363
394,133	-20,92	-3,337
396,28	-21,9	-3,326
398,428	-19,9	-3,232
400,576	-20,74	-3,274
402,73	-20,18	-3,246
404,872	-19,52	-3,224
407,016	-17,36	-3,048
409,162	-16,56	-2,868
411,31	-14,42	-2,725
413,452	-14,26	-2,67
415,611	-14,22	-2,693
417,759	-13,8	-2,62
419,907	-13,66	-2,599
422,055	-12,96	-2,455
424,197	-10	-2,256
426,333	-8,68	-2,002
428,475	-7,28	-1,866
430,622	-5,56	-1,745
432,77	-5,32	-1,691
434,912	-4,94	-1,572
437,06	-4,74	-1,537
439,214	-4,54	-1,517
441,362	-3,76	-1,492
443,51	-3,3	-1,408
445,652	-3,18	-1,331
447,794	-2,5	-1,212
449,941	-1,74	-1,202
452,089	-0,88	-1,181
454,237	-1,66	-1,162
456,385	-1,62	-1,226
458,533	-2,62	-1,248
460,681	-1,46	-1,168
462,829	-0,36	-1,156
464,977	0,04	-0,962
467,124	1,04	-0,915
469,272	0,94	-0,91
471,421	0,44	-0,943
473,568	0,08	-1,039
475,716	-0,48	-1,024
477,858	0,48	-0,947
480,012	0,5	-0,957
482,166	-0,28	-1,051
484,313	-0,32	-1,046
486,455	0,02	-1,033
488,597	-0,34	-1,02
490,757	-0,78	-1,118
492,899	-1,16	-1,132
495,053	-0,78	-1,067
497,201	1,42	-0,992
499,355	-0,92	-1,077
501,514	-1,12	-1,116
503,668	-1,34	-1,152
505,81	-1,26	-1,112
507,964	-0,7	-1,138
510,124	-1,58	-1,283
512,266	-2,34	-1,313
514,414	-2,74	-1,346
516,562	-1,9	-1,304
518,709	-3,08	-1,321
520,851	-3,12	-1,366
523,005	-2,74	-1,413
525,159	-4,46	-1,55
527,313	-5,48	-1,665
529,473	-5,96	-1,774
531,621	-6,54	-1,833
533,769	-6,9	-1,839
535,916	-6,64	-1,892
538,064	-7,08	-1,936
540,218	-7	-1,92
542,366	-7,46	-1,867
544,52	-6,44	-1,929
546,668	-8,36	-2,047
548,828	-7,2	-2,055
550,982	-8,26	-2,076
553,129	-9,04	-2,14
555,277	-9,82	-2,215
557,425	-10,42	-2,252
559,585	-10,98	-2,351
561,733	-10,84	-2,422
563,881	-10,94	-2,406
566,023	-11,44	-2,429
568,165	-11,78	-2,395
570,312	-9,42	-2,193
572,46	-8	-2,088
574,608	-8,58	-2,056
576,762	-6,7	-1,933
578,904	-6,12	-1,921
581,046	-6,52	-1,911
583,194	-7,06	-1,911
585,342	-5,7	-1,771
587,502	-5,34	-1,762
589,649	-5,8	-1,725
591,797	-4,48	-1,615
593,951	-4,62	-1,577
596,099	-3,4	-1,472
598,247	-3,34	-1,434
600,395	-2,98	-1,398
602,549	-2,26	-1,296
604,697	-1,32	-1,248
606,85	-1,34	-1,192
609,01	-0,84	-1,116
611,158	0,26	-1,016
613,3	-0,06	-1,094
615,46	-0,46	-1,154
617,608	-0,78	-1,092
619,762	-0,06	-1,037
621,916	0,54	-0,987
624,075	0,74	-0,985
626,229	0,26	-1,058
628,377	0,86	-0,957
630,525	1,16	-0,894
632,685	0,58	-0,923
634,839	1,86	-0,874
636,987	1,64	-0,854
639,129	2	-0,829
641,282	2,04	-0,795
643,43	3,02	-0,691
645,578	4,78	-0,58
647,744	3,92	-0,564
649,892	3	-0,698
652,058	3,88	-0,682
654,212	3,42	-0,633
656,36	3,8	-0,608
658,519	3,92	-0,552
660,673	5,34	-0,481
662,815	5,86	-0,426
664,963	5,38	-0,431
667,111	5,54	-0,442
669,265	5,44	-0,41
671,419	4,9	-0,478
673,561	4,8	-0,518
675,714	4,42	-0,565
677,862	3,88	-0,592
680,022	2,74	-0,674
682,176	3,08	-0,753
684,318	3,06	-0,697
686,466	2,12	-0,768
688,614	2,84	-0,768
690,768	1,46	-0,862
692,916	2,18	-0,868
695,069	1,7	-0,825
697,217	1,32	-0,878
699,371	0,9	-0,946
701,519	0,84	-0,921
703,661	1,3	-0,907
705,809	0,9	-0,924
707,957	0,86	-0,908
710,117	0,92	-0,948
712,276	-0,06	-1,02
714,424	-0,34	-1,106
716,572	-1,12	-1,212
718,72	-1,94	-1,268
720,874	-2,26	-1,399
723,016	-2,88	-1,353
725,164	-2,68	-1,397
727,306	-3,1	-1,431
729,453	-3,02	-1,468
731,607	-3,74	-1,563
733,761	-3,96	-1,621
735,903	-4,22	-1,586
738,051	-4,52	-1,677
740,193	-4,92	-1,595
742,353	-5,36	-1,682
744,507	-4,88	-1,713
746,66	-5,18	-1,675
748,808	-4,58	-1,666
750,968	-4,96	-1,737
753,104	-4,64	-1,741
755,258	-5,08	-1,703
757,412	-5,5	-1,749
759,572	-5,62	-1,81
761,726	-6,56	-1,968
763,873	-7,56	-1,964
766,027	-7,28	-2,042
768,181	-8,38	-2,1
770,335	-8,86	-2,167
772,477	-8,56	-2,095
774,625	-8,08	-2,101
776,773	-8,38	-2,06
778,927	-7,7	-2,076
781,08	-7,7	-2,074
783,234	-7,74	-2,105
785,376	-8,1	-2,087
787,53	-8,04	-2,074
789,678	-8,08	-2,071
791,826	-7,04	-2,018
793,98	-7,74	-2,022
796,128	-7,2	-2,027
798,275	-7,14	-1,98
800,423	-7,4	-2,013
802,577	-6,8	-1,969
804,713	-6,24	-1,825
806,861	-5,42	-1,805
809,009	-6,38	-1,816
811,157	-6,04	-1,854
813,311	-6,42	-1,927
815,477	-7,8	-2,056
817,618	-6,6	-1,946
819,772	-8,52	-2,105
821,926	-8,26	-2,204
824,068	-9,76	-2,24
826,222	-8,88	-2,253
828,376	-8,58	-2,232
830,524	-8,56	-2,195
832,666	-7,7	-2,236
834,819	-8,9	-2,297
836,973	-9,64	-2,281
839,127	-9,54	-2,268
841,275	-8,34	-2,316
843,423	-9,32	-2,297
845,577	-9,32	-2,327
847,737	-9,86	-2,308
849,903	-10,28	-2,42
852,05	-10,68	-2,362
854,192	-9,8	-2,312
856,34	-9,04	-2,318
858,494	-11,1	-2,451
860,648	-11,18	-2,47
862,79	-8,1	-2,376
864,944	-9,98	-2,419
867,092	-9,98	-2,307
869,245	-10,32	-2,339
871,399	-10,34	-2,364
873,547	-10,48	-2,349
875,707	-10,48	-2,398
877,855	-10,68	-2,416
879,997	-9,42	-2,342
882,151	-10,28	-2,337
884,293	-10,26	-2,383
886,44	-8,5	-2,239
888,588	-9,22	-2,219
890,742	-8,02	-2,223
892,884	-8,76	-2,152
895,044	-9,46	-2,255
897,186	-9,52	-2,23
899,346	-9,1	-2,206
901,494	-7,84	-2,164
903,647	-8,54	-2,158
905,801	-8,66	-2,268
907,955	-9,8	-2,32
910,109	-10,36	-2,4
912,257	-10,5	-2,512
914,405	-11,98	-2,545
916,553	-12,04	-2,62
918,701	-10,7	-2,698
920,848	-13,64	-2,749
923,002	-14,34	-2,849
925,156	-14,76	-2,9
927,316	-16,36	-3,015
929,458	-14,82	-3,137
931,612	-17,52	-3,186
933,76	-17,52	-3,266
935,914	-19,66	-3,298
938,067	-20,7	-3,357
940,215	-20,3	-3,382
942,375	-21,88	-3,412
944,529	-21,88	-3,41
946,677	-22,48	-3,438
948,831	-22,64	-3,438
950,985	-23,12	-3,457
953,145	-23,64	-3,472
955,287	-23,78	-3,482
957,44	-23,96	-3,486
959,6	-23,98	-3,49
961,754	-24	-3,491
963,908	-24,02	-3,493
966,062	-24,04	-3,494
968,21	-24,08	-3,496
970,358	-24,1	-3,496
972,506	-24,04	-3,498
974,665	-24,02	-3,498
976,819	-24,14	-3,498
978,973	-24,08	-3,498
981,133	-23,98	-3,498
983,293	-23,98	-3,499
985,435	-24,08	-3,499
987,595	-23,92	-3,499
989,743	-23,92	-3,499
991,902	-23,9	-3,499
994,062	-23,78	-3,5
996,21	-23,78	-3,5
998,358	-23,88	-3,445
1000,518	-23,72	-3,326
1002,678	-23,04	-3,135
1004,838	-21,7	-3,059
1006,992	-21,86	-2,97
1009,139	-19,66	-2,894
1011,287	-20,74	-2,909
1013,435	-20,1	-2,866
1015,589	-19,42	-2,792
1017,743	-18,78	-2,745
1019,891	-19,74	-2,84
1022,048	-20,06	-2,868
1024,187	-21,1	-2,983
1026,346	-21,8	-3,007
1028,494	-23,12	-3,054
1030,654	-22,8	-3,074
1032,802	-22,28	-3,051
1034,962	-19,96	-2,916
1037,104	-20,2	-2,902
1039,27	-21,1	-2,907
1041,418	-19,12	-2,849
1043,559	-19,9	-2,85
1045,713	-18,16	-2,783
1047,861	-17,8	-2,729
1050,015	-17,38	-2,693
1052,163	-16,78	-2,617
1054,317	-16,46	-2,592
1056,471	-17	-2,549
1058,619	-16,36	-2,486
1060,779	-14,4	-2,378
1062,926	-13,7	-2,308
1065,068	-13,76	-2,268
1067,228	-12,24	-2,154
1069,382	-10,96	-2,027
1071,53	-10,72	-1,899
1073,678	-9,36	-1,882
1075,826	-9,38	-1,87
1077,974	-8,56	-1,811
1080,121	-8,74	-1,763
1082,263	-8,7	-1,696
1084,411	-7,26	-1,665
1086,565	-7,34	-1,543
1088,713	-5,54	-1,457
1090,873	-4,56	-1,317
1093,027	-4,72	-1,216
1095,18	-3,24	-1,121
1097,328	-2,4	-0,999
1099,482	-1,36	-0,85
1101,63	-0,68	-0,762
1103,784	-0,32	-0,719
1105,926	-0,88	-0,742
1108,074	0,12	-0,71
1110,222	0,08	-0,646
1112,37	1,16	-0,607
1114,517	0,06	-0,681
1116,671	0,92	-0,624
1118,813	0,9	-0,594
1120,961	1,36	-0,466
1123,115	2,42	-0,398
1125,269	3,42	-0,267
1127,417	3,12	-0,243
1129,559	3,72	-0,211
1131,7	4,36	-0,165
1133,86	4,32	-0,154
1136,014	4,96	-0,111
1138,168	6,34	-0,062
1140,322	6,44	-0,041
1142,464	6,56	-0,04
1144,612	6,72	-0,033
1146,76	6,86	-0,025
1148,913	6,94	-0,021
1151,061	6,74	-0,024
1153,209	7	-0,017
1155,351	6,96	-0,018
1157,505	6,94	-0,017
1159,659	6,98	-0,014
1161,819	7,06	-0,012
1163,973	7,08	-0,01
1166,126	7,12	-0,009
1168,274	7,1	-0,008
1170,44	7,06	-0,006
1172,6	7,12	-0,005
1174,76	7,12	-0,004
1176,908	7,12	-0,004
1179,056	7,12	-0,003
1181,21	7,12	-0,004
1183,363	7,12	-0,004
1185,523	7,12	-0,004
1187,683	7,12	-0,003
1189,831	7,12	-0,003
1191,985	7,14	-0,003
1194,145	7,14	-0,003
1196,293	7,14	-0,002
1198,459	7,14	-0,002
1200,607	7,12	-0,002
1202,76	7,14	-0,002
1204,92	7,12	-0,001
1207,074	7,12	-0,001
1209,222	7,12	-0,001
1211,394	7,12	-0,001
1213,554	7,12	-0,001
1215,708	7,1	-0,001
1217,856	7,14	-0,001
1220,003	7,12	-0,001
1222,163	7,12	-0,001
1224,317	7,14	-0,001
1226,459	7,12	-0,001
1228,613	7,12	-0,001
1230,773	7,12	-0,001
1232,933	7,1	-0,001
1235,099	7,1	0
1237,24	7,12	0
1239,394	7,12	-0,001
1241,542	7,14	-0,001
1243,702	7,14	-0,001
1245,856	7,16	-0,001
1248,004	7,12	-0,001
1250,158	7,12	-0,001
1252,312	7,12	0
1254,459	7,12	-0,001
1256,619	7,14	-0,001
1258,767	7,12	-0,001
1260,927	7,12	-0,001
1263,075	7,14	-0,001
1265,223	7,14	-0,001
1267,389	7,12	-0,001
1269,537	7,14	-0,001
1271,69	7,16	-0,001
1273,838	7,16	-0,001
1275,992	7,16	-0,002
1278,146	7,16	-0,002
1280,3	7,16	-0,002
1282,442	7,16	-0,002
1284,59	7,16	-0,002
1286,744	7,16	-0,002
1288,891	7,18	-0,002
1291,039	7,16	-0,002
1293,193	7,16	-0,001
1295,347	7,16	-0,001
1297,501	7,16	-0,001
1299,655	7,16	-0,001
1301,797	7,16	-0,001
1303,951	7,14	0
1306,105	7,1	-0,131
1308,258	7,1	-0,168
1310,418	5,96	-0,381
1312,566	6,24	-0,445
1314,72	5,36	-0,472
1316,88	3,78	-0,666
1319,04	1,68	-0,892
1321,188	1,36	-1,02
1323,335	0,9	-1,068
1325,483	0,84	-1,08
1327,643	-0,9	-1,252
1329,785	-1	-1,354
1331,933	-0,6	-1,346
1334,087	-2,32	-1,52
1336,241	-2,96	-1,525
1338,401	-3,32	-1,617
1340,549	-4,24	-1,762
1342,702	-4,32	-1,792
1344,838	-4,98	-1,834
1346,986	-4,92	-1,893
1349,134	-5,1	-1,996
1351,276	-6,62	-2,082
1353,436	-7,38	-2,245
1355,596	-8,54	-2,358
1357,75	-8,7	-2,491
1359,897	-10,94	-2,682
1362,051	-11,4	-2,836
1364,205	-13,24	-2,988
1366,347	-13,86	-3,119
1368,501	-15,26	-3,288
1370,655	-17,5	-3,362
1372,797	-18,2	-3,387
1374,957	-19,3	-3,446
1377,104	-19,64	-3,462
1379,252	-19,68	-3,473
1381,4	-20	-3,479
1383,554	-20,14	-3,489
1385,714	-20,18	-3,492
1387,868	-20,18	-3,495
1390,022	-20,18	-3,496
1392,164	-20,16	-3,497
1394,323	-20,1	-3,498
1396,471	-20,04	-3,499
1398,637	-20	-3,498
1400,779	-19,96	-3,408
1402,939	-19,94	-3,348
1405,099	-18,18	-3,046
1407,259	-16,4	-2,867
1409,407	-17,22	-2,739
1411,56	-13,56	-2,591
1413,708	-12,64	-2,405
1415,856	-10,26	-2,286
1418,016	-8,22	-2,099
1420,164	-8,3	-2,039
1422,324	-7,2	-1,866
1424,472	-5,82	-1,802
1426,626	-5,4	-1,639
1428,779	-3,82	-1,49
1430,939	-3,36	-1,393
1433,081	-2,7	-1,373
1435,235	-3,32	-1,401
1437,383	-2,88	-1,332
1439,543	-2,3	-1,213
1441,697	-1,56	-1,176
1443,851	-1,24	-1,104
1445,999	-0,76	-1,024
1448,14	-0,62	-0,962
1450,3	0,5	-0,821
1452,454	1,02	-0,722
1454,614	1,62	-0,656
1456,762	1,82	-0,548
1458,916	2,52	-0,501
1461,064	2,78	-0,368
1463,212	4,1	-0,259
1465,353	4,9	-0,178
1467,519	5,5	-0,104
1469,667	6,26	-0,089
1471,827	6,4	-0,068
1473,975	6,54	-0,06
1476,129	6,62	-0,052
1478,277	6,88	-0,038
1480,43	6,98	-0,029
1482,584	7,06	-0,021
1484,726	7,18	-0,015
1486,874	7,24	-0,01
1489,028	7,26	-0,008
1491,182	7,26	-0,006
1493,336	7,26	-0,004
1495,484	7,26	-0,003
1497,632	7,26	-0,003
1499,779	7,26	-0,002
1501,939	7,24	-0,001
1504,081	7,26	-0,001
1506,241	7,24	-0,001
1508,389	7,24	-0,001
1510,537	7,24	-0,001
1512,685	7,22	-0,001
1514,845	7,2	0
1516,992	7,22	0
1519,146	7,2	-0,018
1521,306	7,18	-0,047
1523,46	7,18	-0,148
1525,608	7,16	-0,176
1527,75	7,18	-0,191
1529,898	7,16	-0,246
1532,046	7,2	-0,214
1534,193	6,78	-0,34
1536,335	7,18	-0,277
1538,489	6,94	-0,336
1540,637	6,74	-0,39
1542,791	6,52	-0,416
1544,939	6,52	-0,411
1547,093	5,64	-0,527
1549,235	5,94	-0,487
1551,388	4,44	-0,577
1553,53	4,72	-0,595
1555,69	3,86	-0,672
1557,85	2,66	-0,813
1560,004	2,08	-0,892
1562,164	1,48	-0,947
1564,306	1,92	-0,923
1566,454	2,08	-0,977
1568,607	1,84	-0,933
1570,755	2	-0,987
1572,921	0,78	-1,057
1575,069	0,4	-1,116
1577,217	1,12	-1,085
1579,359	0,4	-1,172
1581,513	0,42	-1,192
1583,661	0,04	-1,13
1585,814	0,34	-1,192
1587,968	-0,92	-1,334
1590,122	-1,26	-1,408
1592,276	-1,28	-1,433
1594,442	-2,84	-1,588
1596,596	-2,26	-1,608
1598,744	-3,36	-1,678
1600,886	-3,12	-1,723
1603,033	-3,34	-1,735
1605,181	-3,86	-1,81
1607,335	-4	-1,877
1609,483	-4,8	-1,974
1611,631	-4,9	-1,996
1613,791	-4,74	-2,052
1615,945	-5,42	-2,072
1618,093	-5,48	-2,093
1620,235	-5,16	-2,102
1622,388	-5,74	-2,117
1624,548	-5,88	-2,183
1626,702	-6,92	-2,283
1628,844	-6,6	-2,285
1630,998	-7,24	-2,326
1633,146	-6,06	-2,216
1635,306	-6,42	-2,224
1637,454	-6,08	-2,262
1639,607	-6,26	-2,313
1641,761	-6,14	-2,222
1643,915	-5,64	-2,262
1646,069	-6,26	-2,277
1648,217	-8,06	-2,47
1650,365	-8,26	-2,513
1652,525	-8,46	-2,569
1654,679	-9,02	-2,594
1656,832	-8,88	-2,688
1658,974	-9,28	-2,819
1661,128	-10,86	-2,941
1663,276	-10,44	-2,999
1665,424	-11,98	-3,074
1667,572	-13,02	-3,208
1669,72	-13,76	-3,27
1671,88	-15,32	-3,352
1674,039	-15,92	-3,399
1676,181	-16,46	-3,412
1678,341	-16,84	-3,442
1680,489	-17,26	-3,456
1682,643	-17,62	-3,474
1684,785	-17,8	-3,48
1686,945	-17,88	-3,485
1689,105	-17,94	-3,49
1691,258	-17,98	-3,493
1693,4	-17,98	-3,495
1695,548	-17,96	-3,496
1697,708	-17,94	-3,497
1699,868	-17,9	-3,498
1702,01	-17,86	-3,499
1704,17	-17,84	-3,499
1706,33	-17,8	-3,471
1708,478	-17,74	-3,337
1710,631	-17,62	-3,193
1712,773	-16,84	-3,137
1714,927	-16,12	-2,94
1717,087	-13,06	-2,73
1719,241	-10,54	-2,53
1721,389	-9,8	-2,339
1723,543	-8,64	-2,205
1725,708	-7,22	-2,055
1727,856	-6,5	-1,955
1730,016	-4,78	-1,777
1732,158	-4,1	-1,705
1734,312	-3,38	-1,58
1736,466	-2,96	-1,479
1738,614	-2,48	-1,424
1740,756	-2,34	-1,428
1742,909	-2,18	-1,387
1745,063	-1,84	-1,303
1747,229	-1,04	-1,185
1749,389	-0,5	-1,024
1751,543	0,42	-0,891
1753,691	0,76	-0,838
1755,851	1,92	-0,66
1758,005	1,94	-0,545
1760,146	2,22	-0,526
1762,3	2,68	-0,41
1764,454	3,8	-0,294
1766,602	3,86	-0,213
1768,75	4,78	-0,183
1770,904	5,52	-0,112
1773,058	6,28	-0,066
1775,218	6,94	-0,031
1777,366	7	-0,02
1779,519	7,14	-0,016
1781,679	7,08	-0,013
1783,827	7,22	-0,008
1785,981	7,22	-0,006
1788,135	7,22	-0,004
1790,283	7,22	-0,004
1792,437	7,22	-0,002
1794,591	7,22	-0,002
1796,738	7,22	-0,002
1798,898	7,2	-0,001
1801,058	7,18	0
1803,2	7,16	-0,036
1805,348	7,14	-0,18
1807,514	6,28	-0,382
1809,674	5,74	-0,528
1811,822	5,18	-0,592
1813,987	3,42	-0,742
1816,129	2,64	-0,82
1818,283	3,06	-0,888
1820,425	2,66	-0,946
1822,585	0,82	-1,009
1824,733	0,46	-1,132
1826,887	-0,42	-1,242
1829,041	-1,08	-1,438
1831,188	-1,92	-1,508
1833,342	-2,24	-1,597
1835,508	-3,26	-1,752
1837,662	-3,26	-1,794
1839,81	-3,6	-1,852
1841,964	-4,98	-2,037
1844,112	-5,08	-2,123
1846,272	-5,72	-2,296
1848,419	-6,76	-2,408
1850,579	-7,3	-2,533
1852,733	-8,88	-2,712
1854,893	-9,24	-2,811
1857,035	-9,96	-2,888
1859,183	-9,46	-2,942
1861,337	-10,96	-3,057
1863,497	-12,4	-3,207
1865,638	-12,56	-3,268
1867,792	-14,6	-3,366
1869,946	-15,6	-3,415
1872,094	-16,08	-3,436
1874,248	-16,62	-3,461
1876,396	-16,72	-3,467
1878,55	-17,02	-3,482
1880,692	-17,08	-3,484
1882,846	-17,16	-3,49
1884,999	-17,18	-3,492
1887,153	-17,18	-3,495
1889,301	-17,18	-3,496
1891,461	-17,14	-3,497
1893,615	-17,16	-3,497
1895,775	-17,14	-3,498
1897,923	-17,1	-3,498
1900,077	-17,14	-3,498
1902,23	-17,08	-3,498
1904,396	-17,08	-3,499
1906,538	-17,04	-3,499
1908,686	-17	-3,5
1910,846	-16,98	-3,5
1912,988	-16,96	-3,466
1915,142	-16,94	-3,299
1917,29	-16,64	-3,202
1919,449	-15,6	-3,03
1921,597	-12,86	-2,88
1923,745	-11,94	-2,778
1925,899	-11,04	-2,678
1928,047	-10,84	-2,651
1930,195	-10,5	-2,582
1932,355	-9,62	-2,451
1934,503	-8,28	-2,306
1936,65	-8,2	-2,3
1938,798	-6,16	-2,124
1940,946	-6,16	-2,05
1943,1	-5,16	-1,969
1945,248	-4,46	-1,784
1947,396	-4,78	-1,73
1949,55	-3,82	-1,656
1951,698	-2,78	-1,581
1953,858	-2,42	-1,474
1955,999	-2,48	-1,512
1958,147	-2,36	-1,411
1960,295	-1,94	-1,336
1962,443	-1,78	-1,324
1964,585	-1,58	-1,315
1966,739	-0,88	-1,227
1968,887	-1,12	-1,2
1971,047	-0,34	-1,075
1973,2	0,22	-0,938
1975,36	1,26	-0,766
1977,52	1,78	-0,619
1979,668	2,38	-0,497
1981,822	2,88	-0,376
1983,982	4,14	-0,213
1986,136	5,02	-0,17
1988,277	5,42	-0,117
1990,449	5,7	-0,052
1992,597	6,7	-0,038
1994,751	6,74	-0,03
1996,893	6,62	-0,031
1999,059	6,96	-0,02
2001,207	6,9	-0,017
2003,349	6,84	-0,02
2005,502	6,98	-0,016
2007,644	6,98	-0,014
2009,792	7,02	-0,011
2011,946	7,02	-0,012
2014,1	7,06	-0,01
2016,26	7,08	-0,006
2018,408	7,08	-0,004
2020,562	7,08	-0,003
2022,722	7,1	-0,002
2024,875	7,08	-0,002
2027,023	7,08	-0,001
2029,171	7,08	-0,001
2031,325	7,06	-0,001
2033,479	7,08	-0,001
2035,627	7,06	-0,001
2037,775	7,04	-0,001
2039,929	7,04	0
2042,07	7,04	-0,001
2044,224	7,04	0
2046,378	7,02	0
2048,532	7,02	-0,041
2050,674	7	-0,003
2052,834	7	-0,101
2054,982	7	-0,101
2057,124	6,98	-0,171
2059,283	6,98	-0,213
2061,431	6,98	-0,169
2063,579	6,98	-0,13
2065,721	6,98	-0,178
2067,875	6,98	-0,238
2070,029	6,96	-0,253
2072,171	6,54	-0,288
2074,325	6,1	-0,432
2076,472	5,98	-0,46
2078,62	5,5	-0,53
2080,774	3,86	-0,63
2082,928	4,1	-0,698
2085,082	3,06	-0,766
2087,23	2,54	-0,81
2089,384	2,52	-0,845
2091,532	2,54	-0,846
2093,685	2,56	-0,882
2095,839	2,18	-0,945
2097,993	1,5	-0,986
2100,147	0,86	-1,098
2102,289	1,14	-1,025
2104,443	1,44	-0,997
2106,597	0,86	-1,118
2108,757	-0,2	-1,243
2110,905	0,54	-1,186
2113,064	-0,62	-1,384
2115,218	-1,9	-1,559
2117,366	-2,7	-1,773
2119,526	-3,08	-1,812
2121,68	-3,48	-1,937
2123,834	-4,08	-2,016
2125,982	-4,18	-2,113
2128,135	-5,04	-2,223
2130,283	-4,8	-2,266
2132,425	-5,16	-2,206
2134,585	-4,74	-2,293
2136,739	-5,56	-2,367
2138,899	-6,36	-2,486
2141,059	-6,58	-2,562
2143,207	-7,16	-2,568
2145,349	-6,9	-2,577
2147,508	-7,6	-2,658
2149,656	-7,24	-2,676
2151,81	-8	-2,737
2153,964	-8,72	-2,864
2156,124	-9,84	-3,005
2158,272	-10,5	-3,107
2160,426	-10,7	-3,174
2162,568	-11,22	-3,223
2164,715	-11,26	-3,31
2166,863	-12,52	-3,333
2169,023	-11,34	-3,345
2171,171	-12,94	-3,355
2173,331	-13,76	-3,412
2175,491	-14,34	-3,43
2177,639	-14,7	-3,449
2179,793	-14,5	-3,457
2181,946	-15	-3,468
2184,106	-15,34	-3,485
2186,248	-15,26	-3,484
2188,402	-15,36	-3,49
2190,55	-15,36	-3,492
2192,722	-15,36	-3,496
2194,876	-15,36	-3,497
2197,042	-15,32	-3,497
2199,183	-15,3	-3,497
2201,337	-15,3	-3,498
2203,491	-15,26	-3,498
2205,633	-15,26	-3,499
2207,793	-15,24	-3,499
2209,953	-15,18	-3,5
2212,107	-15,12	-3,434
2214,267	-14,62	-3,201
2216,408	-14,74	-3,148
2218,568	-13,82	-3,081
2220,716	-13,62	-2,959
2222,864	-11,12	-2,835
2225,012	-11,44	-2,867
2227,166	-11,46	-2,82
2229,308	-10,34	-2,742
2231,468	-8,2	-2,517
2233,621	-8,14	-2,5
2235,769	-8,16	-2,395
2237,917	-7,64	-2,405
2240,065	-7,16	-2,356
2242,219	-5,64	-2,193
2244,367	-6,04	-2,171
2246,521	-5,22	-2,103
2248,675	-4,88	-2,004
2250,822	-4,6	-1,976
2252,97	-4,46	-1,948
2255,118	-4,48	-1,964
2257,272	-4,54	-1,949
2259,414	-4,28	-1,899
2261,556	-4,12	-1,816
2263,71	-3,24	-1,715
2265,864	-3,4	-1,723
2268,012	-3,38	-1,716
2270,165	-2,7	-1,639
2272,301	-2,86	-1,649
2274,449	-2,46	-1,557
2276,597	-2,02	-1,484
2278,757	-1,34	-1,38
2280,899	-0,9	-1,302
2283,053	-0,96	-1,203
2285,213	-0,26	-1,079
2287,36	-0,24	-1,072
2289,508	-0,16	-1,05
2291,662	0,16	-1,036
2293,81	0,28	-0,922
2295,964	1	-0,823
2298,112	0,94	-0,742
2300,26	1,74	-0,651
2302,402	1,96	-0,622
2304,549	2,02	-0,515
2306,703	2,62	-0,447
2308,851	2,32	-0,425
2310,993	2,74	-0,364
2313,147	3,46	-0,272
2315,295	3,74	-0,225
2317,449	4,1	-0,162
2319,591	4,38	-0,145
2321,744	4,78	-0,11
2323,889	5,1	-0,096
2326,028	4,8	-0,122
2328,182	5,02	-0,091
2330,33	5,04	-0,092
2332,472	4,9	-0,104
2334,626	5,38	-0,074
2336,768	5,56	-0,07
2338,915	5,52	-0,074
2341,075	5,98	-0,052
2343,235	6,24	-0,041
2345,377	6,08	-0,042
2347,525	6,16	-0,036
2349,667	6,22	-0,028
2351,809	6,42	-0,019
2353,957	6,48	-0,015
2356,122	6,6	-0,01
2358,27	6,62	-0,008
2360,43	6,64	-0,006
2362,578	6,64	-0,004
2364,738	6,64	-0,003
2366,88	6,64	-0,004
2369,028	6,64	-0,004
2371,182	6,64	-0,004
2373,329	6,64	-0,002
2375,483	6,64	-0,002
2377,637	6,64	-0,002
2379,779	6,64	-0,002
2381,927	6,62	-0,001
2384,075	6,6	-0,001
2386,217	6,6	-0,001
2388,371	6,6	-0,001
2390,524	6,58	-0,001
2392,666	6,6	-0,001
2394,82	6,58	-0,001
2396,98	6,58	-0,001
2399,122	6,58	-0,001
2401,27	6,58	-0,001
2403,424	6,58	-0,002
2405,572	6,58	-0,001
2407,726	6,58	-0,001
2409,873	6,58	-0,002
2412,021	6,58	-0,002
2414,175	6,56	-0,002
2416,329	6,56	-0,001
2418,471	6,58	-0,002
2420,625	6,56	-0,001
2422,767	6,58	-0,002
2424,909	6,54	-0,001
2427,062	6,56	-0,001
2429,21	6,54	-0,001
2431,364	6,56	-0,001
2433,512	6,54	-0,001
2435,66	6,54	-0,001
2437,802	6,54	-0,001
2439,956	6,54	-0,001
2442,11	6,54	-0,001
2444,257	6,54	-0,001
2446,417	6,52	-0,001
2448,565	6,52	-0,001
2450,707	6,52	-0,001
2452,855	6,52	-0,001
2455,005	6,52	-0,001
2457,151	6,52	-0,001
2459,305	6,5	-0,001
2461,452	6,5	-0,001
2463,6	6,5	-0,001
2465,76	6,5	-0,001
2467,914	6,48	-0,001
2470,062	6,48	0
2472,216	6,46	-0,002
2474,37	6,46	-0,185
2476,518	6,46	-0,03
2478,665	6,46	0
2480,819	6,48	-0,046
2482,973	6,46	-0,052
2485,115	6,46	-0,001
2487,269	6,46	-0,009
2489,411	6,46	0
2491,571	6,46	-0,006
2493,719	6,48	0
2495,866	6,46	0
2498,008	6,46	0
2500,168	6,46	-0,009
2502,316	6,46	0
2504,464	6,44	-0,012
2506,618	6,44	-0,089
2508,772	6,42	-0,114
2510,926	6,42	-0,173
2513,067	6,42	-0,191
2515,221	6,2	-0,263
2517,363	6,02	-0,238
2519,517	6,42	-0,292
2521,665	4,32	-0,544
2523,813	3,36	-0,693
2525,961	2,18	-0,811
2528,109	2,52	-0,775
2530,263	2,84	-0,747
2532,416	3,26	-0,756
2534,57	2,92	-0,712
2536,712	3,98	-0,648
2538,866	3,62	-0,629
2541,02	3,52	-0,606
2543,18	3,06	-0,71
2545,328	2,84	-0,742
2547,476	2,86	-0,755
2549,629	3,28	-0,742
2551,771	2,52	-0,835
2553,925	1,6	-0,925
2556,073	2,18	-0,92
2558,215	2,92	-0,758
2560,369	3,26	-0,677
2562,517	5,36	-0,528
2564,665	4,94	-0,482
2566,812	5,88	-0,446
2568,966	5,56	-0,422
2571,108	6,04	-0,318
2573,256	6,38	-0,2
2575,41	6,4	-0,258
2577,558	6,12	-0,278
2579,712	6,38	-0,197
2581,866	6,38	-0,149
2584,013	6,38	-0,213
2586,167	6,36	-0,234
2588,315	6,38	-0,12
2590,469	6,38	-0,018
2592,611	6,38	-0,015
2594,765	6,4	-0,006
2596,907	6,4	0
2599,055	6,4	0
2601,208	6,4	0
2603,356	6,4	0
2605,51	6,4	0
2607,664	6,38	0
2609,818	6,38	-0,003
2611,96	6,38	-0,035
2614,108	6,36	-0,124
2616,256	6,1	-0,266
2618,397	5,84	-0,319
2620,557	4,86	-0,433
2622,705	5,54	-0,45
2624,847	4,42	-0,548
2627,001	3,66	-0,606
2629,149	4,08	-0,622
2631,303	3,36	-0,658
2633,457	2,46	-0,721
2635,61	2,62	-0,826
2637,758	1,92	-0,864
2639,906	2,1	-0,913
2642,06	1,26	-0,966
2644,202	1,24	-0,962
2646,356	1,02	-0,993
2648,504	0,98	-1,052
2650,664	0	-1,235
2652,806	-0,12	-1,324
2654,953	-0,8	-1,408
2657,095	-0,9	-1,417
2659,249	-0,56	-1,426
2661,403	-1	-1,495
2663,557	-1,64	-1,684
2665,705	-1,92	-1,749
2667,859	-2,36	-1,816
2670,019	-2,38	-1,814
2672,16	-1,8	-1,732
2674,308	-1,58	-1,695
2676,462	-1,8	-1,704
2678,616	-1,94	-1,746
2680,776	-2,18	-1,769
2682,924	-1,64	-1,664
2685,072	-1,38	-1,595
2687,232	-1,6	-1,608
2689,379	-1,6	-1,603
2691,527	-0,84	-1,531
2693,669	-0,16	-1,363
2695,811	-0,34	-1,29
2697,965	0,08	-1,317
2700,125	-0,18	-1,324
2702,267	-0,22	-1,332
2704,421	0,06	-1,283
2706,58	0	-1,247
2708,728	0,4	-1,169
2710,87	0,04	-1,182
2713,024	0,42	-1,192
2715,172	0,42	-1,134
2717,338	0,06	-1,236
2719,492	0,08	-1,25
2721,646	0,26	-1,249
2723,793	0,48	-1,101
2725,947	0,9	-1,142
2728,101	0,6	-1,142
2730,255	0,5	-1,086
2732,403	1,5	-1,008
2734,563	0,52	-1,165
2736,705	0,72	-1,152
2738,871	-0,48	-1,343
2741,018	-0,44	-1,322
2743,16	-0,4	-1,383
2745,308	-0,78	-1,422
2747,462	-0,58	-1,4
2749,616	-0,6	-1,409
2751,77	-0,94	-1,472
2753,924	-1,2	-1,541
2756,078	-0,82	-1,411
2758,226	-0,62	-1,374
2760,379	-0,98	-1,48
2762,533	-1,14	-1,579
2764,687	-1,78	-1,673
2766,853	-2,44	-1,84
2768,995	-2,62	-1,98
2771,155	-3,32	-2,121
2773,303	-3,4	-2,142
2775,45	-4,2	-2,282
2777,604	-4,44	-2,366
2779,752	-4,68	-2,431
2781,894	-4,86	-2,458
2784,054	-4,88	-2,52
2786,208	-5,4	-2,571
2788,356	-5,66	-2,642
2790,516	-5,76	-2,724
2792,676	-6,36	-2,817
2794,823	-7,28	-2,902
2796,977	-6,58	-2,901
2799,125	-7,02	-2,896
2801,267	-6,84	-2,851
2803,427	-6,74	-2,913
2805,575	-7,18	-2,992
2807,729	-7,58	-3,002
2809,883	-7,88	-3,001
2812,03	-6,96	-2,932
2814,178	-7,26	-3,002
2816,332	-7,72	-3,022
2818,486	-6,76	-2,973
2820,634	-7,5	-3,017
2822,794	-7,52	-3,077
2824,948	-7,88	-3,076
2827,095	-6,96	-3,03
2829,243	-7,92	-3,03
2831,397	-7,14	-3,013
2833,539	-6,62	-2,898
2835,693	-6,6	-2,834
2837,847	-6,4	-2,832
2839,995	-6,32	-2,833
2842,149	-6,22	-2,858
2844,297	-6,62	-2,922
2846,444	-7,22	-2,945
2848,598	-6,84	-2,922
2850,752	-6,66	-2,911
2852,9	-6,9	-2,864
2855,054	-6,76	-2,953
2857,208	-7,4	-3,017
2859,356	-7,12	-2,98
2861,504	-6,86	-3,017
2863,651	-7,16	-2,987
2865,811	-7,06	-3,036
2867,965	-7,86	-3,11
2870,107	-7,6	-3,049
2872,255	-7,68	-3,076
2874,409	-8,08	-3,106
2876,557	-7,32	-3,076
2878,717	-7,32	-3,146
2880,864	-7,66	-3,122
2883,018	-8,8	-3,225
2885,166	-8,64	-3,215
2887,314	-8,66	-3,234
2889,468	-8,6	-3,247
2891,616	-7,9	-3,143
2893,764	-8	-3,142
2895,912	-8,12	-3,181
2898,06	-9,22	-3,262
2900,213	-8,16	-3,257
2902,361	-8,58	-3,213
2904,509	-7,9	-3,118
2906,657	-7,76	-3,082
2908,817	-7,98	-3,096
2910,983	-8,1	-3,116
2913,131	-8,06	-3,133
2915,279	-7,98	-3,108
2917,426	-7,66	-3,066
2919,574	-6,9	-3,045
2921,734	-7,4	-3,09
2923,888	-7,78	-3,099
2926,042	-7,6	-3,088
2928,196	-7,76	-3,061
2930,35	-7,5	-3,065
2932,492	-7,08	-3,051
2934,639	-7,68	-3,068
2936,781	-7,46	-3,017
2938,935	-7,26	-3
2941,095	-8,1	-3,119
2943,243	-7,68	-3,157
2945,385	-8,28	-3,222
2947,539	-9,14	-3,287
2949,693	-8,4	-3,359
2951,84	-10,18	-3,354
2953,994	-10,78	-3,398
2956,136	-11,04	-3,409
2958,29	-10,62	-3,429
2960,438	-11,62	-3,448
2962,58	-11,66	-3,446
2964,74	-11,9	-3,468
2966,894	-12,22	-3,476
2969,035	-12,12	-3,478
2971,201	-12,34	-3,485
2973,355	-12,38	-3,488
2975,497	-12,4	-3,49
2977,657	-12,4	-3,491
2979,817	-12,44	-3,492
2981,965	-12,36	-3,492
2984,125	-12,4	-3,493
2986,284	-12,44	-3,494
2988,426	-12,44	-3,495
2990,574	-12,44	-3,496
2992,728	-12,44	-3,496
2994,876	-12,42	-3,497
2997,036	-12,42	-3,498
2999,178	-12,42	-3,497
3001,326	-12,42	-3,497
3003,485	-12,4	-3,498
3005,633	-12,4	-3,498
3007,799	-12,38	-3,499
3009,953	-12,36	-3,499
3012,101	-12,36	-3,499
3014,261	-12,36	-3,499
3016,415	-12,34	-3,499
3018,557	-12,34	-3,499
3020,705	-12,32	-3,499
3022,864	-12,3	-3,5
3025,006	-12,32	-3,5
3027,154	-12,32	-3,499
3029,296	-12,32	-3,499
3031,45	-12,3	-3,499
3033,61	-12,3	-3,5
3035,746	-12,32	-3,499
3037,899	-12,3	-3,499
3040,047	-12,3	-3,499
3042,189	-12,28	-3,499
3044,331	-12,3	-3,499
3046,485	-12,28	-3,499
3048,633	-12,28	-3,499
3050,787	-12,32	-3,499
3052,941	-12,28	-3,499
3055,095	-12,3	-3,499
3057,248	-12,28	-3,499
3059,39	-12,28	-3,499
3061,544	-12,32	-3,499
3063,692	-12,3	-3,499
3065,84	-12,28	-3,499
3067,994	-12,26	-3,499
3070,148	-12,24	-3,5
3072,284	-12,26	-3,499
3074,431	-12,24	-3,499
3076,573	-12,24	-3,499
3078,733	-12,22	-3,499
3080,881	-12,22	-3,5
3083,029	-12,22	-3,5
3085,183	-12,22	-3,498
3087,337	-12,18	-3,494
3089,479	-12,2	-3,445
3091,638	-12,18	-3,4
3093,792	-12,18	-3,427
3095,94	-12,18	-3,447
3098,094	-12,18	-3,5
3100,248	-12,18	-3,5
3102,396	-12,18	-3,5
3104,55	-12,18	-3,5
3106,71	-12,16	-3,5
3108,851	-12,16	-3,5
3111,005	-12,16	-3,5
3113,147	-12,16	-3,5
3115,307	-12,14	-3,5
3117,461	-12,12	-3,5
3119,609	-12,14	-3,5
3121,757	-12,12	-3,494
3123,905	-12,1	-3,497
3126,052	-12,1	-3,5
3128,212	-12,1	-3,48
3130,366	-12,1	-3,462
3132,514	-12,1	-3,476
3134,674	-12,1	-3,343
3136,828	-12,08	-3,275
3138,97	-12,06	-3,318
3141,118	-12,06	-3,272
3143,277	-11,78	-3,181
3145,419	-11,76	-3,169
3147,573	-11,76	-3,159
3149,739	-11,76	-3,148
3151,881	-11,36	-3,206
3154,047	-10	-2,969
3156,189	-10,16	-3,004
3158,355	-9,2	-2,901
3160,508	-9	-2,818
3162,656	-8,4	-2,749
3164,816	-9,24	-2,687
3166,97	-7,96	-2,644
3169,118	-8,42	-2,746
3171,278	-7,54	-2,643
3173,426	-6,8	-2,615
3175,58	-7,06	-2,633
3177,734	-7,02	-2,59
3179,881	-5,76	-2,456
3182,029	-6,2	-2,44
3184,177	-6,18	-2,394
3186,337	-5,62	-2,342
3188,485	-5,04	-2,23
3190,633	-5,32	-2,271
3192,787	-5,64	-2,188
3194,941	-4,54	-2,151
3197,088	-4,46	-2,13
3199,248	-3,78	-2,005
3201,396	-3,76	-1,977
3203,55	-3,64	-1,93
3205,704	-3,34	-1,921
3207,858	-2,44	-1,752
3210,006	-2,8	-1,751
3212,154	-2,66	-1,708
3214,301	-2,4	-1,718
3214,985	6,02	0