File: Cycling_tests/_newS/_2G20/entrada/_4.txt
Time (s)	Load (N)	Displacement (mm)
0	-0,22	-0,027
2,194	0,52	-0,362
4,359	0,42	-0,42
6,531	-1,3	-0,627
8,692	-1,78	-0,71
10,851	-1,84	-0,744
13,011	-2,54	-0,858
15,171	-3,46	-0,935
17,331	-4,06	-1,017
19,491	-4,44	-1,088
21,65	-5,2	-1,229
23,81	-5,2	-1,279
25,97	-6,86	-1,398
28,13	-7,5	-1,496
30,29	-8,18	-1,594
32,45	-9,96	-1,73
34,61	-10	-1,758
36,77	-11,08	-1,899
38,941	-13,06	-2,094
41,101	-13,7	-2,219
43,267	-14,66	-2,267
45,433	-15,86	-2,454
47,599	-17,7	-2,607
49,771	-18,28	-2,75
51,943	-19,06	-2,833
54,115	-20,16	-3,023
56,275	-21,28	-3,073
58,434	-21,4	-3,103
60,594	-21,76	-3,152
62,76	-22,78	-3,224
64,92	-24,3	-3,298
67,086	-25,04	-3,366
69,252	-26,08	-3,42
71,412	-26,32	-3,435
73,571	-26,74	-3,455
75,737	-27,54	-3,462
77,903	-27,48	-3,468
80,063	-27,76	-3,483
82,223	-27,88	-3,486
84,383	-27,84	-3,49
86,549	-27,9	-3,494
88,709	-27,92	-3,495
90,874	-27,88	-3,497
93,034	-27,84	-3,497
95,194	-27,82	-3,498
97,354	-27,82	-3,499
99,52	-27,78	-3,499
101,686	-27,66	-3,5
103,846	-27,66	-3,5
106,012	-27,62	-3,353
108,171	-27,56	-3,316
110,331	-27,52	-3,215
112,497	-26,5	-3,03
114,663	-24,26	-2,898
116,823	-22,86	-2,698
118,983	-20,94	-2,6
121,143	-19,74	-2,465
123,303	-17,32	-2,212
125,463	-17,2	-2,189
127,623	-15,78	-2,096
129,782	-15	-1,898
131,948	-13,48	-1,779
134,114	-10,9	-1,648
136,274	-11,86	-1,528
138,44	-9,22	-1,404
140,6	-7,52	-1,27
142,766	-6,74	-1,12
144,931	-5,52	-0,939
147,097	-3,64	-0,78
149,257	-2,38	-0,698
151,427	-1,36	-0,508
153,595	0,36	-0,348
155,755	0,96	-0,261
157,921	2,76	-0,132
160,087	3,4	-0,094
162,246	3,82	-0,071
164,406	4,56	-0,052
166,566	4,78	-0,04
168,732	4,96	-0,039
170,898	5,1	-0,026
173,07	5,36	-0,019
175,236	5,4	-0,013
177,396	5,46	-0,014
179,555	5,5	-0,012
181,715	5,48	-0,012
183,887	5,48	-0,01
186,047	5,56	-0,008
188,219	5,6	-0,004
190,379	5,62	-0,003
192,545	5,62	-0,002
194,711	5,62	-0,002
196,876	5,62	-0,002
199,036	5,64	-0,001
201,196	5,64	-0,001
203,362	5,64	-0,001
205,522	5,68	-0,001
207,688	5,68	-0,001
209,854	5,7	-0,001
212,02	5,72	-0,001
214,186	5,72	-0,001
216,351	5,72	-0,001
218,523	5,74	0
220,695	5,76	-0,001
222,861	5,76	0
225,027	5,78	0
227,199	5,78	-0,012
229,371	5,74	-0,174
231,536	5,28	-0,378
233,696	3,68	-0,608
235,862	2,9	-0,657
238,034	2,78	-0,614
240,194	3,74	-0,567
242,36	4,36	-0,557
244,52	3,24	-0,648
246,704	1,02	-0,874
248,869	1,46	-0,911
251,041	-1,46	-1,128
253,207	-2,1	-1,149
255,379	-2,24	-1,254
257,545	-3,18	-1,308
259,705	-3,84	-1,316
261,871	-2,84	-1,353
264,037	-3,82	-1,433
266,196	-3,98	-1,499
268,368	-5,1	-1,498
270,528	-5,02	-1,506
272,694	-5,54	-1,564
274,854	-5,3	-1,556
277,02	-5,32	-1,614
279,186	-4,46	-1,586
281,352	-5,88	-1,596
283,529	-6,36	-1,66
285,695	-6,46	-1,724
287,861	-6,3	-1,751
290,027	-7,7	-1,788
292,193	-8	-1,863
294,359	-7,8	-1,896
296,525	-8,76	-1,949
298,697	-10,48	-2,15
300,856	-10,66	-2,188
303,028	-11,18	-2,22
305,206	-11,7	-2,292
307,366	-11,32	-2,298
309,538	-11,7	-2,323
311,704	-13,08	-2,425
313,876	-13,72	-2,498
316,042	-14,7	-2,551
318,202	-15,48	-2,596
320,361	-15,54	-2,631
322,533	-15,64	-2,726
324,699	-15,46	-2,858
326,871	-17,34	-2,851
329,037	-16,98	-2,882
331,203	-17,7	-2,916
333,369	-18,86	-3,001
335,54	-19,04	-3,009
337,7	-19,48	-3,07
339,872	-18,58	-3,095
342,038	-18,94	-3,08
344,204	-19,82	-3,123
346,37	-19,48	-3,135
348,536	-19,76	-3,236
350,702	-20,22	-3,14
352,867	-19,28	-3,108
355,033	-18,98	-3,05
357,199	-19,38	-3,04
359,371	-17,96	-3,007
361,531	-17,2	-2,977
363,703	-19,78	-3,119
365,881	-20,84	-3,229
368,059	-21,02	-3,276
370,228	-21,8	-3,295
372,396	-21,86	-3,35
374,574	-22,08	-3,375
376,746	-23,98	-3,406
378,924	-24,78	-3,438
381,102	-25,14	-3,446
383,274	-24,88	-3,452
385,434	-25,58	-3,473
387,599	-25,92	-3,482
389,771	-25,82	-3,483
391,949	-25,9	-3,488
394,121	-25,44	-3,486
396,293	-25,84	-3,486
398,465	-25,98	-3,489
400,631	-25,9	-3,488
402,803	-25,92	-3,491
404,969	-25,84	-3,492
407,146	-25,9	-3,492
409,318	-25,9	-3,495
411,49	-25,9	-3,496
413,656	-25,9	-3,497
415,828	-25,9	-3,497
417,994	-25,92	-3,497
420,178	-25,9	-3,498
422,35	-25,9	-3,498
424,515	-25,9	-3,498
426,693	-25,88	-3,498
428,859	-25,96	-3,498
431,019	-25,86	-3,498
433,191	-25,88	-3,498
435,363	-25,86	-3,498
437,535	-25,86	-3,498
439,713	-25,84	-3,498
441,884	-25,84	-3,499
444,062	-25,78	-3,499
446,234	-25,76	-3,499
448,406	-25,74	-3,499
450,584	-25,74	-3,5
452,75	-25,72	-3,486
454,916	-25,68	-3,442
457,094	-25,66	-3,423
459,271	-25,64	-3,451
461,443	-25,68	-3,384
463,627	-25,64	-3,284
465,799	-25,34	-3,198
467,971	-25,12	-3,184
470,137	-24,9	-3,188
472,315	-24,58	-3,138
474,493	-22,94	-2,97
476,658	-21,86	-2,901
478,836	-21,38	-2,829
481,008	-21,06	-2,768
483,186	-21,1	-2,755
485,358	-19,82	-2,65
487,548	-19,3	-2,509
489,72	-18,78	-2,453
491,898	-17,68	-2,444
494,075	-16,08	-2,363
496,247	-16,56	-2,32
498,413	-14,8	-2,197
500,579	-15,06	-2,167
502,751	-13,24	-2,054
504,929	-10,86	-1,832
507,101	-8,92	-1,62
509,273	-8,76	-1,627
511,444	-7,2	-1,422
513,616	-5,52	-1,253
515,782	-3,74	-0,991
517,96	-2,32	-0,815
520,132	0	-0,64
522,304	0,5	-0,498
524,488	2,72	-0,349
526,666	2,92	-0,211
528,825	4	-0,162
530,997	5,14	-0,095
533,169	6,4	-0,059
535,335	6,8	-0,029
537,513	7,06	-0,012
539,679	7,12	-0,009
541,851	7,16	-0,007
544,017	7,16	-0,004
546,182	7,16	-0,002
548,354	7,16	-0,002
550,526	7,14	-0,001
552,698	7,12	0
554,876	7,12	-0,005
557,036	7,12	0
559,202	7,12	-0,126
561,368	6,38	-0,324
563,539	5,3	-0,567
565,705	2,74	-0,797
567,877	1,9	-0,875
570,055	1,3	-0,967
572,227	0,14	-1,115
574,393	-1,34	-1,248
576,559	-1,28	-1,28
578,737	-3,42	-1,463
580,902	-3,48	-1,527
583,074	-4,42	-1,616
585,252	-4,74	-1,666
587,424	-7,06	-1,835
589,596	-6,98	-1,924
591,78	-7,44	-2,041
593,952	-10,08	-2,214
596,118	-10,6	-2,274
598,29	-11,22	-2,432
600,461	-12,82	-2,584
602,639	-13,9	-2,735
604,817	-16,34	-2,922
606,995	-18,6	-3,085
609,161	-18,68	-3,144
611,333	-20,24	-3,278
613,505	-21,56	-3,355
615,676	-23	-3,405
617,842	-22,68	-3,414
620,02	-24,54	-3,458
622,186	-25,28	-3,484
624,358	-25,3	-3,489
626,53	-25,42	-3,49
628,708	-25,42	-3,493
630,886	-25,46	-3,495
633,069	-25,42	-3,498
635,259	-25,4	-3,499
637,437	-25,42	-3,499
639,615	-25,34	-3,5
641,793	-25,3	-3,299
643,959	-25,3	-3,212
646,137	-22,26	-2,914
648,309	-20,32	-2,699
650,492	-17,98	-2,538
652,658	-19,22	-2,512
654,83	-17,3	-2,444
657,002	-16,56	-2,461
659,174	-17,42	-2,357
661,346	-13,56	-2,093
663,524	-12,08	-2,016
665,702	-10,86	-1,881
667,867	-11,34	-1,88
670,039	-9,1	-1,628
672,205	-7,74	-1,537
674,383	-5,52	-1,273
676,561	-3,56	-1,113
678,745	-1,9	-0,844
680,923	-1,38	-0,803
683,095	0,08	-0,689
685,266	1,04	-0,508
687,444	2,06	-0,368
689,616	3,58	-0,204
691,794	5,22	-0,103
693,966	6,46	-0,067
696,15	6,84	-0,042
698,322	7,22	-0,029
700,494	7,4	-0,012
702,666	7,5	-0,008
704,837	7,52	-0,004
707,009	7,5	-0,002
709,181	7,46	-0,001
711,371	7,46	0
713,543	7,42	-0,048
715,709	7,44	-0,155
717,881	7,42	-0,259
720,046	6,68	-0,374
722,224	5,98	-0,52
724,396	4,4	-0,561
726,586	3,38	-0,766
728,759	1,7	-0,92
730,936	0,84	-1,043
733,102	0,28	-1,081
735,274	-0,46	-1,234
737,446	-1,36	-1,322
739,623	-3,48	-1,5
741,813	-4,46	-1,712
743,991	-6,94	-1,92
746,163	-7,6	-2,038
748,341	-8,8	-2,149
750,513	-7,62	-2,227
752,685	-9,68	-2,226
754,857	-11,42	-2,394
757,022	-11,86	-2,527
759,2	-13,3	-2,593
761,372	-12,34	-2,623
763,55	-13,92	-2,705
765,728	-14,3	-2,76
767,9	-15,3	-2,775
770,084	-15,8	-2,881
772,256	-17,04	-2,991
774,427	-16,76	-3,064
776,599	-20	-3,251
778,771	-20,7	-3,353
780,955	-21,8	-3,416
783,121	-22,58	-3,397
785,293	-23,72	-3,44
787,471	-24,18	-3,458
789,643	-24,44	-3,466
791,826	-24,6	-3,478
794,01	-25	-3,488
796,176	-25,1	-3,492
798,348	-25,1	-3,495
800,526	-25,16	-3,497
802,698	-25,14	-3,498
804,87	-25,12	-3,499
807,054	-25,06	-3,499
809,225	-25,1	-3,499
811,397	-25,08	-3,499
813,569	-25,08	-3,5
815,741	-25,04	-3,5
817,913	-25,02	-3,482
820,097	-24,98	-3,296
822,269	-25	-3,218
824,441	-24,96	-3,161
826,612	-24,26	-3,135
828,79	-22,76	-3,054
830,962	-23,6	-3,034
833,128	-23,16	-3,012
835,312	-21,92	-2,974
837,478	-21,36	-2,856
839,644	-20,1	-2,754
841,822	-18,76	-2,61
843,993	-17,32	-2,553
846,159	-17,84	-2,548
848,331	-16,32	-2,419
850,515	-13,48	-2,176
852,693	-12,44	-2,068
854,871	-11,88	-1,992
857,055	-10,52	-1,885
859,227	-10,94	-1,844
861,398	-9,86	-1,761
863,576	-8,92	-1,653
865,742	-8,6	-1,642
867,914	-8,36	-1,622
870,092	-8,08	-1,572
872,27	-7,62	-1,596
874,442	-7,8	-1,535
876,614	-8,04	-1,579
878,791	-7,24	-1,551
880,963	-7,7	-1,514
883,141	-4,88	-1,252
885,319	-3,48	-1,084
887,497	-2,64	-0,971
889,675	-1,66	-0,837
891,859	-0,12	-0,694
894,037	0,14	-0,644
896,208	1,44	-0,57
898,374	0,64	-0,613
900,558	1,24	-0,501
902,742	2,74	-0,342
904,914	3,04	-0,328
907,098	3,8	-0,208
909,264	4,86	-0,205
911,436	3,82	-0,238
913,613	5,1	-0,13
915,791	6,36	-0,09
917,981	6,18	-0,076
920,147	6,88	-0,071
922,319	6,8	-0,052
924,491	7,18	-0,05
926,663	7,14	-0,057
928,835	6,72	-0,05
931,007	7,38	-0,036
933,184	7,6	-0,031
935,35	7,68	-0,02
937,522	7,7	-0,02
939,7	7,58	-0,025
941,89	7,84	-0,01
944,068	7,86	-0,009
946,24	7,88	-0,008
948,417	7,9	-0,006
950,601	7,92	-0,004
952,773	7,92	-0,005
954,957	7,92	-0,003
957,129	7,92	-0,002
959,295	7,94	-0,003
961,485	7,92	-0,002
963,657	7,94	-0,002
965,834	7,92	-0,002
968,006	7,92	-0,001
970,184	7,92	-0,001
972,362	7,92	-0,001
974,54	7,92	-0,001
976,712	7,94	-0,001
978,908	7,9	0
981,086	7,88	0
983,269	7,9	-0,012
985,447	7,88	-0,043
987,619	7,88	-0,016
989,791	7,88	-0,125
991,963	7,88	-0,202
994,141	7,04	-0,378
996,319	5,4	-0,587
998,491	4,98	-0,65
1000,662	4,78	-0,659
1002,84	3,7	-0,699
1005,012	3,08	-0,862
1007,19	3,5	-0,932
1009,356	2,62	-0,918
1011,534	2,64	-0,925
1013,706	2,24	-0,939
1015,872	2,36	-0,918
1018,056	2,6	-0,935
1020,227	2,64	-0,938
1022,399	0,84	-1,043
1024,577	0,38	-1,092
1026,755	0,36	-1,232
1028,921	-1,3	-1,287
1031,099	-1,28	-1,298
1033,271	-0,8	-1,329
1035,455	-3,06	-1,558
1037,626	-3,04	-1,572
1039,792	-3,66	-1,62
1041,964	-3,86	-1,63
1044,142	-3,92	-1,696
1046,314	-5,04	-1,805
1048,486	-5,82	-1,878
1050,664	-6,98	-2,023
1052,829	-7,36	-2,065
1055,007	-10,54	-2,403
1057,179	-13,18	-2,588
1059,351	-12,8	-2,645
1061,523	-13,64	-2,718
1063,701	-15,6	-2,853
1065,885	-16,74	-3,033
1068,057	-18	-3,064
1070,235	-18,38	-3,125
1072,406	-18,3	-3,202
1074,596	-20,82	-3,309
1076,774	-21,5	-3,364
1078,94	-21,88	-3,375
1081,106	-22,42	-3,416
1083,284	-23,26	-3,434
1085,456	-23,38	-3,436
1087,64	-23,52	-3,452
1089,811	-23,48	-3,465
1091,971	-24,06	-3,471
1094,149	-24,04	-3,475
1096,321	-24,56	-3,489
1098,493	-24,56	-3,492
1100,677	-24,5	-3,494
1102,849	-24,5	-3,494
1105,008	-24,52	-3,496
1107,186	-24,52	-3,498
1109,352	-24,54	-3,498
1111,53	-24,58	-3,498
1113,702	-24,58	-3,499
1115,874	-24,58	-3,499
1118,058	-24,56	-3,499
1120,236	-24,52	-3,5
1122,42	-24,48	-3,489
1124,597	-24,44	-3,325
1126,769	-24,4	-3,263
1128,947	-24,38	-3,18
1131,119	-23,88	-3,138
1133,303	-19,88	-2,808
1135,481	-18,76	-2,688
1137,653	-17,42	-2,578
1139,831	-15,08	-2,433
1142,002	-14,44	-2,284
1144,174	-13,56	-2,197
1146,352	-11,54	-2,063
1148,524	-11,64	-1,994
1150,702	-9,52	-1,833
1152,868	-9,42	-1,764
1155,046	-9,5	-1,664
1157,218	-8,04	-1,628
1159,395	-7,58	-1,544
1161,567	-7,02	-1,498
1163,739	-6,64	-1,446
1165,917	-3,94	-1,22
1168,095	-3,7	-1,186
1170,267	-3,46	-1,14
1172,433	-2,38	-1,017
1174,599	-1,92	-0,989
1176,764	-1,78	-0,915
1178,936	-0,68	-0,869
1181,102	-1,58	-0,917
1183,274	-0,36	-0,843
1185,44	0,32	-0,7
1187,612	1,1	-0,659
1189,79	1,22	-0,593
1191,962	1,36	-0,568
1194,145	1,7	-0,483
1196,311	2,78	-0,466
1198,483	2,56	-0,409
1200,661	3,12	-0,322
1202,827	4,48	-0,273
1204,999	4,72	-0,189
1207,189	6,36	-0,126
1209,361	6,2	-0,098
1211,538	6,48	-0,083
1213,722	7,48	-0,047
1215,894	7,68	-0,04
1218,066	7,94	-0,026
1220,238	7,92	-0,028
1222,422	7,9	-0,018
1224,588	8,14	-0,014
1226,772	8,24	-0,008
1228,949	8,24	-0,008
1231,133	8,22	-0,008
1233,311	8,24	-0,009
1235,483	8,24	-0,006
1237,649	8,26	-0,007
1239,833	8,28	-0,005
1242,005	8,28	-0,005
1244,177	8,28	-0,005
1246,348	8,28	-0,004
1248,52	8,28	-0,003
1250,704	8,28	-0,002
1252,876	8,26	-0,001
1255,054	8,24	-0,001
1257,232	8,22	0
1259,41	8,2	-0,023
1261,582	8,2	-0,119
1263,759	8,2	-0,211
1265,937	7,96	-0,338
1268,109	7,64	-0,396
1270,281	7,14	-0,458
1272,465	4,32	-0,73
1274,637	4,3	-0,809
1276,809	2,94	-0,887
1278,993	3	-0,935
1281,158	2,12	-1,015
1283,336	1,12	-1,145
1285,514	0,7	-1,216
1287,686	-0,98	-1,325
1289,87	-2,14	-1,491
1292,036	-3,08	-1,602
1294,22	-5,3	-1,81
1296,398	-5,24	-1,928
1298,575	-5,2	-1,968
1300,747	-7,48	-2,126
1302,925	-8,34	-2,246
1305,103	-9,98	-2,374
1307,275	-11,02	-2,591
1309,453	-11,92	-2,629
1311,631	-12,9	-2,753
1313,815	-14,82	-2,95
1315,992	-16,24	-3,111
1318,158	-16,92	-3,144
1320,342	-18,26	-3,248
1322,52	-19,52	-3,35
1324,692	-19,36	-3,39
1326,864	-20,82	-3,408
1329,03	-20,24	-3,414
1331,202	-21,74	-3,439
1333,379	-21,84	-3,447
1335,557	-21,82	-3,452
1337,729	-22,12	-3,463
1339,907	-22,34	-3,474
1342,085	-22,38	-3,48
1344,263	-22,6	-3,485
1346,441	-22,68	-3,489
1348,613	-22,7	-3,491
1350,796	-22,72	-3,493
1352,968	-22,64	-3,494
1355,14	-22,72	-3,494
1357,312	-22,7	-3,496
1359,49	-22,7	-3,497
1361,662	-22,68	-3,497
1363,834	-22,68	-3,498
1366,006	-22,66	-3,498
1368,178	-22,64	-3,498
1370,343	-22,64	-3,498
1372,509	-22,62	-3,499
1374,681	-22,56	-3,499
1376,853	-22,56	-3,499
1379,025	-22,48	-3,5
1381,209	-22,46	-3,5
1383,375	-22,42	-3,497
1385,546	-22,4	-3,333
1387,724	-22,38	-3,285
1389,89	-22,38	-3,236
1392,056	-21,62	-3,176
1394,24	-20,96	-3,058
1396,412	-20,22	-2,979
1398,59	-18,34	-2,813
1400,762	-16,06	-2,617
1402,928	-14,82	-2,51
1405,105	-14,04	-2,418
1407,289	-12,8	-2,243
1409,467	-13,56	-2,182
1411,645	-9,98	-2,009
1413,811	-9,64	-1,989
1415,989	-9,14	-1,918
1418,161	-8,8	-1,886
1420,339	-7,1	-1,758
1422,504	-7,26	-1,699
1424,682	-6,82	-1,606
1426,854	-5,06	-1,554
1429,032	-5,04	-1,468
1431,216	-3,48	-1,329
1433,388	-3,68	-1,262
1435,56	-2,4	-1,189
1437,744	-2,18	-1,114
1439,915	-0,98	-1,036
1442,081	-1,1	-0,994
1444,259	-0,14	-0,849
1446,449	0,9	-0,7
1448,621	1,6	-0,617
1450,787	2,96	-0,447
1452,977	4,4	-0,276
1455,155	4,9	-0,206
1457,326	5,32	-0,167
1459,504	6,3	-0,098
1461,67	6,82	-0,089
1463,848	6,86	-0,07
1466,032	7,96	-0,039
1468,21	8,04	-0,031
1470,376	8,24	-0,02
1472,548	8,16	-0,019
1474,719	8,28	-0,017
1476,897	8,32	-0,012
1479,069	8,4	-0,005
1481,259	8,4	-0,004
1483,431	8,4	-0,003
1485,609	8,4	-0,002
1487,781	8,38	-0,001
1489,965	8,38	-0,001
1492,142	8,36	-0,001
1494,332	8,34	-0,042
1496,504	8,32	-0,098
1498,682	8,3	-0,291
1500,854	7,74	-0,345
1503,038	7,6	-0,403
1505,21	6,58	-0,456
1507,4	4,7	-0,741
1509,565	4,72	-0,736
1511,737	3,94	-0,792
1513,921	3,52	-0,883
1516,099	2,4	-0,965
1518,279	1,92	-1,046
1520,443	2	-1,105
1522,615	0,54	-1,188
1524,787	0,16	-1,241
1526,976	-1,84	-1,488
1529,142	-2,78	-1,628
1531,32	-2,9	-1,623
1533,504	-3,4	-1,741
1535,676	-4,32	-1,851
1537,854	-6,1	-2,033
1540,02	-6,48	-2,082
1542,186	-7	-2,113
1544,363	-6,76	-2,211
1546,541	-8,76	-2,41
1548,707	-8,92	-2,389
1550,891	-10,42	-2,543
1553,063	-9,72	-2,563
1555,235	-11,14	-2,647
1557,401	-9,72	-2,636
1559,579	-11,12	-2,728
1561,75	-13,6	-2,924
1563,922	-13,28	-2,982
1566,106	-15,74	-3,136
1568,272	-15,74	-3,224
1570,45	-14,36	-3,286
1572,628	-18,12	-3,357
1574,794	-18,46	-3,366
1576,972	-18,82	-3,391
1579,161	-20,78	-3,464
1581,333	-20,9	-3,47
1583,499	-21,06	-3,476
1585,677	-21,08	-3,48
1587,849	-21,4	-3,491
1590,021	-21,42	-3,496
1592,187	-21,4	-3,497
1594,359	-21,4	-3,498
1596,536	-21,38	-3,498
1598,708	-21,34	-3,498
1600,88	-21,34	-3,498
1603,052	-21,3	-3,499
1605,218	-21,3	-3,499
1607,396	-21,24	-3,499
1609,568	-21,2	-3,499
1611,746	-21,18	-3,5
1613,917	-21,18	-3,5
1616,095	-21,14	-3,405
1618,261	-21,14	-3,217
1620,439	-20,22	-3,165
1622,617	-21,06	-3,126
1624,795	-19,14	-2,988
1626,973	-18,08	-2,863
1629,151	-17,48	-2,794
1631,328	-14,84	-2,633
1633,506	-14,28	-2,562
1635,672	-14,76	-2,519
1637,844	-13,36	-2,488
1640,016	-14,16	-2,453
1642,194	-11,76	-2,292
1644,372	-10,58	-2,226
1646,538	-9,82	-2,193
1648,715	-10	-2,049
1650,911	-7,84	-1,904
1653,083	-7,18	-1,83
1655,249	-7,26	-1,857
1657,427	-6,44	-1,738
1659,605	-6	-1,534
1661,783	-2,52	-1,27
1663,961	-1,64	-1,131
1666,15	-1,14	-1,064
1668,322	-1,3	-1,082
1670,5	0,12	-0,942
1672,672	0,08	-0,853
1674,844	0,7	-0,848
1677,016	1,1	-0,78
1679,194	1,58	-0,668
1681,36	1,26	-0,742
1683,531	1,82	-0,643
1685,709	2,54	-0,513
1687,887	3,44	-0,447
1690,053	3,34	-0,373
1692,237	4,44	-0,346
1694,421	4,8	-0,253
1696,593	4,18	-0,244
1698,765	5	-0,223
1700,948	5,34	-0,162
1703,126	6,26	-0,128
1705,304	5,86	-0,138
1707,482	6,62	-0,115
1709,66	6,66	-0,108
1711,832	7,08	-0,063
1714,01	7,52	-0,056
1716,182	7,3	-0,065
1718,371	7,8	-0,042
1720,549	7,94	-0,033
1722,721	8,26	-0,025
1724,893	8,3	-0,022
1727,071	8,4	-0,012
1729,249	8,4	-0,012
1731,433	8,46	-0,008
1733,599	8,46	-0,009
1735,776	8,48	-0,008
1737,948	8,48	-0,007
1740,156	8,5	-0,004
1742,334	8,48	-0,004
1744,518	8,48	-0,003
1746,69	8,48	-0,004
1748,868	8,5	-0,004
1751,04	8,48	-0,004
1753,211	8,5	-0,003
1755,395	8,48	-0,002
1757,561	8,46	-0,001
1759,739	8,44	-0,001
1761,923	8,4	0
1764,101	8,4	-0,022
1766,273	8,36	-0,158
1768,457	8	-0,319
1770,634	6,9	-0,428
1772,818	6,2	-0,577
1774,99	4,14	-0,703
1777,168	3,22	-0,939
1779,346	1,5	-1,175
1781,53	-1,38	-1,414
1783,696	-1,08	-1,441
1785,874	-1,9	-1,496
1788,057	-2,62	-1,651
1790,235	-4,1	-1,801
1792,407	-3,82	-1,863
1794,585	-4,48	-2,009
1796,757	-6,9	-2,22
1798,935	-8,46	-2,381
1801,107	-7,7	-2,37
1803,291	-10	-2,62
1805,475	-11,56	-2,778
1807,658	-12,28	-2,955
1809,818	-13,38	-3,02
1812,002	-14,02	-3,142
1814,174	-15,68	-3,308
1816,34	-17,18	-3,365
1818,524	-19	-3,432
1820,696	-19,84	-3,463
1822,873	-20,2	-3,474
1825,039	-20,28	-3,481
1827,229	-20,48	-3,491
1829,407	-20,52	-3,495
1831,573	-20,54	-3,496
1833,739	-20,5	-3,498
1835,917	-20,48	-3,499
1838,089	-20,46	-3,499
1840,255	-20,42	-3,499
1842,42	-20,44	-3,499
1844,598	-20,38	-3,499
1846,764	-20,4	-3,5
1848,936	-20,36	-3,5
1851,114	-20,32	-3,455
1853,292	-20,1	-3,248
1855,47	-18,4	-3,04
1857,635	-17,48	-2,902
1859,813	-15	-2,744
1861,991	-13,52	-2,573
1864,163	-11,6	-2,367
1866,335	-10,78	-2,278
1868,507	-9,2	-2,199
1870,685	-7,62	-1,996
1872,851	-7,86	-1,954
1875,023	-8,18	-1,982
1877,188	-7,46	-1,917
1879,37	-6,06	-1,808
1881,538	-6,4	-1,763
1883,71	-6,42	-1,749
1885,882	-6,2	-1,724
1888,054	-5,6	-1,529
1890,22	-4,1	-1,458
1892,392	-2,68	-1,348
1894,569	-1,88	-1,273
1896,729	-1,58	-1,196
1898,901	-3,04	-1,304
1901,079	-2,46	-1,28
1903,263	-2,08	-1,279
1905,423	-1,78	-1,284
1907,595	-1,72	-1,173
1909,761	-1,58	-1,167
1911,926	-1,46	-1,183
1914,104	0	-1,017
1916,276	-0,12	-0,928
1918,454	1,16	-0,783
1920,62	1,62	-0,744
1922,798	1,98	-0,647
1924,976	2,12	-0,587
1927,154	3,76	-0,403
1929,319	3,9	-0,324
1931,491	5,18	-0,225
1933,669	5,7	-0,162
1935,853	6,84	-0,103
1938,019	6,86	-0,082
1940,191	7,5	-0,071
1942,375	7,98	-0,038
1944,559	8,2	-0,022
1946,73	8,4	-0,018
1948,908	8,48	-0,011
1951,086	8,54	-0,009
1953,246	8,5	-0,009
1955,424	8,54	-0,004
1957,602	8,54	-0,003
1959,774	8,52	-0,002
1961,952	8,52	-0,001
1964,129	8,48	-0,001
1966,301	8,46	-0,001
1968,479	8,46	-0,001
1970,651	8,46	0
1972,823	8,44	-0,006
1974,995	8,44	-0,019
1977,155	8,46	-0,06
1979,339	8,46	-0,218
1981,51	8,42	-0,294
1983,676	7,98	-0,34
1985,848	7,6	-0,384
1988,02	6,74	-0,484
1990,186	6,4	-0,561
1992,364	6,42	-0,551
1994,542	5,5	-0,579
1996,714	6,46	-0,604
1998,885	6,34	-0,576
2001,063	5,62	-0,61
2003,241	5,46	-0,671
2005,413	4,8	-0,754
2007,579	4,64	-0,764
2009,751	3,02	-0,95
2011,923	2,06	-1,082
2014,089	0,86	-1,22
2016,26	-0,16	-1,33
2018,426	-1,24	-1,473
2020,604	-1,94	-1,618
2022,776	-2,7	-1,65
2024,954	-3,98	-1,789
2027,126	-4,1	-1,91
2029,292	-4,72	-2,07
2031,47	-6,64	-2,28
2033,635	-7,58	-2,317
2035,807	-7,54	-2,406
2037,973	-8,72	-2,454
2040,151	-9,64	-2,695
2042,335	-11,94	-2,961
2044,507	-12,96	-3,066
2046,685	-14,76	-3,278
2048,863	-15,62	-3,359
2051,028	-18,16	-3,43
2053,206	-17,8	-3,439
2055,384	-19,16	-3,469
2057,55	-19,16	-3,468
2059,716	-19,38	-3,474
2061,894	-19,6	-3,483
2064,072	-19,66	-3,489
2066,238	-19,72	-3,492
2068,415	-19,72	-3,493
2070,593	-19,72	-3,496
2072,777	-19,7	-3,498
2074,943	-19,7	-3,498
2077,121	-19,68	-3,498
2079,293	-19,62	-3,499
2081,471	-19,6	-3,499
2083,643	-19,62	-3,5
2085,82	-19,54	-3,37
2087,998	-19,14	-3,185
2090,17	-16,98	-2,988
2092,348	-15,36	-2,799
2094,52	-12,7	-2,608
2096,692	-10,22	-2,36
2098,87	-9,02	-2,273
2101,054	-7,86	-2,088
2103,225	-7,3	-1,96
2105,403	-6,54	-1,875
2107,575	-5,22	-1,786
2109,753	-4,64	-1,689
2111,919	-4,52	-1,673
2114,103	-3,68	-1,503
2116,281	-2,16	-1,262
2118,453	-1,44	-1,242
2120,618	-1,38	-1,166
2122,796	-0,26	-1,053
2124,974	0	-0,977
2127,14	0,5	-0,908
2129,306	0,32	-0,779
2131,478	1,76	-0,733
2133,65	2,08	-0,663
2135,822	2,92	-0,548
2137,993	3,44	-0,472
2140,171	4,28	-0,384
2142,337	4,06	-0,322
2144,509	5,4	-0,243
2146,681	5,2	-0,199
2148,859	5,92	-0,133
2151,025	6,9	-0,086
2153,197	7,32	-0,066
2155,368	8,04	-0,044
2157,54	8,22	-0,029
2159,718	8,38	-0,018
2161,896	8,52	-0,009
2164,062	8,56	-0,006
2166,24	8,56	-0,003
2168,418	8,54	-0,002
2170,584	8,5	-0,002
2172,761	8,52	-0,001
2174,933	8,48	-0,001
2177,111	8,48	0
2179,283	8,46	0
2181,461	8,46	-0,104
2183,639	8,42	-0,243
2185,817	7,8	-0,332
2187,989	7,32	-0,454
2190,16	6,94	-0,554
2192,326	5,5	-0,591
2194,504	5,5	-0,631
2196,676	5,46	-0,646
2198,842	5,92	-0,655
2201,014	4,28	-0,766
2203,192	3,34	-0,943
2205,358	3	-0,954
2207,535	2,52	-1,158
2209,707	0	-1,29
2211,891	-1,82	-1,626
2214,057	-3,04	-1,796
2216,241	-4,66	-2,12
2218,419	-5,9	-2,244
2220,591	-7,52	-2,436
2222,775	-8,52	-2,593
2224,947	-9,58	-2,736
2227,128	-11,66	-2,951
2229,29	-12,38	-3,04
2231,468	-13,58	-3,216
2233,646	-15,38	-3,324
2235,812	-15,56	-3,364
2237,984	-17,02	-3,404
2240,156	-17,1	-3,43
2242,328	-17,36	-3,44
2244,493	-17,74	-3,452
2246,671	-17,7	-3,467
2248,849	-18,48	-3,482
2251,015	-18,4	-3,484
2253,193	-18,62	-3,491
2255,371	-18,66	-3,494
2257,537	-18,62	-3,496
2259,709	-18,62	-3,497
2261,88	-18,58	-3,498
2264,052	-18,6	-3,498
2266,23	-18,56	-3,499
2268,402	-18,5	-3,499
2270,574	-18,48	-3,5
2272,746	-18,38	-3,5
2274,912	-18,38	-3,418
2277,09	-18,2	-3,228
2279,261	-15,36	-2,957
2281,427	-15,2	-2,854
2283,611	-12,84	-2,679
2285,783	-10,36	-2,42
2287,949	-9,1	-2,293
2290,127	-7,08	-2,093
2292,311	-8,52	-2,221
2294,477	-8,2	-2,21
2296,654	-7,5	-2,08
2298,82	-5,48	-1,852
2300,986	-4,62	-1,7
2303,164	-3,9	-1,62
2305,342	-2,38	-1,454
2307,508	-1,12	-1,282
2309,686	-0,36	-1,09
2311,852	-0,1	-0,99
2314,023	1,2	-0,848
2316,189	1,6	-0,714
2318,361	3,12	-0,545
2320,539	4,28	-0,331
2322,717	5,8	-0,186
2324,889	6,38	-0,132
2327,061	7,6	-0,062
2329,239	8,16	-0,035
2331,404	8,2	-0,026
2333,576	8,34	-0,019
2335,742	8,42	-0,014
2337,908	8,48	-0,008
2340,08	8,48	-0,003
2342,258	8,46	-0,002
2344,424	8,44	-0,001
2346,596	8,4	-0,001
2348,767	8,4	-0,048
2350,933	8,14	-0,267
2353,111	7,92	-0,441
2355,277	5,02	-0,655
2357,443	4,56	-0,73
2359,615	2,54	-0,962
2361,793	1,02	-1,128
2363,971	0,96	-1,286
2366,136	-0,28	-1,349
2368,314	-0,56	-1,426
2370,48	-1,02	-1,501
2372,658	-1,24	-1,566
2374,83	-1,84	-1,665
2376,996	-2,36	-1,724
2379,168	-3,38	-1,904
2381,346	-4,56	-2,124
2383,517	-5,9	-2,255
2385,695	-7,94	-2,576
2387,873	-8,76	-2,747
2390,039	-9,68	-2,844
2392,211	-11,28	-2,975
2394,389	-13	-3,25
2396,561	-14,54	-3,355
2398,733	-16,32	-3,411
2400,898	-16,9	-3,444
2403,076	-17,18	-3,461
2405,242	-17,16	-3,47
2407,426	-17,68	-3,487
2409,604	-17,74	-3,489
2411,77	-17,8	-3,493
2413,942	-17,78	-3,495
2416,12	-17,78	-3,496
2418,291	-17,78	-3,497
2420,457	-17,76	-3,498
2422,635	-17,74	-3,498
2424,807	-17,7	-3,499
2426,985	-17,68	-3,499
2429,157	-17,64	-3,5
2431,341	-17,62	-3,5
2433,513	-17,58	-3,405
2435,684	-17,58	-3,398
2437,85	-17,52	-3,381
2440,028	-17,48	-3,326
2442,206	-15,74	-2,97
2444,378	-14,24	-2,94
2446,544	-14,84	-2,918
2448,722	-14,66	-2,853
2450,894	-13,28	-2,829
2453,072	-11,74	-2,725
2455,249	-9,48	-2,499
2457,421	-9,58	-2,416
2459,587	-8,14	-2,347
2461,771	-8,14	-2,193
2463,937	-6,8	-2,129
2466,127	-5,28	-1,908
2468,299	-4,44	-1,765
2470,477	-2,82	-1,567
2472,642	-3,06	-1,539
2474,82	-1,2	-1,283
2476,992	-0,76	-1,204
2479,17	0,48	-1,042
2481,342	0,18	-0,99
2483,508	1,66	-0,842
2485,68	1,12	-0,828
2487,845	1,5	-0,825
2490,017	1,94	-0,69
2492,201	2,94	-0,542
2494,367	3,84	-0,419
2496,545	5,9	-0,181
2498,729	4,8	-0,137
2500,907	7,6	-0,065
2503,073	7,78	-0,045
2505,245	8,04	-0,04
2507,422	8,26	-0,02
2509,594	8,4	-0,01
2511,772	8,46	-0,007
2513,944	8,46	-0,004
2516,11	8,44	-0,002
2518,288	8,44	-0,002
2520,472	8,42	-0,001
2522,637	8,42	-0,001
2524,821	8,42	-0,001
2526,993	8,38	0
2529,159	8,4	0
2531,337	8,36	-0,097
2533,515	7,82	-0,335
2535,687	7,38	-0,461
2537,871	5,02	-0,678
2540,055	3,36	-0,935
2542,232	1,48	-1,123
2544,398	1,48	-1,219
2546,57	0,14	-1,34
2548,748	-0,52	-1,485
2550,92	-1,66	-1,697
2553,098	-3,38	-1,928
2555,276	-4,32	-2,126
2557,448	-5,34	-2,311
2559,625	-6,62	-2,44
2561,809	-8,4	-2,686
2563,975	-8,78	-2,817
2566,153	-11,56	-3,155
2568,331	-12,38	-3,274
2570,497	-13,3	-3,336
2572,675	-14,02	-3,388
2574,865	-16,06	-3,441
2577,036	-16,32	-3,457
2579,22	-16,82	-3,476
2581,392	-16,92	-3,483
2583,57	-16,88	-3,484
2585,742	-17,08	-3,491
2587,914	-17,08	-3,495
2590,086	-17,08	-3,497
2592,258	-17,06	-3,498
2594,429	-17,06	-3,499
2596,607	-17,02	-3,499
2598,779	-17,02	-3,499
2600,951	-16,98	-3,499
2603,135	-16,96	-3,499
2605,307	-16,94	-3,5
2607,479	-16,9	-3,456
2609,651	-16,86	-3,338
2611,816	-16,74	-3,243
2614	-16,36	-3,206
2616,178	-14,58	-3,003
2618,356	-13,16	-2,837
2620,534	-11,56	-2,627
2622,718	-8,84	-2,463
2624,89	-8,7	-2,427
2627,08	-6,9	-2,205
2629,251	-6,28	-2,1
2631,417	-4,24	-1,833
2633,589	-3	-1,598
2635,767	-2,24	-1,468
2637,933	-1,88	-1,424
2640,105	-1,12	-1,293
2642,277	0,28	-1,108
2644,443	0,82	-0,933
2646,626	2	-0,741
2648,798	3,08	-0,53
2650,964	3,36	-0,498
2653,148	3,7	-0,45
2655,332	4,26	-0,302
2657,498	5,4	-0,234
2659,676	4,82	-0,276
2661,848	5,9	-0,152
2664,013	5,32	-0,157
2666,185	6,08	-0,141
2668,357	7,26	-0,07
2670,529	7,5	-0,055
2672,701	7,22	-0,065
2674,873	7,6	-0,062
2677,063	7,72	-0,052
2679,247	7,7	-0,045
2681,418	7,76	-0,052
2683,602	7,58	-0,05
2685,78	7,72	-0,05
2687,958	7,94	-0,042
2690,124	7,8	-0,04
2692,296	8,08	-0,033
2694,474	7,86	-0,031
2696,64	8,18	-0,024
2698,811	8,3	-0,014
2700,983	8,38	-0,008
2703,155	8,4	-0,006
2705,327	8,4	-0,003
2707,499	8,38	-0,002
2709,677	8,36	-0,001
2711,849	8,34	-0,001
2714,021	8,32	0
2716,204	8,3	-0,066
2718,382	8,3	-0,309
2720,548	7,82	-0,389
2722,72	6,34	-0,532
2724,892	5,4	-0,637
2727,064	4,38	-0,785
2729,236	2,96	-0,96
2731,42	1,06	-1,215
2733,585	0,56	-1,3
2735,757	-0,06	-1,41
2737,929	-2,26	-1,701
2740,101	-2,76	-1,896
2742,267	-3,72	-2,061
2744,439	-5,08	-2,304
2746,605	-5,94	-2,438
2748,777	-7,28	-2,653
2750,948	-8,66	-2,785
2753,12	-9,22	-2,964
2755,298	-11,36	-3,206
2757,476	-12,4	-3,333
2759,654	-14,8	-3,417
2761,832	-15,74	-3,449
2764,01	-16,16	-3,472
2766,182	-16,3	-3,482
2768,359	-16,46	-3,491
2770,537	-16,46	-3,494
2772,703	-16,5	-3,496
2774,875	-16,5	-3,498
2777,053	-16,48	-3,499
2779,225	-16,44	-3,499
2781,397	-16,4	-3,499
2783,575	-16,34	-3,498
2785,752	-16,32	-3,338
2787,93	-15,32	-3,16
2790,12	-14,28	-2,989
2792,286	-14,22	-2,894
2794,47	-12,32	-2,883
2796,648	-11,14	-2,812
2798,82	-11,66	-2,76
2800,992	-9,4	-2,591
2803,163	-10,02	-2,534
2805,329	-8,84	-2,513
2807,507	-7,12	-2,334
2809,691	-6,18	-2,149
2811,857	-6,08	-2,139
2814,029	-5,24	-2,012
2816,201	-5,34	-1,902
2818,373	-2,36	-1,584
2820,544	-1,76	-1,485
2822,71	-1,52	-1,346
2824,894	-0,26	-1,149
2827,084	1,04	-0,988
2829,25	1,5	-0,879
2831,434	1,82	-0,753
2833,624	2,72	-0,563
2835,796	4,14	-0,41
2837,973	4,2	-0,324
2840,139	4,74	-0,243
2842,311	5,02	-0,211
2844,495	6,64	-0,099
2846,679	7,38	-0,05
2848,851	7,94	-0,033
2851,023	8,22	-0,018
2853,195	8,22	-0,013
2855,366	8,3	-0,01
2857,55	8,32	-0,006
2859,722	8,32	-0,005
2861,894	8,34	-0,004
2864,066	8,34	-0,004
2866,238	8,34	-0,002
2868,404	8,32	-0,002
2870,576	8,3	-0,001
2872,742	8,26	-0,001
2874,919	8,24	0
2877,103	8,24	-0,215
2879,275	8,08	-0,328
2881,453	6,8	-0,495
2883,625	6,24	-0,547
2885,791	4,34	-0,76
2887,975	2,82	-1,015
2890,152	1,52	-1,14
2892,318	1,84	-1,177
2894,496	0,9	-1,278
2896,68	-0,3	-1,461
2898,852	-0,8	-1,555
2901,024	-2,14	-1,736
2903,202	-3,22	-1,975
2905,374	-4,16	-2,16
2907,551	-4,84	-2,263
2909,723	-5,66	-2,4
2911,901	-6,74	-2,541
2914,085	-8,06	-2,807
2916,251	-8,52	-2,87
2918,429	-9,26	-2,956
2920,613	-9,78	-3,08
2922,803	-10,76	-3,228
2924,969	-11,98	-3,315
2927,146	-13,42	-3,374
2929,318	-14,4	-3,418
2931,508	-15,28	-3,459
2933,686	-15,52	-3,471
2935,864	-15,8	-3,485
2938,042	-15,98	-3,492
2940,22	-16,02	-3,496
2942,392	-16	-3,497
2944,575	-15,98	-3,498
2946,765	-15,94	-3,499
2948,931	-15,9	-3,499
2951,103	-15,88	-3,499
2953,287	-15,84	-3,5
2955,453	-15,86	-3,5
2957,625	-15,82	-3,361
2959,803	-15,2	-3,17
2961,974	-14,96	-3,151
2964,146	-15,1	-3,14
2966,312	-15,18	-3,144
2968,49	-13,2	-2,94
2970,674	-13,52	-2,883
2972,84	-10,86	-2,77
2975,018	-10,3	-2,652
2977,19	-9,84	-2,599
2979,355	-8,2	-2,514
2981,527	-7,48	-2,384
2983,705	-6,48	-2,211
2985,871	-6,26	-2,093
2988,049	-5,04	-1,981
2990,227	-4,54	-1,952
2992,399	-4,04	-1,868
2994,571	-3,96	-1,727
2996,736	-2,78	-1,616
2998,908	-2,76	-1,616
3001,092	-1,46	-1,499
3003,264	-0,9	-1,292
3005,442	-0,22	-1,2
3007,62	0,34	-1,114
3009,798	1,22	-0,909
3011,969	2,08	-0,709
3014,153	3,34	-0,497
3016,319	3,64	-0,443
3018,491	4,32	-0,323
3020,675	5,58	-0,176
3022,841	6,18	-0,133
3025,013	7,04	-0,08
3027,197	7,54	-0,056
3029,369	7,76	-0,037
3031,546	7,94	-0,026
3033,718	8,14	-0,014
3035,89	8,2	-0,013
3038,062	8,24	-0,009
3040,228	8,22	-0,008
3042,412	8,28	-0,005
3044,59	8,26	-0,004
3046,762	8,28	-0,004
3048,933	8,28	-0,002
3051,123	8,26	-0,002
3053,289	8,24	-0,001
3055,461	8,22	-0,001
3057,645	8,2	0
3059,811	8,2	0
3061,989	8,2	-0,012
3064,185	8,18	-0,16
3066,356	7,86	-0,27
3068,528	6,64	-0,474
3070,7	4,8	-0,732
3072,878	2,56	-0,974
3075,068	1,64	-1,094
3077,24	0,7	-1,278
3079,412	0,74	-1,272
3081,59	-0,1	-1,375
3083,755	0,1	-1,344
3085,939	0,46	-1,338
3088,111	-0,46	-1,453
3090,277	-0,12	-1,449
3092,455	-0,64	-1,503
3094,621	-1,2	-1,616
3096,799	-1,82	-1,783
3098,971	-3,02	-1,941
3101,142	-3,28	-2,104
3103,32	-4,6	-2,307
3105,498	-5,3	-2,469
3107,676	-7,06	-2,721
3109,872	-9,22	-2,998
3112,038	-9,36	-3,09
3114,222	-9,8	-3,239
3116,4	-10,66	-3,277
3118,565	-12,44	-3,344
3120,749	-13,38	-3,42
3122,921	-13,34	-3,419
3125,093	-14,24	-3,446
3127,265	-14,68	-3,457
3129,449	-14,98	-3,47
3131,615	-14,84	-3,471
3133,793	-15,16	-3,483
3135,97	-15,16	-3,485
3138,136	-15,2	-3,486
3140,314	-15,26	-3,492
3142,48	-15,32	-3,494
3144,658	-15,32	-3,497
3146,836	-15,32	-3,498
3149,002	-15,32	-3,498
3151,18	-15,28	-3,499
3153,351	-15,24	-3,499
3155,517	-15,24	-3,499
3157,695	-15,22	-3,499
3159,867	-15,18	-3,5
3162,045	-15,16	-3,482
3164,223	-15,14	-3,334
3166,389	-15,1	-3,306
3168,561	-15,1	-3,32
3170,744	-14,62	-3,196
3172,91	-13,96	-3,132
3175,088	-13,54	-3,07
3177,254	-13,98	-3,001
3179,438	-10,26	-2,762
3181,61	-9,1	-2,624
3183,776	-10,4	-2,673
3185,96	-9,72	-2,634
3188,125	-8,38	-2,587
3190,303	-6,82	-2,345
3192,481	-5,7	-2,232
3194,659	-5,18	-2,092
3196,831	-5,1	-2,066
3199,009	-4,42	-1,996
3201,175	-5,34	-2,069
3203,359	-4,94	-2,017
3205,536	-3,9	-1,887
3207,714	-3,94	-1,838
3209,892	-2,96	-1,713
3212,07	-1,76	-1,536
3214,236	-1,68	-1,433
3216,408	-1,06	-1,383
3218,586	-1,06	-1,36
3220,758	-0,54	-1,228
3222,935	0,04	-1,078
3225,101	0,86	-1,012
3227,285	1,94	-0,795
3227,789	8,12	0