File: ensaios_Ciclicos/_30perc/_1gap/entrada/_1.txt
Time (s)	Load (N)	Displacement (mm)
0	1	-0,035
1,576	-5	-0,789
3,232	-28	-3,085
4,774	-18,5	-2,798
6,34	2,5	-0,048
8,057	0	-0,22
9,67	-23	-2,804
11,408	-27,5	-3,478
13,138	-10,5	-2,156
14,734	3,5	-0,002
16,348	-7,5	-1,387
18,064	-27	-3,438
19,707	-18	-2,959
21,243	3	-0,012
22,852	-1,5	-0,68
24,496	-24,5	-2,939
26,146	-22,5	-3,35
27,693	2	-0,48
29,283	0	-0,3
30,873	-24	-3,018
32,457	-18	-3,065
34,023	3	-0,303
35,66	0,5	-0,271
37,382	-14,5	-2,29
39,026	-25	-3,479
40,58	-4	-1,228
42,218	3,5	-0,016
43,76	-15	-2,31
88,961	4	-0,001
90,542	-2,5	-1,134
92,087	-23,5	-3,498
93,623	-6,5	-1,862
95,129	4	-0,013
96,623	-14,5	-2,48
98,105	-16,5	-3,092
99,605	4	-0,001
101,099	-3	-1,285
102,623	-23,5	-3,495
104,177	-4,5	-1,618
105,797	4	-0,005
107,266	-13,5	-2,339
108,712	-16	-3,095
110,23	4	-0,09
111,79	-1	-0,868
113,344	-23	-3,499
114,838	-7	-1,938
116,441	4	-0,003
117,976	-7,5	-1,752
119,554	-23	-3,491
121,113	-4	-1,505
122,584	3,5	-0,062
124,042	-22,5	-3,156
125,613	-13	-2,824
127,108	4	-0,001
128,589	-6	-1,627
130,083	-22	-3,466
131,518	2,5	-0,472
133,065	0,5	-0,584
134,649	-22,5	-3,231
136,197	-12	-2,638
137,655	4	-0,004
139,173	-8,5	-1,909
140,714	-22	-3,482
142,226	-1	-0,947
144,182	4	-0,059
145,652	-3	-1,323
147,116	-22,5	-3,484
148,55	1	-0,652
150,038	0	-0,703
151,626	-22,5	-3,316
153,115	-8,5	-2,26
154,544	4,5	-0,016
156,032	-14,5	-2,445
157,549	-16,5	-3,254
159,055	4	-0,178
160,495	-3	-1,412
161,954	-22	-3,479
163,423	0	-0,932
164,881	0	-0,545
166,393	-22	-3,499
167,923	-7	-2,102
169,387	4,5	-0,012
170,907	-13	-2,381
172,399	-16	-3,17
173,881	4,5	0
175,351	-4	-1,519
176,881	-22	-3,49
178,819	-18,5	-3,341
180,372	2	-0,592
181,884	0,5	-0,599
183,379	-22	-3,499
184,788	-3,5	-1,414
186,336	4	-0,048
187,824	-18	-2,905
189,324	-12,5	-2,8
190,825	4	-0,001
192,293	-5	-1,756
193,775	-21	-3,458
195,221	3,5	-0,384
196,655	-2	-1,26
198,113	-21,5	-3,487
199,577	-1,5	-0,98
201,041	1	-0,479
202,505	-21,5	-3,499
203,975	-5	-1,789
205,391	3,5	-0,088
206,807	-21,5	-3,47
208,373	-10,5	-2,592
209,813	4,5	-0,006
211,276	-10,5	-2,204
212,728	-15	-3,16
214,144	4,5	-0,001
215,542	-9	-2,118
216,952	-15,5	-3,12
218,38	4,5	-0,001
219,851	-5	-1,779
221,278	-19,5	-3,406
222,718	4,5	-0,169
224,158	-2,5	-1,384
225,586	-21	-3,467
226,995	3	-0,382
228,417	-2,5	-1,302
229,881	-21,5	-3,491
231,333	-0,5	-0,807
232,767	0	-0,807
234,213	-21,5	-3,496
235,719	-3,5	-1,503
237,255	4,5	-0,027
238,779	-13,5	-2,554
240,273	-14,5	-3,056
241,653	4,5	-0,003
243,093	-8,5	-2,095
244,569	-15	-3,373
246,038	4,5	-0,184
247,502	-1,5	-1,244
248,949	-20,5	-3,483
250,376	1,5	-0,613
251,804	-0,5	-0,968
253,28	-21	-3,494
254,732	-2,5	-1,148
256,208	2,5	-0,314
257,642	-21	-3,499
259,099	-4,5	-1,728
260,564	4	-0,058
262,021	-18,5	-3,005
263,473	-8,5	-2,375
264,907	4,5	-0,011
266,347	-14,5	-2,658
267,781	-10,5	-2,697
269,287	4,5	-0,002
270,661	-12	-2,358
272,131	-13,5	-3,17
273,565	4,5	-0,001
274,993	-5,5	-1,874
276,433	-17,5	-3,372
277,819	4,5	-0,001
279,205	-8	-2,074
280,578	-13	-2,957
282,054	4,5	-0,001
283,44	-9	-2,163
284,904	-15	-3,294
286,302	4,5	-0,002
288,246	4,5	-0,018
289,698	-15,5	-2,838
330,124	-13,5	-2,664
331,545	-9	-2,627
332,986	4,5	-0,006
334,413	-12	-2,35
335,865	-12	-2,921
337,306	4,5	-0,002
338,721	-8,5	-2,105
340,143	-13,5	-3,166
341,529	4,5	-0,002
342,909	-12	-2,495
344,337	-10	-2,767
345,777	4,5	-0,004
347,241	-9	-2,202
348,657	-12	-2,999
350,103	4,5	-0,002
351,53	-8	-2,15
352,934	-12,5	-3,011
354,326	4,5	-0,003
355,742	-10	-2,368
357,086	-9	-2,557
358,466	4,5	-0,016
359,859	-19	-3,02
361,232	-5	-2,006
362,63	4	-0,062
364,082	-19	-3,13
365,45	-4,5	-1,873
366,877	4	-0,054
407,033	0	-0,996
408,479	-19,5	-3,494
409,883	0	-0,898
411,323	0,5	-0,728
412,715	-19,5	-3,492
414,095	2,5	-0,598
415,463	-2	-1,421
416,825	-17,5	-3,405
418,229	4,5	-0,001
419,621	-5	-1,89
420,971	-12,5	-3,106
422,332	4,5	-0,005
423,742	-11,5	-2,519
425,099	-7,5	-2,454
426,514	4,5	-0,012
427,906	-16	-2,903
429,274	-5	-2,168
430,63	3,5	-0,108
432,022	-19,5	-3,499
433,408	-2	-1,345
434,77	1	-0,657
436,144	-19,5	-3,493
437,554	0	-0,947
438,933	0	-0,948
440,307	-19,5	-3,48
441,669	4	-0,334
443,061	-2,5	-1,515
444,459	-18	-3,437
483,619	1,5	-0,522
484,999	-19,5	-3,495
486,361	1,5	-0,637
488,215	4,5	-0,005
489,6	-13	-2,698
490,974	-7	-2,425
492,36	4,5	-0,024
493,734	-19	-3,321
495,09	-3	-1,633
496,44	1,5	-0,477
497,814	-19	-3,495
499,242	-1	-1,106
500,586	0	-0,964
501,984	-19	-3,487
503,37	3,5	-0,511
504,726	-2	-1,525
506,076	-15,5	-3,357
507,425	4,5	-0,002
508,793	-7,5	-2,154
510,173	-10	-2,81
511,535	4,5	-0,007
512,915	-13	-2,739
514,271	-5,5	-2,267
515,627	4,5	-0,046
517,013	-19	-3,466
518,393	-3	-1,67
519,809	3,5	-0,136
595,686	-11	-2,634
597,03	-5,5	-2,286
598,392	4,5	-0,045
599,736	-18,5	-3,5
601,091	-2	-1,478
602,436	1,5	-0,613
603,822	-18,5	-3,496
605,208	0	-0,835
606,564	-0,5	-1,19
607,92	-18	-3,459
609,294	4,5	-0,048
610,65	-4,5	-1,969
612	-10,5	-2,976
613,361	4,5	-0,006
614,705	-15	-2,84
616,091	-5,5	-2,244
617,453	4,5	-0,055
618,81	-18,5	-3,499
620,153	-1,5	-1,31
621,515	1	-0,696
622,865	-18,5	-3,489
624,209	3,5	-0,376
625,571	-2	-1,565
626,939	-15,5	-3,373
628,751	-4	-1,906
630,131	4	-0,113
631,486	-18,5	-3,499
707,287	-6,5	-2,465
708,63	4,5	-0,033
710,01	-18	-3,295
711,366	-2,5	-1,673
712,716	2	-0,384
714,072	-18	-3,495
715,422	0,5	-0,697
716,771	-0,5	-1,368
718,128	-15,5	-3,41
719,489	4,5	-0,001
720,845	-6,5	-2,27
722,213	-8,5	-2,76
723,581	5	-0,01
724,943	-17,5	-2,955
726,311	-4	-2,052
727,697	4,5	-0,06
729,053	-18	-3,499
730,415	-1,5	-1,354
731,795	1,5	-0,541
733,151	-18	-3,493
734,518	1	-0,635
735,868	-1	-1,41
737,248	-15	-3,429
738,616	4,5	-0,001
739,96	-6	-2,253
741,304	-7,5	-2,608
742,648	4,5	-0,019
744,004	-17	-3,21
745,354	-2,5	-1,693
746,71	2,5	-0,339
748,042	-18	-3,494
749,392	2	-0,628
750,736	-1,5	-1,434
752,092	-15	-3,407
753,471	4,5	-0,001
754,815	-6,5	-2,207
756,177	-9	-2,761
757,527	4,5	-0,012
758,877	-16	-3,148
760,258	-3,5	-1,895
761,589	3	-0,244
762,987	-18	-3,499
764,337	-1	-1,018
765,663	0	-1,094
767,025	-17	-3,464
768,363	4,5	0
769,737	-4	-2
771,104	-11	-3,023
772,466	4,5	-0,005
773,858	-10,5	-2,593
775,22	-5,5	-2,38
776,576	4,5	-0,039
777,956	-18	-3,327
779,312	-2	-1,66
780,674	3	-0,253
856,047	-10,5	-3,18
857,397	4,5	-0,006
858,753	-14,5	-2,888
860,103	-3	-1,907
861,471	3,5	-0,132
862,822	-17,5	-3,498
864,183	-0,5	-1,068
865,557	0,5	-0,958
866,919	-17	-3,474
868,281	4,5	-0,085
869,631	-4,5	-2,056
871,005	-9	-2,933
872,385	5	-0,005
873,74	-13,5	-2,851
875,085	-3	-1,998
876,429	3	-0,2
877,802	-17,5	-3,498
879,158	0	-0,858
880,526	0	-1,17
881,918	-17	-3,474
883,262	4,5	-0,091
884,666	-3	-1,769
886,028	-11,5	-3,197
887,384	4,5	-0,003
888,758	-10,5	-2,602
890,102	-5	-2,346
891,458	4,5	-0,04
892,837	-17,5	-3,337
894,193	-2,5	-1,63
895,555	2	-0,35
896,905	-17,5	-3,496
898,255	1,5	-0,672
899,665	0	-1,055
901,021	-16,5	-3,46
902,377	4,5	-0,048
903,721	-4,5	-2,02
905,083	-9,5	-3,015
906,445	4,5	-0,005
907,807	-13	-2,788
909,169	-4,5	-2,25
910,512	4	-0,098
911,85	-17,5	-3,498
913,212	-0,5	-1,028
914,568	0,5	-0,971
915,906	-16,5	-3,463
917,273	4,5	-0,154
918,624	-3,5	-1,867
920,442	-17	-3,36
921,786	-1,5	-1,51
923,142	1,5	-0,527
924,486	-17	-3,491
925,847	2,5	-0,553
927,191	-1,5	-1,521
928,559	-15	-3,408
1040,663	5	-0,023
1042,025	-16,5	-3,5
1043,387	-1,5	-1,501
1044,719	1	-0,814
1046,069	-16,5	-3,484
1047,401	5	-0,001
1048,745	-5,5	-2,145
1050,106	-8	-2,82
1051,439	5	-0,017
1052,788	-16,5	-3,322
1054,132	-1,5	-1,503
1055,47	1	-0,73
1056,838	-17	-3,487
1058,176	4,5	-0,146
1059,502	-5	-2,181
1060,876	-8,5	-2,92
1062,22	4,5	-0,013
1063,582	-16,5	-3,192
1064,932	-2,5	-1,792
1066,276	2	-0,391
1068,075	-5	-2,108
1069,431	-7,5	-2,796
1070,775	5	-0,018
1072,113	-16,5	-3,438
1073,475	-2	-1,617
1074,831	2	-0,499
1076,175	-17	-3,492
1077,507	4	-0,324
1078,875	-2,5	-1,73
1080,231	-12	-3,243
1081,569	4,5	-0,006
1082,925	-13,5	-2,959
1084,257	-3,5	-1,954
1085,595	2,5	-0,237
1086,944	-17	-3,498
1088,276	0,5	-0,725
1089,626	-0,5	-1,322
1090,976	-15	-3,411
1092,314	5	-0,001
1093,7	-7	-2,393
1095,062	-7	-2,661
1096,406	4,5	-0,023
1097,762	-16,5	-3,353
1099,118	-2,5	-1,658
1100,462	1,5	-0,525
1101,806	-17	-3,492
1103,143	4	-0,345
1104,487	-3	-1,856
1105,813	-8,5	-2,936
1107,181	5	-0,008
1108,525	-15,5	-3,119
1109,869	-2,5	-1,791
1111,255	3,5	-0,199
1112,593	-16,5	-3,497
1113,937	1,5	-0,615
1299,212	-9,5	-3,124
1300,562	5	-0,006
1301,894	-15	-3,081
1303,226	-2	-1,705
1304,57	2,5	-0,434
1305,896	-16	-3,492
1307,264	4	-0,544
1308,596	-1	-1,5
1309,964	-13,5	-3,373
1311,307	5	-0,002
1312,652	-7,5	-2,444
1313,995	-5	-2,491
1315,357	5	-0,03
1316,713	-16	-3,413
1318,045	-1	-1,46
1319,413	1,5	-0,575
1320,757	-16	-3,491
1322,095	4,5	-0,277
1323,445	-3	-1,888
1324,801	-9,5	-3,054
1326,145	5	-0,008
1327,477	-15,5	-3,177
1328,857	-2,5	-1,882
1330,2	3	-0,262
1331,568	-16	-3,497
1332,9	2	-0,608
1334,244	-1,5	-1,584
1335,588	-11,5	-3,301
1336,944	4,5	-0,003
1338,276	-11,5	-2,78
1339,626	-3,5	-2,205
1340,976	4	-0,069
1342,332	-16	-3,499
1343,7	-1	-1,357
1345,032	1	-0,815
1346,363	-15,5	-3,483
1347,738	4,5	-0,274
1349,087	-3	-1,901
1350,419	-9	-2,968
1351,787	4,5	-0,008
1353,119	-15,5	-3,206
1354,457	-2	-1,722
1355,783	1,5	-0,523
1357,133	-16	-3,492
1358,495	3,5	-0,513
1359,857	-1,5	-1,568
1361,189	-11	-3,268
1362,545	4,5	-0,004
1363,877	-12,5	-2,85
1365,22	-3	-2,101
1366,565	3,5	-0,147
1367,938	-16	-3,499
1369,282	0	-0,982
1370,62	0	-1,247
1371,97	-14,5	-3,431
1373,332	4,5	-0,001
1374,67	-8,5	-2,534
1376,014	-4	-2,322
1377,388	4,5	-0,055
1378,72	-15,5	-3,499
1380,052	0	-1,002
1381,389	0	-1,231
1382,734	-14,5	-3,43
1384,101	4,5	-0,001
1385,433	-7,5	-2,415
1386,789	-5	-2,527
1388,139	4,5	-0,032
1389,501	-15,5	-3,456
1390,833	-1	-1,45
1392,165	1	-0,792
1393,545	-15,5	-3,489
1394,901	4,5	-0,352
1396,257	-2	-1,747
1397,589	-9,5	-3,112
1398,92	5	-0,007
1400,27	-15	-3,059
1401,621	-2,5	-1,858
1402,977	3	-0,266
1404,32	-16	-3,496
1405,652	4	-0,507
1406,978	-2,5	-1,8
1408,34	-10,5	-3,198
1409,702	5	-0,005
1411,034	-14	-2,984
1412,366	-2	-1,839
1413,71	2,5	-0,333
1415,114	-15,5	-3,498
1416,463	0,5	-0,797
1417,801	-0,5	-1,446
1419,151	-12,5	-3,367
1420,483	5	-0,003
1421,821	-12,5	-2,915
1423,153	-2	-1,875
1424,492	2,5	-0,325
1425,841	-16	-3,496
1427,191	3,5	-0,545
1428,559	-1	-1,49
1429,891	-11	-3,282
1431,235	4,5	-0,004
1432,579	-12	-2,884
1433,935	-3	-2,036
1435,285	3	-0,173
1436,617	-16	-3,497
1437,942	2,5	-0,582
1439,274	-1	-1,65
1440,618	-11,5	-3,279
1441,95	5	-0,004
1443,306	-11	-2,793
1444,65	-3	-2,106
1445,994	3,5	-0,154
1447,344	-15,5	-3,498
1448,676	0	-0,869
1450,026	0	-1,16
1451,375	-15	-3,455
1452,707	5	-0,001
1454,051	-5	-2,18
1455,383	-6	-2,664
1456,727	5	-0,014
1458,083	-15	-3,191
1459,433	-2,5	-1,84
1460,777	3	-0,256
1462,109	-15,5	-3,495
1463,459	2	-0,602
1464,803	-0,5	-1,409
1466,141	-12,5	-3,341
1467,485	5	-0,002
1468,835	-7	-2,472
1470,166	-4	-2,329
1471,499	4	-0,065
1472,848	-15,5	-3,499
1474,21	-0,5	-1,236
1475,566	1	-0,726
1476,91	-15,5	-3,484
1478,242	5	-0,172
1479,58	-3	-1,906
1480,93	-8	-2,932
1482,262	5	-0,01
1483,594	-15	-3,184
1484,944	-1,5	-1,688
1486,276	2	-0,421
1487,626	-15,5	-3,495
1488,957	3	-0,545
1490,289	-1,5	-1,595
1491,627	-9,5	-3,225
1492,983	5	-0,003
1494,315	-10,5	-2,794
1495,653	-3	-1,998
1496,997	3,5	-0,138
1498,329	-15,5	-3,497
1499,697	0	-0,936
1501,029	0	-1,203
1502,361	-13,5	-3,409
1503,693	5	-0,002
1505,036	-6,5	-2,445
1506,386	-4,5	-2,45
1507,736	5	-0,035
1509,074	-15	-3,486
1510,4	-0,5	-1,347
1511,744	1,5	-0,708
1513,088	-15	-3,483
1514,414	5	-0,105
1515,746	-3	-1,943
1517,078	-7,5	-2,895
1518,41	5	-0,009
1519,748	-15	-3,088
1521,08	-2	-1,735
1522,417	2,5	-0,38
1523,749	-15	-3,493
1525,099	3	-0,531
1526,444	-0,5	-1,499
1527,787	-12	-3,347
1529,119	5	-0,002
1530,463	-8,5	-2,57
1531,795	-3,5	-2,23
1533,157	4,5	-0,057
1534,489	-15,5	-3,499
1535,833	0	-0,984
1537,159	0	-1,18
1538,545	-15	-3,467
1539,876	5	0
1541,238	-3	-1,993
1542,582	-7,5	-2,905
1543,914	5	-0,01
1545,246	-15	-3,157
1546,572	-1,5	-1,637
1547,916	2	-0,438
1549,248	-15,5	-3,492
1550,574	4,5	-0,326
1551,906	-2	-1,785
1553,25	-10	-3,122
1554,582	5	-0,005
1555,932	-11	-2,864
1557,264	-2	-1,937
1558,595	3,5	-0,192
1559,939	-15,5	-3,497
1561,271	0,5	-0,754
1562,603	-0,5	-1,369
1563,947	-13,5	-3,375
1565,291	4,5	-0,002
1566,623	-8	-2,525
1567,955	-4	-2,328
1569,287	4,5	-0,047
1570,625	-15,5	-3,499
1571,951	-0,5	-1,085
1573,277	0	-1,048
1574,602	-14,5	-3,439
1575,928	5	-0,001
1577,266	-5,5	-2,358
1578,598	-4,5	-2,378
1579,942	4,5	-0,049
1581,292	-15	-3,5
1582,625	-1	-1,354
1583,962	1,5	-0,703
1585,3	-15	-3,486
1586,632	4,5	-0,286
1587,964	-2	-1,874
1589,308	-8	-2,935
1590,64	5	-0,008
1591,99	-12	-2,966
1593,321	-2,5	-1,887
1594,677	3,5	-0,152
1596,003	-15,5	-3,497
1597,341	1	-0,775
1598,685	0	-1,288
1600,011	-13	-3,387
1601,343	4,5	-0,002
1602,675	-7	-2,484
1604,013	-4,5	-2,364
1605,357	4,5	-0,043
1606,719	-15	-3,45
1608,087	-1	-1,467
1609,418	1,5	-0,593
1610,751	-15,5	-3,488
1612,088	4	-0,344
1613,42	-2	-1,716
1614,752	-9,5	-3,116
1616,084	5	-0,006
1617,428	-12	-2,942
1618,754	-2,5	-1,866
1620,098	3	-0,183
1621,43	-15,5	-3,497
1622,756	2	-0,615
1624,106	0	-1,424
1625,45	-13,5	-3,381
1626,781	4,5	-0,002
1628,126	-7	-2,494
1629,457	-3	-2,254
1630,789	4	-0,079
1632,134	-15	-3,499
1633,465	-0,5	-1,054
1634,809	0,5	-1,02
1636,147	-15	-3,456
1637,495	5	-0,001
1638,829	-4,5	-2,195
1640,173	-5,5	-2,573
1641,517	4,5	-0,024
1642,843	-15	-3,462
1644,175	-1	-1,381
1645,512	1,5	-0,724
1646,844	-15	-3,476
1648,194	4,5	-0,042
1649,526	-3	-2,016
1650,87	-7,5	-2,877
1652,214	4,5	-0,008
1653,576	-14	-3,026
1654,926	-2,5	-1,913
1656,276	3,5	-0,142
1657,638	-15,5	-3,498
1658,964	0	-0,922
1660,296	0	-1,234
1661,669	-15	-3,46
1663,008	4,5	-0,002
1664,339	-4	-2,104
1665,671	-6	-2,66
1667,009	5	-0,019
1668,347	-15	-3,446
1669,697	-1,5	-1,549
1671,03	1,5	-0,612
1672,403	-15,5	-3,493
1673,783	1	-0,682
1675,103	-0,5	-1,508
1676,441	-13	-3,352
1677,767	4,5	-0,003
1679,086	-10,5	-2,772
1680,448	-3,5	-2,172
1681,78	4	-0,1
1683,106	-15	-3,499
1684,456	-0,5	-1,079
1685,788	0,5	-1,019
1687,12	-15	-3,445
1688,452	4,5	-0,001
1689,778	-5,5	-2,408
1691,128	-5	-2,466
1692,46	4,5	-0,039
1693,786	-15	-3,499
1695,118	-1	-1,192
1696,479	1	-0,813
1697,812	-15	-3,475
1699,149	4,5	-0,002
1700,475	-4,5	-2,12
1701,819	-7	-2,762
1703,181	4,5	-0,011
1704,501	-15	-3,3
1705,857	-1,5	-1,594
1707,183	2	-0,528
1708,527	-15	-3,492
1709,872	2,5	-0,553
1711,269	0	-1,24
1712,601	-14	-3,412
1713,951	4,5	-0,001
1715,306	-4	-2,189
1716,639	-6	-2,611
1717,97	4,5	-0,025
1719,29	-15	-3,489
1720,628	-1	-1,407
1721,96	1,5	-0,706
1723,304	-15,5	-3,487
1724,63	4,5	-0,244
1725,974	-2,5	-1,79
1727,306	-8,5	-3,084
1728,638	5	-0,005
1729,97	-13,5	-2,96
1731,302	-2	-1,862
1732,627	2,5	-0,285
1733,953	-15	-3,495
1735,279	3	-0,534
1736,611	-1	-1,616
1737,937	-9,5	-3,181
1739,287	5	-0,003
1740,619	-9,5	-2,724
1741,951	-3	-2,13
1743,277	3,5	-0,113
1744,603	-15	-3,498
1745,935	0	-0,868
1747,261	0	-1,302
1748,593	-12	-3,392
1749,918	5	-0,002
1751,256	-6,5	-2,439
1752,588	-4	-2,404
1753,92	4,5	-0,045
1755,246	-15	-3,5
1756,566	-0,5	-1,26
1757,904	0,5	-0,884
1759,224	-15	-3,474
1760,562	4,5	-0,048
1761,93	-3	-1,888
1763,262	-7,5	-2,944
1764,594	5	-0,009
1765,92	-15	-3,169
1767,251	-1,5	-1,661
1768,578	2	-0,505
1769,915	-15	-3,491
1771,247	4,5	-0,385
1772,579	-2	-1,754
1773,911	-8	-3,077
1775,243	4,5	-0,006
1776,575	-13	-3,014
1777,907	-1,5	-1,83
1779,233	2,5	-0,33
1780,565	-15	-3,495
1781,891	4,5	-0,466
1783,223	-2,5	-1,679
1784,549	-9	-3,114
1785,91	4,5	-0,004
1787,289	-9,5	-2,631
1788,622	-3	-2,18
1789,954	3,5	-0,102
1791,286	-15	-3,498
1792,612	0	-0,934
1793,938	0	-1,215
1795,264	-13	-3,41
1796,59	5	-0,002
1797,916	-7	-2,494
1799,26	-4,5	-2,418
1800,592	4,5	-0,046
1801,924	-15	-3,499
1803,256	-0,5	-1,17
1804,611	1	-0,829
1805,943	-15	-3,473
1807,275	4,5	-0,002
1808,601	-4,5	-2,187
1809,933	-5	-2,677
1811,259	5	-0,022
1812,591	-15	-3,461
1813,917	-0,5	-1,4
1815,243	1	-0,77
1816,575	-15	-3,478
1817,907	4,5	-0,13
1819,238	-3	-1,98
1820,57	-6,5	-2,825
1821,896	4,5	-0,013
1823,228	-15	-3,258
1824,554	-1,5	-1,719
1825,88	2	-0,408
1827,206	-15	-3,495
1828,538	1,5	-0,74
1829,87	-0,5	-1,464
1831,22	-12,5	-3,39
1832,552	4,5	-0,002
1833,878	-7,5	-2,546
1835,204	-3,5	-2,304
1836,542	4,5	-0,054
1837,909	-15	-3,47
1839,271	-1,5	-1,633
1840,603	1,5	-0,475
1841,935	-15	-3,494
1843,267	3	-0,576
1844,599	-1	-1,543
1845,925	-10,5	-3,323
1919,991	-15	-3,499
1921,317	-0,5	-1,262
1922,679	1,5	-0,714
1924,011	-15	-3,487
1925,343	4,5	-0,315
1926,674	-1,5	-1,77
1928,006	-9,5	-3,174
1929,35	5	-0,004
1930,682	-10	-2,814
1932,014	-2	-2,076
1933,364	4	-0,107
1934,708	-15	-3,499
1936,04	0	-0,977
1937,372	0	-1,125
1938,698	-13,5	-3,422
1940,042	4,5	-0,001
1941,373	-6	-2,408
1942,705	-4,5	-2,429
1944,037	4,5	-0,044
1945,369	-15	-3,499
1946,707	-0,5	-1,158
1948,039	0,5	-0,955
1949,395	-15	-3,476
1950,733	5	-0,009
1952,065	-3	-2,06
1953,397	-5,5	-2,725
1954,729	4,5	-0,018
1956,055	-15	-3,456
1957,387	-0,5	-1,346
1958,731	1,5	-0,714
1960,08	-15	-3,484
1961,412	4,5	-0,137
1962,75	-3	-1,958
1964,082	-6	-2,783
1965,414	4,5	-0,015
1966,746	-15	-3,282
1968,078	-1	-1,535
1969,404	1,5	-0,594
1970,748	-15	-3,491
1972,08	3,5	-0,374
1973,412	-1,5	-1,734
1974,744	-9	-3,098
1976,081	4,5	-0,005
1977,413	-12	-2,943
1978,746	-2	-1,932
1980,077	3	-0,198
1981,403	-15	-3,496
1982,723	2,5	-0,573
1984,056	-1	-1,567
1985,405	-11	-3,31
1986,737	5	-0,003
1988,087	-7,5	-2,609
1989,407	-3	-2,188
1990,733	4	-0,085
1992,089	-15	-3,498
1993,42	0,5	-0,782
1994,746	0	-1,363
1996,073	-11,5	-3,37
1997,404	4,5	-0,002
1998,73	-8,5	-2,666
2000,056	-3	-2,126
2001,382	3,5	-0,11
2002,708	-15	-3,498
2004,052	0	-0,889
2005,384	0	-1,214
2006,71	-12,5	-3,402
2008,036	4,5	-0,002
2009,404	-5,5	-2,402
2010,73	-3,5	-2,369
2012,055	4	-0,064
2013,387	-15	-3,499
2014,713	0	-1,007
2016,112	1	-0,782
2017,443	-15	-3,478
2018,769	4,5	-0,072
2020,107	-3	-2,019
2021,439	-7	-2,813
2022,771	4,5	-0,013
2024,103	-15	-3,3
2025,447	-1	-1,571
2026,779	1,5	-0,595
2028,105	-15	-3,487
2211,094	-15	-3,391
2212,426	-0,5	-1,442
2213,758	1,5	-0,72
2215,09	-14,5	-3,484
2216,44	4,5	-0,226
2217,766	-2,5	-1,918
2219,104	-7	-2,927
2220,442	5	-0,01
2221,762	-14,5	-3,202
2223,093	-1	-1,644
2224,426	1,5	-0,519
2225,751	-15	-3,488
2227,083	4,5	-0,239
2228,427	-2	-1,88
2229,771	-7,5	-2,997
2231,103	5	-0,008
2232,435	-14,5	-3,166
2233,767	-1	-1,676
2235,093	2	-0,443
2236,425	-15	-3,492
2237,757	4	-0,475
2239,088	-0,5	-1,57
2240,409	-9	-3,227
2241,74	5	-0,004
2243,09	-10,5	-2,842
2244,434	-2	-2,019
2245,79	3,5	-0,109
2247,122	-15	-3,498
2248,442	0,5	-0,864
2249,798	0	-1,228
2251,142	-12	-3,421
2252,462	5	-0,002
2253,794	-7,5	-2,598
2255,12	-2,5	-2,172
2256,452	3,5	-0,115
2257,784	-14,5	-3,498
2259,127	0	-0,856
2260,459	0	-1,284
2261,785	-12	-3,386
2263,117	4,5	-0,002
2264,449	-7,5	-2,594
2265,776	-3	-2,214
2267,125	4,5	-0,065
2268,457	-14,5	-3,499
2269,789	0	-1,019
2271,121	0	-1,15
2272,441	-13,5	-3,44
2273,796	5	0
2275,116	-5	-2,318
2276,448	-4	-2,488
2277,774	4,5	-0,046
2279,106	-14,5	-3,499
2280,432	0	-1,169
2281,788	1	-0,868
2355,806	-14,5	-3,221
2357,132	-1	-1,624
2358,458	2	-0,505
2359,784	-14,5	-3,488
2361,11	4,5	-0,171
2362,436	-2	-1,956
2363,761	-6	-2,842
2365,087	5	-0,013
2366,419	-14,5	-3,247
2367,745	-1	-1,522
2369,077	1,5	-0,644
2370,409	-14,5	-3,484
2371,735	5	-0,059
2373,061	-3	-2,112
2374,393	-4,5	-2,699
2375,731	4,5	-0,018
2377,057	-14,5	-3,439
2378,389	-0,5	-1,435
2379,715	1,5	-0,709
2381,052	-14,5	-3,486
2382,384	4,5	-0,186
2383,71	-3	-1,984
2385,042	-6	-2,837
2386,362	4,5	-0,018
2387,694	-14,5	-3,321
2389,026	-0,5	-1,496
2390,358	1,5	-0,674
2391,684	-14,5	-3,484
2393,01	5	-0,249
2394,342	-2	-1,899
2395,674	-7	-2,939
2397,005	4,5	-0,01
2398,325	-14,5	-3,264
2399,651	-1	-1,547
2400,983	1,5	-0,577
2402,327	-14,5	-3,49
2403,659	4,5	-0,31
2404,991	-2	-1,83
2406,317	-7	-2,962
2407,649	4,5	-0,01
2408,981	-14	-3,141
2410,307	-1,5	-1,69
2411,633	1,5	-0,497
2412,953	-14,5	-3,49
2414,284	4,5	-0,308
2415,611	-2	-1,835
2416,936	-7,5	-2,978
2418,262	4,5	-0,009
2419,606	-14	-3,16
2420,932	-1	-1,612
2422,264	1,5	-0,571
2423,602	-14,5	-3,489
2424,934	4,5	-0,318
2426,254	-2	-1,881
2427,586	-6,5	-2,93
2428,918	4,5	-0,01
2430,244	-14,5	-3,242
2431,569	-0,5	-1,52
2432,902	1,5	-0,578
2434,227	-14,5	-3,486
2435,559	4,5	-0,155
2436,885	-3	-2,029
2438,211	-6	-2,785
2439,531	4,5	-0,015
2440,863	-14,5	-3,433
2442,201	-0,5	-1,421
2443,533	1	-0,73
2444,865	-14,5	-3,481
2446,197	4,5	-0,078
2447,529	-3,5	-2,054
2448,861	-5,5	-2,796
2450,186	4,5	-0,016
2451,548	-14,5	-3,2
2452,88	-1	-1,624
2454,212	1,5	-0,538
2455,55	-14,5	-3,49
2456,87	4,5	-0,268
2458,196	-2	-1,878
2459,522	-6	-2,898
2460,848	5	-0,011
2462,18	-14	-3,183
2463,512	-1	-1,683
2464,844	2	-0,458
2466,176	-14,5	-3,491
2467,501	4,5	-0,345
2468,827	-2	-1,835
2470,147	-6	-2,874
2471,473	5	-0,012
2472,799	-14,5	-3,289
2474,131	-1	-1,501
2475,481	2	-0,528
2476,819	-14,5	-3,49
2478,151	4,5	-0,324
2479,483	-1,5	-1,82
2480,809	-7,5	-2,971
2482,135	5	-0,01
2483,455	-14	-3,17
2484,786	-1	-1,686
2486,112	2	-0,494
2487,438	-14,5	-3,491
2488,77	4,5	-0,296
2490,096	-2	-1,894
2491,434	-6,5	-2,889
2492,766	5	-0,011
2494,098	-14,5	-3,222
2495,448	-1,5	-1,731
2496,78	2	-0,409
2498,1	-14,5	-3,492
2499,462	3	-0,566
2500,788	-0,5	-1,604
2502,113	-9	-3,199
2503,445	5	-0,004
2504,771	-9,5	-2,864
2506,103	-2	-2,001
2507,435	3,5	-0,175
2508,761	-14	-3,497
2510,093	1	-0,737
2511,413	0	-1,488
2512,739	-9,5	-3,273
2514,065	5	-0,004
2515,397	-10,5	-2,888
2516,729	-2	-1,961
2518,055	3	-0,233
2519,38	-14,5	-3,495
2520,706	2	-0,59
2522,026	-0,5	-1,588
2523,352	-9	-3,227
2524,684	5	-0,005
2526,016	-10,5	-2,9
2527,342	-2	-1,936
2528,674	3	-0,204
2530,006	-14,5	-3,497
2531,356	1	-0,776
2532,682	0	-1,399
2534,002	-10	-3,338
2535,334	5	-0,003
2536,678	-8	-2,684
2538,01	-3	-2,158
2539,341	3,5	-0,122
2540,667	-14,5	-3,497
2541,993	0,5	-0,807
2543,319	0	-1,369
2544,645	-11,5	-3,354
2545,977	5	-0,003
2547,333	-7	-2,623
2548,659	-3	-2,238
2549,991	4	-0,091
2551,353	-14,5	-3,499
2552,685	0	-1,13
2554,016	0,5	-1,006
2555,336	-13	-3,442
2556,662	4,5	-0,001
2557,988	-6	-2,513
2559,314	-3	-2,274
2560,64	4	-0,086
2561,972	-14	-3,499
2563,31	0	-1
2564,642	0,5	-1,169
2565,974	-12,5	-3,431
2567,294	5	-0,001
2568,62	-6	-2,512
2569,952	-3	-2,294
2571,278	4	-0,084
2572,604	-14	-3,499
2646,519	-1	-1,742
2647,857	3	-0,38
2649,213	-13,5	-3,495
2650,545	4	-0,425
2651,871	-0,5	-1,766
2653,197	-8	-3,1
2654,517	5	-0,008
2655,861	-10,5	-3,03
2657,187	-1	-1,71
2658,518	2,5	-0,451
2659,851	-13	-3,49
2661,182	4,5	-0,262
2662,508	-1,5	-1,894
2663,84	-6	-2,942
2665,172	5	-0,011
2666,498	-12,5	-3,202
2667,818	-1	-1,652
2669,15	2	-0,477
2670,482	-13,5	-3,49
2671,814	4,5	-0,147
2673,14	-2	-2,059
2674,466	-4,5	-2,606
2675,791	5	-0,029
2677,112	-13	-3,5
2678,443	0	-1,23
2679,769	1	-0,935
2681,113	-12,5	-3,456
2682,439	4,5	-0,001
2683,777	-2,5	-2,177
2685,103	-4,5	-2,651
2686,429	5	-0,028
2687,779	-13	-3,371
2689,105	-0,5	-1,38
2690,437	1,5	-0,744
2691,757	-13	-3,476
2693,083	4,5	-0,195
2694,426	-1,5	-1,885
2695,758	-6	-2,954
2697,102	5	-0,006
2698,428	-11,5	-3,009
2699,76	-1,5	-1,9
2701,086	3	-0,227
2702,418	-13,5	-3,497
2703,744	2	-0,703
2705,064	0	-1,514
2706,39	-8	-3,271
2707,716	5	-0,004
2709,042	-8,5	-2,788
2710,374	-1,5	-2,028
2711,7	3,5	-0,145
2713,031	-13,5	-3,498
2714,363	0	-0,941
2715,683	0	-1,217
2717,009	-10,5	-3,4
2718,335	5	-0,002
2719,667	-6	-2,552
2720,993	-2,5	-2,235
2722,331	4	-0,06
2723,669	-13	-3,499
2724,995	0	-1,155
2726,315	1	-0,939
2727,647	-12	-3,463
2728,973	5	0
2730,298	-3	-2,148
2731,63	-4,5	-2,74
2732,962	4,5	-0,014
2734,294	-13	-3,278
2735,62	-0,5	-1,519
2736,946	1,5	-0,673
2738,266	-13	-3,482
2739,598	4,5	-0,054
2740,924	-2,5	-2,028
2742,25	-4,5	-2,748
2743,576	4,5	-0,019
2744,902	-13	-3,343
2746,251	-0,5	-1,626
2747,583	2	-0,494
2748,903	-13	-3,488
2750,235	4,5	-0,268
2751,561	-1	-1,848
2752,887	-5,5	-2,95
2754,219	5	-0,01
2755,551	-12	-3,144
2756,877	-0,5	-1,687
2758,203	2	-0,462
2759,523	-13	-3,489
2760,849	4,5	-0,301
2762,181	-1	-1,774
2763,513	-6,5	-3,075
2764,844	5	-0,007
2766,171	-12	-3,06
2767,52	-1	-1,78
2768,852	2,5	-0,355
2770,184	-13	-3,493
2771,504	4,5	-0,395
2772,83	-0,5	-1,768
2774,162	-6,5	-3,07
2775,5	5	-0,007
2776,832	-11	-3,074
2778,164	-1	-1,76
2779,502	2	-0,393
2780,828	-12,5	-3,494
2782,153	3,5	-0,514
2783,48	-0,5	-1,684
2784,805	-6,5	-3,116
2786,131	5	-0,006
2787,475	-10	-2,964
2788,807	-1	-1,949
2790,139	2,5	-0,256
2827,799	-7,5	-2,74
2829,119	-1,5	-2,035
2830,451	3,5	-0,159
2831,777	-12,5	-3,497
2833,103	3	-0,611
2834,428	0	-1,614
2835,761	-7,5	-3,237
2837,092	5	-0,005
2838,436	-8,5	-2,84
2839,756	-1,5	-1,998
2841,082	3	-0,211
2842,408	-12	-3,496
2843,734	2	-0,643
2845,06	0	-1,554
2846,386	-8,5	-3,298
2847,718	5	-0,003
2849,038	-7,5	-2,75
2850,37	-1,5	-2,062
2851,702	3,5	-0,142
2853,027	-12,5	-3,496
2854,359	2	-0,667
2855,691	0	-1,505
2857,017	-8,5	-3,326
2858,337	5	-0,003
2859,663	-7	-2,8
2860,995	-2	-2,102
2862,321	3	-0,129
2863,647	-12	-3,498
2864,997	0	-0,959
2866,341	0,5	-1,191
2867,667	-11	-3,424
2868,998	4,5	-0,001
2870,337	-4,5	-2,466
2871,656	-2,5	-2,322
2872,988	4	-0,079
2874,314	-12	-3,498
2875,64	0	-0,908
2876,966	0,5	-1,316
2878,298	-9,5	-3,394
2879,63	5	-0,002
2880,95	-6	-2,721
2882,276	-1	-2,018
2883,608	3,5	-0,195
2884,952	-12	-3,497
2886,284	1,5	-0,664
2887,615	0	-1,48
2888,953	-8	-3,336
2890,285	5	-0,003
2891,659	-5	-2,569
2892,991	-2	-2,242
2894,323	3,5	-0,099
2895,643	-11,5	-3,498
2896,969	1,5	-0,755
2898,301	0,5	-1,418
2899,627	-8	-3,338
2900,953	5	-0,003
2902,279	-7	-2,89
2903,616	-1,5	-1,968
2904,949	3	-0,197
2906,268	-11	-3,497
2907,601	2	-0,601
2908,926	0	-1,623
2910,252	-6	-3,169
2911,584	4,5	-0,006
2912,916	-9	-2,955
2914,242	-1	-1,774
2915,592	2,5	-0,319
2916,942	-11	-3,496
2918,298	2,5	-0,654
2919,624	0	-1,558
2920,943	-7	-3,21
2922,27	5	-0,005
2923,595	-10	-3,086
2924,927	-0,5	-1,747
2926,277	2,5	-0,34
2927,609	-10,5	-3,494
2928,935	4,5	-0,431
2930,267	0	-1,731
2931,587	-5,5	-3,053
2932,919	5	-0,009
2934,257	-10	-3,202
2935,595	-0,5	-1,635
2936,927	2	-0,521
2938,259	-10	-3,49
2939,602	4	-0,377
2940,923	-0,5	-1,87
2942,254	-4	-2,909
2943,58	5	-0,012
2944,906	-9,5	-3,348
2946,244	0	-1,509
2947,57	1,5	-0,699
2948,896	-9,5	-3,477
2950,216	4,5	0
2951,548	-1,5	-2,186
2952,88	-3	-2,619
2954,212	4,5	-0,028
2955,544	-9,5	-3,5
2956,912	-0,5	-1,475
2958,244	2	-0,695
2959,563	-9	-3,48
2960,889	5	-0,022
2962,215	-1,5	-2,192
2963,547	-3	-2,647
2964,879	4,5	-0,025
2966,205	-9	-3,5
2967,555	0	-1,405
2968,887	2	-0,741
2970,207	-9	-3,479
2971,533	4,5	-0,003
2972,865	-1	-2,165
2974,19	-3	-2,584
2975,529	4,5	-0,032
2976,86	-9	-3,499
2978,186	0	-1,198
2979,512	1,5	-0,984
2980,832	-8	-3,444
2982,158	4,5	-0,001
2983,484	-3	-2,528
2984,81	-1,5	-2,324
2986,142	4	-0,064
2987,468	-9	-3,499
2988,794	0,5	-0,905
2990,114	0,5	-1,366
2991,445	-7	-3,352
2992,772	4,5	-0,003
2994,103	-5	-2,804
2995,429	-1	-2,009
2996,761	3	-0,218
2998,093	-9	-3,496
2999,413	3,5	-0,509
3000,745	0	-1,685
3002,077	-5,5	-3,17
3003,403	5	-0,007
3004,747	-8	-3,096
3006,073	-0,5	-1,639
3007,405	2	-0,554
3008,754	-9	-3,491
3010,074	4,5	-0,254
3011,412	-0,5	-1,96
3012,738	-3,5	-2,837
3014,064	5	-0,017
3015,396	-8,5	-3,402
3016,728	0	-1,43
3018,06	1,5	-0,779
3019,38	-8,5	-3,477
3020,706	4,5	0
3022,038	-1	-2,188
3023,388	-3	-2,741
3024,72	5	-0,019
3026,045	-8,5	-3,475
3027,372	0	-1,352
3028,697	1,5	-0,85
3030,026	-8,5	-3,475
3031,343	5	0
3032,675	-1	-2,183
3034,001	-2,5	-2,598
3035,327	4,5	-0,033
3036,659	-8,5	-3,499
3037,985	0	-1,157
3039,305	1,5	-1,113
3040,631	-7	-3,426
3041,957	4,5	-0,002
3043,289	-3	-2,554
3044,62	-1,5	-2,231
3118,896	4,5	-0,001
3120,234	-1,5	-2,37
3121,566	-1,5	-2,441
3122,886	4	-0,062
3124,218	-8	-3,499
3125,55	0	-1,016
3126,882	1,5	-1,188
3128,214	-7,5	-3,44
3129,546	4,5	-0,001
3130,866	-2	-2,465
3132,192	-1,5	-2,375
3133,517	4	-0,07
3134,849	-7,5	-3,499
3136,181	0,5	-0,98
3137,507	1,5	-1,239
3138,833	-6,5	-3,417
3140,153	5	-0,002
3141,485	-1,5	-2,599
3142,811	-1	-2,289
3144,137	4	-0,093
3145,469	-7,5	-3,498
3146,795	0,5	-0,95
3148,115	1	-1,278
3149,446	-6,5	-3,399
3150,772	4,5	-0,002
3152,104	-3	-2,754
3153,436	-0,5	-2,09
3154,762	3	-0,164
3156,088	-8	-3,496
3157,408	2,5	-0,551
3158,734	0	-1,714
3160,066	-4	-3,075
3161,398	5	-0,007
3162,73	-6,5	-3,156
3164,056	0	-1,648
3165,376	2	-0,66
3166,708	-7,5	-3,486
3168,033	4,5	-0,142
3169,389	0	-1,956
3170,733	-3	-2,965
3172,065	4,5	-0,012
3173,391	-7,5	-3,274
3174,723	0	-1,573
3176,055	2	-0,631
3177,375	-8	-3,486
3178,707	4,5	-0,133
3180,039	-0,5	-2,035
3181,371	-2,5	-2,83
3182,703	5	-0,017
3184,047	-7,5	-3,387
3185,384	0	-1,532
3186,716	2	-0,656
3188,066	-7,5	-3,489
3189,386	5	-0,131
3190,718	-0,5	-2,104
3191,474	5	-0,001