File: ensaios_Ciclicos/_30perc/_1gap/entrada/_3.txt
Time (s)	Load (N)	Displacement (mm)
0	0,5	-0,04
0,833	-28,5	-3,491
1,661	-3,5	-0,562
2,55	-10,5	-2,014
3,41	-22	-2,736
4,289	2,5	-0,001
5,165	-26,5	-3,485
6,089	0,5	-0,164
6,929	-12	-2,289
7,78	-19	-2,42
8,684	2,5	-0,194
9,532	-25,5	-3,494
10,391	0	-0,225
11,302	-14,5	-2,524
12,196	-13	-1,898
13,12	-2	-0,887
13,966	-25	-3,499
14,848	3	-0,018
15,712	-18,5	-3,173
16,655	-5,5	-1,181
17,497	-4,5	-1,23
18,379	-24,5	-3,31
19,282	3,5	-0,003
20,17	-23	-3,449
21,106	-1	-0,542
21,91	-6	-1,619
22,74	-24	-3,161
23,638	3,5	-0,002
24,484	-23	-3,427
25,342	-3	-0,953
26,265	-7,5	-1,819
27,597	-1	-0,498
28,425	-7,5	-1,789
29,296	-21	-2,853
30,147	3,5	-0,002
30,987	-22,5	-3,449
31,833	-3	-0,945
32,715	-5,5	-1,617
33,543	-23,5	-3,201
34,383	3,5	-0,004
35,217	-19,5	-3,284
36,051	-7	-1,448
36,843	0,5	-0,631
37,731	-23,5	-3,499
38,529	3	-0,069
39,369	-12	-2,494
40,227	-13	-2,155
41,115	3	-0,389
41,924	-23,5	-3,494
42,711	0	-0,478
43,52	-6	-1,664
44,294	-23	-3,29
87,168	-21,5	-3,482
87,996	0,5	-0,588
88,776	-4	-1,518
89,586	-21,5	-3,462
90,45	4,5	-0,006
91,74	-21,5	-3,494
92,538	4	-0,024
93,342	-11,5	-2,654
94,134	-13,5	-2,329
94,968	4	0
95,789	-21,5	-3,476
96,642	0	-0,758
97,457	-4	-1,48
98,297	-21,5	-3,181
99,162	4	-0,005
99,971	-16	-3,193
100,793	-6	-1,595
101,603	1,5	-0,668
102,42	-21,5	-3,497
103,293	4	-0,062
104,147	-10,5	-2,573
105,017	-9	-1,958
105,905	2	-0,62
106,745	-21,5	-3,497
107,585	3	-0,119
108,389	-7	-2,179
109,259	-12,5	-2,338
110,105	4	0
110,909	-21	-3,473
111,767	0	-0,792
112,685	-6	-1,967
113,507	-17,5	-2,822
114,316	4,5	-0,003
115,156	-20	-3,424
115,99	-2	-1,146
116,776	-1	-0,9
117,63	-21	-3,499
118,444	4	-0,022
119,304	-13	-2,88
120,088	-10	-2,059
120,874	4	0
121,66	-21	-3,458
122,482	-0,5	-0,961
123,261	-2	-1,096
124,084	-21	-3,5
124,933	4	-0,018
125,722	-12	-2,753
126,51	-10,5	-2,263
127,279	4,5	-0,001
128,134	-21	-3,48
128,943	0	-0,704
129,771	-3,5	-1,551
130,564	-21	-3,497
131,367	4,5	-0,023
132,117	-9	-2,435
132,909	-15	-2,49
133,719	4,5	-0,001
134,547	-20	-3,46
135,328	-2	-1,263
136,101	0	-0,813
136,851	-21	-3,496
137,655	2,5	-0,308
138,454	-5,5	-1,876
139,299	-16	-2,824
140,127	4,5	-0,002
140,925	-19	-3,41
141,771	-1,5	-1,143
142,503	0,5	-0,792
143,277	-21	-3,496
144,087	2	-0,273
144,945	-7	-2,267
145,839	-10	-2,239
146,625	4,5	0
147,386	-19,5	-3,427
148,203	-1,5	-1,144
148,928	1,5	-0,777
149,732	-20,5	-3,497
150,531	2,5	-0,267
151,353	-6,5	-2,084
152,162	-16	-2,832
152,913	4,5	-0,007
153,717	-15	-3,106
154,526	-5,5	-1,751
155,294	4	-0,243
156,039	-20	-3,472
156,836	0	-0,962
158,114	-19	-3,41
158,852	-4	-1,61
159,668	1,5	-0,654
160,52	-20,5	-3,498
161,414	4,5	-0,028
162,17	-8	-2,382
162,98	-12	-2,47
163,76	4	-0,001
164,57	-19,5	-3,438
165,355	-2	-1,319
166,201	-1,5	-1,08
166,981	-20,5	-3,499
167,719	3	-0,186
168,501	-5	-1,857
169,249	-20	-3,188
170,054	4,5	-0,013
170,849	-12,5	-2,841
171,613	-9	-2,192
294,918	4	-0,202
295,692	-18,5	-3,48
296,442	-0,5	-1,091
297,18	1,5	-0,798
297,9	-19	-3,493
298,656	0,5	-0,702
299,442	-2,5	-1,477
300,186	-19	-3,499
300,918	3	-0,157
301,71	-4,5	-2,05
302,472	-17	-3,01
303,21	4,5	-0,015
303,935	-7	-2,483
304,68	-14	-2,683
305,412	4,5	-0,005
306,143	-10	-2,752
306,911	-9	-2,288
307,715	4	0
308,459	-17	-3,432
309,227	-1,5	-1,389
309,977	3,5	-0,522
310,721	-19	-3,488
311,495	0	-0,686
312,267	-2	-1,302
313,007	-19	-3,498
313,763	3	-0,174
314,513	-3,5	-1,889
315,257	-18,5	-3,408
316,038	4,5	-0,024
316,739	-5	-2,148
317,483	-16	-3,008
318,245	4,5	-0,01
318,983	-9	-2,692
319,739	-10,5	-2,435
320,519	4,5	-0,001
321,287	-15,5	-3,37
322,049	-3	-1,582
322,793	4,5	-0,283
323,578	-18,5	-3,488
324,322	0	-0,994
325,078	0	-0,933
325,852	-19	-3,498
326,615	2,5	-0,289
327,382	-3	-1,788
328,192	-17,5	-3,101
328,978	4,5	-0,009
329,734	-9	-2,762
330,504	-8	-2,28
331,264	4,5	-0,001
332,002	-15	-3,346
332,767	-4	-1,729
411,071	2	-0,673
411,815	-18	-3,493
412,535	0,5	-0,893
413,265	0	-0,868
414,012	-18	-3,496
414,767	1,5	-0,554
415,529	-1,5	-1,41
416,261	-18	-3,499
416,987	3	-0,196
417,731	-3	-1,702
418,493	-17,5	-3,387
419,189	4	-0,084
419,951	-4	-2,058
420,671	-17,5	-3,226
421,397	4,5	-0,034
422,123	-5	-2,221
422,885	-13,5	-2,813
423,641	4,5	-0,006
424,391	-9	-2,848
425,087	-11	-2,535
425,849	4,5	-0,002
426,568	-9,5	-2,998
427,277	-8,5	-2,374
428,02	4,5	-0,002
428,746	-12	-3,144
429,454	-6,5	-2,192
430,193	4,5	-0,001
430,906	-12	-3,173
431,656	-4,5	-1,926
432,382	4,5	0
433,108	-15	-3,404
433,834	-3	-1,754
434,554	4,5	-0,012
435,286	-16,5	-3,435
436,012	-2	-1,529
436,732	4,5	-0,237
437,44	-17	-3,45
438,178	-1,5	-1,469
438,929	3,5	-0,468
439,672	-17,5	-3,486
440,464	1	-0,779
441,166	0	-0,883
441,88	-17,5	-3,495
442,612	0,5	-0,762
443,332	-0,5	-1,028
444,056	-17,5	-3,496
444,766	1,5	-0,652
445,515	-1,5	-1,267
446,229	-17,5	-3,498
446,937	2	-0,499
447,669	-1,5	-1,371
448,401	-17,5	-3,499
486,997	-16,5	-3,157
487,742	4,5	-0,02
488,473	-6,5	-2,419
489,235	-11	-2,689
489,973	4,5	-0,005
490,693	-8,5	-2,722
491,431	-9	-2,507
492,157	4,5	-0,003
492,883	-10	-2,975
493,597	-7,5	-2,325
494,329	4,5	-0,002
495,055	-12	-3,165
495,751	-6,5	-2,284
496,477	4,5	-0,002
497,221	-12,5	-3,231
497,928	-6	-2,123
498,654	4,5	-0,001
499,38	-13	-3,271
500,106	-4,5	-1,919
500,826	4,5	-0,001
501,534	-14,5	-3,34
502,254	-4	-1,886
502,974	4,5	0
503,676	-14	-3,346
504,402	-4	-1,891
505,128	4,5	0
505,83	-14,5	-3,356
506,574	-2,5	-1,689
507,318	4,5	-0,222
508,032	-16,5	-3,453
508,74	-1,5	-1,524
509,478	4	-0,326
510,198	-16,5	-3,469
510,906	-1	-1,354
512,106	-9	-2,836
512,862	-8	-2,294
513,594	4,5	-0,002
514,32	-11,5	-3,15
515,034	-5,5	-2,15
515,759	4,5	-0,001
516,485	-12,5	-3,269
517,218	-4	-1,922
517,943	4,5	0
518,663	-15	-3,392
519,371	-3	-1,817
520,097	4,5	-0,026
520,817	-15,5	-3,425
521,537	-2,5	-1,663
522,264	4,5	-0,102
523,013	-16,5	-3,462
523,721	-1,5	-1,498
524,441	4,5	-0,268
525,161	-16,5	-3,463
525,863	-1,5	-1,499
526,577	4,5	-0,196
527,315	-16,5	-3,465
528,035	-0,5	-1,343
528,773	2	-0,596
529,499	-17	-3,488
530,219	0	-1,092
530,944	1,5	-0,755
531,664	-17	-3,492
532,39	1	-0,891
533,098	0	-0,843
533,825	-17	-3,494
534,544	1	-0,839
535,252	0	-0,89
536,02	-17	-3,497
536,734	2	-0,585
537,454	-1	-1,203
538,18	-17	-3,498
538,894	2	-0,444
539,632	-1,5	-1,456
540,352	-16,5	-3,499
541,06	3	-0,292
541,78	-2	-1,572
542,5	-17	-3,499
543,226	3,5	-0,162
543,958	-2,5	-1,729
544,678	-17	-3,5
545,398	4	-0,093
546,106	-3	-1,815
546,814	-17	-3,494
547,522	4	-0,097
548,266	-3	-1,934
548,992	-17	-3,39
549,735	4,5	-0,041
550,455	-4,5	-2,166
551,175	-16	-3,143
551,883	4,5	-0,034
552,627	-5,5	-2,34
553,335	-15	-2,985
554,055	4,5	-0,018
554,798	-6,5	-2,54
555,507	-11,5	-2,811
556,227	4,5	-0,01
556,965	-7	-2,657
558,153	2,5	-0,352
558,849	-1,5	-1,343
559,569	-17	-3,498
560,283	2,5	-0,314
560,991	-2	-1,474
561,699	-17	-3,499
562,455	3,5	-0,153
637,696	4,5	-0,005
638,392	-7,5	-2,749
639,112	-10	-2,608
639,82	4,5	-0,006
640,547	-8	-2,757
641,26	-10	-2,608
641,968	5	-0,006
642,682	-8	-2,746
643,39	-9,5	-2,622
644,098	5	-0,007
644,818	-7	-2,68
645,526	-10,5	-2,612
646,264	4,5	-0,005
646,984	-8	-2,841
647,68	-9	-2,522
648,418	5	-0,004
649,144	-10	-2,954
649,84	-8	-2,455
650,56	4,5	-0,004
651,28	-8,5	-2,881
652,006	-7	-2,388
652,726	4,5	-0,003
653,434	-9	-2,899
654,141	-8	-2,511
654,867	5	-0,003
655,563	-8,5	-2,876
656,295	-8	-2,443
656,991	5	-0,004
657,717	-9	-2,905
658,461	-6	-2,177
659,187	4,5	-0,002
659,901	-11	-3,107
660,627	-5,5	-2,208
661,323	4,5	-0,002
662,043	-10,5	-3,05
662,763	-5,5	-2,235
663,471	4,5	-0,002
664,191	-11	-3,132
664,911	-5,5	-2,176
665,631	4,5	-0,001
666,351	-12,5	-3,294
667,089	-3,5	-1,914
667,815	4,5	0
668,553	-15	-3,427
669,291	-1,5	-1,536
669,999	4	-0,227
670,706	-15	-3,449
671,45	-1	-1,454
672,17	4,5	-0,317
672,914	-15,5	-3,478
673,622	-0,5	-1,35
785,936	-1	-1,291
786,662	-16	-3,498
787,394	3	-0,245
788,133	-2	-1,674
788,858	-16	-3,5
789,566	3,5	-0,136
790,292	-2,5	-1,741
791,012	-15,5	-3,5
791,732	3,5	-0,126
792,446	-2	-1,718
793,171	-15,5	-3,5
793,897	4	-0,088
794,653	-3,5	-2,037
795,35	-16	-3,396
796,063	4	-0,066
796,777	-3	-1,958
797,509	-15,5	-3,248
798,229	4,5	-0,04
798,937	-3	-2,04
799,669	-15,5	-3,182
800,395	4,5	-0,029
801,121	-4,5	-2,258
801,817	-15	-3,095
802,543	4,5	-0,022
803,263	-4,5	-2,314
803,971	-14	-3,027
804,667	4,5	-0,029
805,387	-4,5	-2,276
806,089	-15	-3,124
806,815	4,5	-0,024
807,535	-4,5	-2,26
808,261	-14	-2,97
808,981	4,5	-0,017
809,677	-4,5	-2,295
810,403	-14	-2,973
811,111	4,5	-0,02
811,818	-4,5	-2,334
812,539	-13	-2,92
813,234	4,5	-0,021
813,942	-4,5	-2,278
814,668	-14,5	-2,951
815,376	4,5	-0,019
816,108	-5	-2,46
816,828	-12,5	-2,842
817,524	4,5	-0,017
818,25	-5,5	-2,431
818,958	-13	-2,932
819,678	4,5	-0,015
820,374	-4,5	-2,398
821,082	-14,5	-3,005
821,796	4,5	-0,022
822,522	-4,5	-2,376
934,41	-15,5	-3,5
935,105	3,5	-0,151
935,807	-2	-1,633
936,515	-15,5	-3,499
937,235	3	-0,192
937,949	-2	-1,701
938,657	-15	-3,499
939,377	3,5	-0,125
940,073	-2	-1,725
940,781	-15	-3,499
941,501	3	-0,158
942,245	-2,5	-1,813
942,971	-15	-3,467
943,679	4	-0,086
944,393	-2,5	-1,9
945,101	-15	-3,5
945,815	4	-0,098
946,511	-2	-1,8
947,219	-15	-3,5
947,963	4	-0,11
948,683	-2,5	-1,807
949,403	-15	-3,446
950,099	4	-0,098
950,806	-2,5	-1,816
951,526	-15	-3,5
952,234	3,5	-0,119
952,931	-2	-1,8
953,68	-15	-3,49
954,4	4	-0,078
955,108	-2,5	-1,852
955,834	-15	-3,499
956,548	4	-0,094
957,244	-2,5	-1,724
957,946	-15	-3,499
958,654	3,5	-0,158
959,362	-2	-1,714
960,07	-15	-3,499
960,778	3	-0,188
961,498	-1,5	-1,611
962,194	-15,5	-3,499
962,914	3	-0,246
963,622	-1,5	-1,556
964,366	-15	-3,499
965,092	3,5	-0,136
965,788	-2	-1,62
966,496	-15	-3,499
967,204	3	-0,24
967,918	-1,5	-1,525
968,613	-15	-3,499
969,321	2	-0,432
970,516	-15	-3,456
971,211	-1	-1,572
971,919	4,5	-0,179
972,663	-15	-3,466
973,365	-1	-1,473
974,073	4,5	-0,288
974,781	-15	-3,457
975,496	-1,5	-1,556
976,221	4,5	-0,25
976,947	-15	-3,464
977,655	-1,5	-1,538
978,351	4,5	-0,196
979,059	-14,5	-3,444
979,785	-1	-1,579
980,493	4,5	-0,176
981,213	-14,5	-3,451
981,921	-1,5	-1,649
982,623	4,5	-0,036
983,331	-13,5	-3,414
984,027	-2,5	-1,831
984,747	4,5	0
985,461	-13,5	-3,392
986,169	-3	-1,883
986,888	4,5	0
987,584	-13	-3,366
988,292	-4	-1,922
989,012	4,5	0
989,708	-12	-3,321
990,429	-3,5	-1,981
991,148	4,5	-0,001
991,856	-11,5	-3,321
992,582	-3	-1,913
993,296	4,5	-0,001
994,005	-11,5	-3,338
994,712	-3,5	-1,986
995,45	4,5	0
996,146	-12	-3,363
996,854	-3,5	-1,93
997,58	5	0
998,306	-13,5	-3,393
999,032	-2	-1,758
999,746	4,5	-0,001
1000,454	-12	-3,397
1001,156	-3	-1,862
1001,852	4,5	-0,001
1002,56	-12	-3,318
1003,286	-3	-1,95
1003,994	4,5	-0,001
1004,695	-11	-3,278
1005,422	-3	-1,962
1006,153	4,5	0
1006,879	-13	-3,401
1007,611	-1,5	-1,688
1008,337	4,5	-0,15
1009,033	-13,5	-3,423
1009,741	-1,5	-1,687
1010,449	4,5	-0,148
1011,169	-14,5	-3,436
1011,877	-1,5	-1,698
1012,585	4,5	-0,022
1013,293	-13,5	-3,41
1014,013	-1,5	-1,646
1014,721	4,5	-0,108
1015,441	-14,5	-3,441
1016,149	-1,5	-1,668
1016,869	4,5	-0,18
1017,577	-14,5	-3,442
1018,285	-2	-1,711
1019,005	4,5	-0,077
1019,713	-13,5	-3,438
1020,421	-1,5	-1,718
1021,128	4,5	-0,012
1021,854	-14	-3,429
1022,575	-2	-1,687
1023,27	4,5	-0,009
1024,008	-14,5	-3,44
1024,728	-1	-1,618
1025,448	4,5	-0,208
1026,156	-14,5	-3,446
1026,858	-1,5	-1,696
1027,566	4,5	-0,036
1028,268	-13,5	-3,406
1028,976	-1,5	-1,706
1029,696	5	-0,031
1030,404	-13,5	-3,412
1031,13	-1,5	-1,672
1031,85	4,5	-0,148
1032,546	-14	-3,423
1033,272	-1,5	-1,621
1033,992	4,5	-0,178
1034,724	-15	-3,459
1035,42	-1	-1,61
1036,152	4,5	-0,312
1036,866	-15	-3,464
1037,574	-1	-1,531
1038,293	4,5	-0,255
1038,989	-14	-3,444
1039,721	-1	-1,541
1040,429	4,5	-0,228
1041,137	-14,5	-3,45
1041,851	-1	-1,556
1042,559	4,5	-0,212
1043,267	-14,5	-3,448
1043,975	-1	-1,584
1044,683	4,5	-0,159
1267,03	4,5	-0,014
1267,75	-4,5	-2,492
1268,471	-9,5	-2,742
1269,166	5	-0,012
1269,892	-5	-2,59
1270,6	-10	-2,736
1271,308	5	-0,01
1272,016	-4,5	-2,523
1272,724	-9,5	-2,775
1273,42	5	-0,011
1274,14	-4,5	-2,5
1274,848	-10,5	-2,82
1275,556	5	-0,013
1276,264	-4,5	-2,455
1276,972	-12	-2,934
1277,686	4,5	-0,017
1278,388	-3,5	-2,337
1279,108	-12	-2,935
1279,804	4,5	-0,022
1280,512	-3,5	-2,248
1281,232	-13,5	-3,044
1281,934	4,5	-0,028
1282,654	-3	-2,235
1283,361	-14	-3,16
1284,069	4,5	-0,036
1284,789	-3	-2,16
1285,498	-15	-3,183
1286,205	4,5	-0,032
1286,913	-3	-2,184
1287,633	-15	-3,168
1288,329	4,5	-0,045
1289,037	-2,5	-2,055
1289,745	-14,5	-3,281
1290,453	4	-0,052
1291,173	-3	-2,08
1291,875	-15	-3,279
1292,571	4	-0,062
1293,291	-2,5	-2,01
1294,005	-15	-3,217
1294,701	4,5	-0,052
1295,421	-3	-2,034
1296,141	-15	-3,247
1296,861	4,5	-0,039
1297,569	-3	-2,098
1298,289	-14	-3,125
1299,015	4,5	-0,024
1299,711	-3	-2,228
1300,431	-15	-3,2
1301,156	4,5	-0,031
1301,882	-3,5	-2,301
1302,579	-15	-3,155
1303,316	4,5	-0,022
1304,036	-4	-2,374
1304,744	-13	-2,94
1305,44	4,5	-0,022
1306,148	-3,5	-2,264
1306,872	-13	-3,017
1307,576	4,5	-0,023
1308,29	-3,5	-2,309
1309,01	-12	-2,909
1309,712	4,5	-0,018
1310,456	-4,5	-2,501
1311,176	-11	-2,844
1311,872	4,5	-0,017
1312,58	-4	-2,334
1313,3	-11,5	-2,948
1313,996	4,5	-0,022
1314,722	-4	-2,362
1315,442	-11,5	-2,929
1316,15	5	-0,018
1316,852	-3,5	-2,348
1317,56	-11,5	-2,96
1318,285	4,5	-0,015
1318,981	-4	-2,333
1319,69	-13	-2,992
1320,41	4,5	-0,018
1321,105	-3,5	-2,262
1321,825	-12,5	-3,009
1322,521	4,5	-0,027
1323,229	-3	-2,213
1323,937	-14	-3,093
1324,645	4,5	-0,029
1325,353	-3	-2,183
1326,067	-15	-3,206
1326,763	4,5	-0,051
1327,483	-3	-2,093
1328,191	-14,5	-3,348
1328,887	4	-0,076
1329,595	-2	-1,872
1330,321	-15	-3,462
1331,017	4	-0,101
1331,725	-2	-1,826
1332,427	-15	-3,5
1333,135	3,5	-0,13
1333,855	-2	-1,773
1334,551	-15	-3,499
1335,259	3	-0,19
1335,978	-1,5	-1,67
1336,675	-15	-3,499
1337,395	2,5	-0,226
1338,102	-1,5	-1,508
1338,81	-15	-3,499
1339,536	2	-0,28
1340,244	-1	-1,468
1340,94	-15	-3,498
1341,648	2	-0,463
1342,356	-0,5	-1,288
1343,064	-15	-3,498
1343,772	1	-0,57
1344,486	-0,5	-1,168
1345,182	-15	-3,496
1345,908	1,5	-0,636
1346,616	-0,5	-1,18
1347,354	-15	-3,498
1348,062	1,5	-0,562
1348,788	-1	-1,301
1349,496	-15	-3,498
1350,192	1,5	-0,55
1350,912	-0,5	-1,26
1351,62	-15	-3,498
1352,328	1,5	-0,54
1353,036	-0,5	-1,281
1353,755	-15	-3,498
1354,463	1,5	-0,556
1355,189	-0,5	-1,306
1355,934	-15	-3,499
1356,629	2	-0,413
1357,355	-1	-1,465
1358,063	-14,5	-3,498
1358,759	2	-0,428
1359,479	-0,5	-1,336
1360,187	-14,5	-3,498
1360,883	1,5	-0,594
1361,585	0	-1,094
1362,293	-14,5	-3,496
1363,008	1	-0,73
1363,709	0	-1,044
1364,429	-15	-3,496
1365,125	1	-0,831
1365,833	0,5	-0,903
1366,541	-14,5	-3,494
1367,249	0,5	-0,94
1367,957	0,5	-0,8
1368,653	-14,5	-3,49
1369,373	0	-1,033
1370,093	1,5	-0,778
1370,789	-14,5	-3,489
1371,515	1	-1,047
1372,222	1,5	-0,722
1372,919	-14,5	-3,487
1373,627	0	-1,146
1374,322	3,5	-0,53
1375,036	-14,5	-3,481
1375,744	0	-1,258
1376,453	3	-0,594
1450,518	-6	-2,433
1451,22	5	-0,004
1451,94	-7	-2,926
1452,642	-6	-2,462
1453,368	4,5	-0,003
1454,076	-7	-2,882
1454,772	-6,5	-2,535
1455,48	5	-0,005
1456,188	-5,5	-2,744
1456,884	-9	-2,719
1457,598	4,5	-0,008
1458,293	-5	-2,504
1459,001	-10,5	-2,822
1459,71	4,5	-0,013
1460,417	-4,5	-2,454
1461,125	-12	-2,951
1461,833	4,5	-0,016
1462,559	-4	-2,382
1463,268	-13	-3,008
1463,963	4,5	-0,027
1464,665	-3	-2,188
1465,385	-14	-3,157
1466,081	4,5	-0,043
1466,783	-2,5	-2,024
1467,491	-14,5	-3,384
1468,199	4	-0,069
1468,895	-2	-1,892
1469,615	-14,5	-3,453
1470,323	4	-0,082
1471,031	-2	-1,925
1471,739	-14,5	-3,5
1472,453	4	-0,105
1473,149	-1,5	-1,71
1473,857	-14,5	-3,499
1474,571	3,5	-0,146
1475,267	-1	-1,587
1475,969	-14,5	-3,499
1476,677	3	-0,197
1477,384	-1	-1,534
1478,092	-14,5	-3,499
1478,795	2,5	-0,366
1479,502	-0,5	-1,347
1480,21	-14,5	-3,498
1480,906	1,5	-0,519
1481,62	-0,5	-1,215
1482,316	-14,5	-3,497
1483,042	2	-0,546
1483,75	0	-1,194
1484,446	-14,5	-3,497
1485,154	1,5	-0,688
1485,85	0	-0,96
1486,576	-14,5	-3,496
1487,29	1,5	-0,726
1487,986	0	-0,944
1488,694	-14,5	-3,494
1489,408	1	-0,764
1490,104	0,5	-0,886
1490,806	-14,5	-3,493
1491,502	0,5	-1,028
1492,222	1,5	-0,788
1492,918	-14,5	-3,49
1493,637	0,5	-0,985
1494,346	1,5	-0,765
1495,041	-14,5	-3,488
1495,75	0,5	-1,133
1496,469	1,5	-0,641
1497,165	-14	-3,482
1497,867	0	-1,262
1498,563	4	-0,44
1499,271	-14	-3,474
1499,985	0	-1,342
1500,693	4	-0,397
1501,437	-14,5	-3,482
1502,144	0	-1,254
1502,841	4	-0,437
1503,567	-14,5	-3,479
1504,263	0	-1,382
1504,989	3,5	-0,458
1505,697	-14,5	-3,475
1506,405	0	-1,315
1507,113	4	-0,446
1507,839	-14,5	-3,48
1508,535	0	-1,357
1509,243	4,5	-0,41
1509,957	-14	-3,473
1510,664	0	-1,409
1511,391	4	-0,426
1512,092	-14	-3,469
1512,801	0	-1,42
1513,496	4,5	-0,229
1514,216	-13,5	-3,458
1514,924	-0,5	-1,524
1515,632	4,5	-0,218
1516,358	-13,5	-3,46
1517,066	0	-1,503
1517,762	4,5	-0,163
1518,47	-13,5	-3,438
1519,166	-1	-1,691
1519,904	4,5	-0,165
1520,6	-12,5	-3,426
1521,308	-1	-1,678
1522,004	5	0
1522,724	-12	-3,409
1523,426	-1,5	-1,774
1524,122	4,5	0
1524,842	-12	-3,404
1525,568	-1	-1,644
1526,264	4,5	-0,003
1526,972	-12,5	-3,4
1527,668	-1,5	-1,804
1528,4	4,5	-0,083
1529,107	-13	-3,423
1529,804	-1,5	-1,756
1530,505	4,5	0
1531,201	-11	-3,349
1531,903	-2,5	-1,926
1532,599	4,5	-0,001
1533,325	-11	-3,323
1534,033	-3	-1,994
1534,729	4,5	-0,001
1535,437	-9	-3,2
1536,133	-4	-2,154
1536,841	5	-0,002
1537,537	-8	-3,052
1538,257	-4,5	-2,204
1538,971	5	-0,002
1539,673	-8,5	-3,118
1540,393	-3,5	-2,152
1541,113	5	-0,001
1541,809	-9	-3,171
1542,517	-4	-2,197
1543,213	5	-0,002
1543,921	-7,5	-3,028
1544,629	-4,5	-2,323
1545,325	5	-0,003
1546,032	-7	-2,913
1546,729	-6	-2,488
1547,448	5	-0,004
1548,144	-6	-2,766
1548,853	-7	-2,564
1549,578	5	-0,004
1550,274	-5,5	-2,719
1550,982	-8	-2,627
1551,678	4,5	-0,008
1552,386	-5,5	-2,61
1553,082	-9,5	-2,765
1553,79	4,5	-0,011
1554,504	-5	-2,518
1555,2	-10,5	-2,844
1555,92	5	-0,012
1556,628	-4,5	-2,485
1557,342	-10	-2,779
1558,05	4,5	-0,012
1558,746	-4,5	-2,5
1559,46	-9,5	-2,794
1560,168	5	-0,012
1560,864	-4,5	-2,49
1561,566	-9	-2,808
1562,262	4,5	-0,015
1562,982	-4	-2,489
1563,749	-7	-2,6
1564,458	5	-0,006
1565,153	-5,5	-2,705
1565,88	-7,5	-2,568
1566,575	5	-0,005
1567,284	-5,5	-2,647
1568,009	-7,5	-2,63
1568,705	5	-0,008
1569,413	-5	-2,627
1570,127	-8	-2,737
1570,829	5	-0,011
1571,537	-4,5	-2,53
1572,251	-9,5	-2,814
1572,959	5	-0,013
1573,68	-4,5	-2,553
1574,387	-10,5	-2,83
1575,083	5	-0,016
1575,791	-4	-2,454
1576,505	-10,5	-2,942
1577,213	5	-0,019
1577,921	-4	-2,387
1578,629	-12	-3,051
1579,337	5	-0,026
1580,033	-2,5	-2,165
1580,741	-14	-3,218
1581,437	4,5	-0,052
1582,162	-3	-2,091
1582,858	-14	-3,305
1583,561	4,5	-0,06
1584,268	-2,5	-1,999
1584,964	-14	-3,496
1585,69	4	-0,074
1586,386	-2	-1,844
1587,094	-14,5	-3,5
1587,79	3,5	-0,148
1588,498	-1	-1,623
1589,206	-14,5	-3,499
1589,902	3	-0,25
1590,61	-1	-1,48
1591,324	-14,5	-3,499
1592,026	2,5	-0,368
1592,722	-0,5	-1,36
1593,43	-14,5	-3,498
1594,126	2	-0,474
1594,834	-0,5	-1,244
1595,554	-14,5	-3,498
1596,25	1,5	-0,541
1596,964	0	-1,219
1597,672	-14,5	-3,497
1598,368	1,5	-0,706
1599,076	0	-1,045
1599,783	-14,5	-3,496
1600,485	1,5	-0,818
1601,181	0	-0,83
1601,889	-14,5	-3,492
1602,586	1	-0,948
1603,293	1	-0,747
1604,001	-14,5	-3,49
1604,697	0	-1,2
1605,399	2	-0,542
1606,107	-14	-3,48
1606,809	0	-1,352
1607,505	4	-0,327
1608,213	-13,5	-3,463
1608,939	0	-1,442
1609,635	4,5	-0,236
1610,349	-13,5	-3,455
1611,045	-1,5	-1,645
1611,777	4,5	-0,211
1612,485	-13,5	-3,447
1613,181	-1	-1,71
1613,889	4,5	-0,003
1614,615	-13	-3,424
1615,311	-1,5	-1,756
1616,037	4,5	-0,064
1616,732	-11,5	-3,404
1617,434	-2	-1,829
1618,13	4,5	0
1618,838	-10,5	-3,352
1619,546	-2,5	-1,986
1620,254	4,5	-0,001
1620,95	-9,5	-3,218
1621,659	-3,5	-2,202
1622,366	4,5	-0,002
1623,062	-8	-3,035
1623,782	-4,5	-2,333
1624,478	4,5	-0,003
1625,186	-7	-2,899
1625,882	-6,5	-2,583
1626,59	5	-0,006
1627,287	-5,5	-2,67
1627,994	-9	-2,739
1628,72	5	-0,008
1629,416	-4,5	-2,572
1630,124	-9,5	-2,824
1630,82	4,5	-0,016
1631,528	-4	-2,359
1632,244	-11	-3,011
1632,938	4,5	-0,027
1633,633	-3	-2,156
1634,342	-13,5	-3,182
1635,049	4,5	-0,039
1635,745	-3	-2,103
1636,465	-14	-3,238
1637,161	4,5	-0,055
1637,869	-2	-1,974
1638,577	-14	-3,468
1639,273	4	-0,104
1639,969	-1,5	-1,754
1640,671	-14	-3,499
1641,385	3,5	-0,17
1642,111	-1,5	-1,775
1642,813	-14,5	-3,5
1643,509	3,5	-0,172
1644,217	-1	-1,624
1644,913	-14	-3,499
1645,621	3	-0,268
1646,317	-1	-1,464
1647,025	-14	-3,499
1647,721	2,5	-0,386
1648,423	-0,5	-1,372
1649,119	-14,5	-3,498
1649,845	2,5	-0,453
1650,553	-0,5	-1,298
1651,261	-14,5	-3,498
1651,968	2	-0,47
1652,665	0	-1,231
1653,372	-14	-3,497
1654,068	1,5	-0,645
1654,776	0	-1,083
1655,496	-14,5	-3,497
1656,192	1	-0,797
1656,912	0	-1,057
1657,608	-14	-3,495
1658,316	1,5	-0,874
1659,012	0,5	-0,827
1659,738	-14,5	-3,494
1660,446	1	-0,974
1661,142	1	-0,707
1661,844	-14	-3,487
1662,54	0	-1,284
1663,272	3	-0,57
1663,98	-14	-3,482
1664,676	0	-1,308
1665,378	3,5	-0,45
1666,074	-13,5	-3,469
1666,782	0	-1,442
1667,49	4,5	-0,268
1668,192	-13,5	-3,451
1668,894	-1	-1,627
1669,589	4,5	-0,07
1670,292	-12	-3,415
1670,987	-2	-1,896
1671,695	5	-0,001
1672,391	-10	-3,304
1673,093	-3	-2,08
1673,789	5	-0,001
1674,497	-9	-3,157
1675,212	-4,5	-2,243
1675,919	4,5	-0,002
1676,627	-7,5	-3,015
1677,323	-5	-2,418
1678,025	5	-0,003
1678,721	-6	-2,809
1679,435	-6,5	-2,608
1680,131	5	-0,008
1680,833	-4,5	-2,62
1681,529	-10	-2,872
1682,237	5	-0,016
1682,933	-3,5	-2,343
1683,641	-11,5	-3,019
1684,349	4,5	-0,024
1685,045	-3	-2,158
1685,752	-13,5	-3,179
1686,449	4,5	-0,045
1687,15	-2,5	-2,018
1687,847	-14	-3,5
1688,555	4	-0,105
1689,25	-1,5	-1,721
1689,958	-14	-3,499
1690,654	3	-0,253
1691,362	-1	-1,509
1692,058	-14	-3,498
1692,766	2,5	-0,41
1693,474	-1	-1,394
1694,17	-14,5	-3,498
1694,884	1,5	-0,528
1695,58	0	-1,18
1696,282	-14,5	-3,497
1696,978	1,5	-0,764
1697,68	0	-0,924
1698,376	-14	-3,493
1699,084	1	-0,936
1699,78	0,5	-0,749
1700,482	-14	-3,489
1701,178	0,5	-1,223
1701,886	3	-0,545
1702,582	-14	-3,476
1703,284	0	-1,432
1703,992	4,5	-0,361
1704,687	-13,5	-3,459
1705,39	-1	-1,656
1706,086	4,5	-0,015
1706,793	-13	-3,407
1707,489	-2	-1,879
1708,191	4,5	-0,001
1708,887	-10,5	-3,321
1709,59	-3	-2,071
1710,285	4,5	-0,002
1710,987	-8	-3,076
1711,701	-5,5	-2,352
1712,403	4,5	-0,003
1713,111	-6	-2,888
1713,807	-8,5	-2,646
1714,515	4,5	-0,007
1715,223	-5	-2,661
1715,925	-10	-2,794
1716,621	4,5	-0,014
1717,323	-4	-2,458
1718,019	-12	-3,012
1718,727	4,5	-0,023
1719,423	-3	-2,215
1720,125	-14	-3,274
1720,821	4	-0,061
1721,522	-2	-1,96
1722,218	-14	-3,483
1722,921	3,5	-0,098
1723,628	-1,5	-1,841
1724,324	-14	-3,499
1725,026	3	-0,218
1725,722	-0,5	-1,455
1726,442	-14	-3,499
1727,138	2	-0,459
1727,846	0	-1,314
1728,542	-14	-3,498
1729,25	1,5	-0,6
1729,946	0	-1,192
1730,66	-14	-3,497
1731,362	1,5	-0,748
1732,058	0	-0,981
1732,766	-14	-3,495
1733,462	0,5	-0,998
1734,17	1,5	-0,776
1734,866	-14	-3,489
1735,574	0	-1,235
1736,27	4,5	-0,402
1736,972	-13,5	-3,467
1737,668	-1	-1,638
1738,375	4,5	-0,088
1739,071	-12	-3,411
1739,78	-2	-1,823
1740,482	4,5	0
1741,219	-12	-3,406
1741,927	-2,5	-1,911
1924,515	4,5	-0,005
1925,217	-4,5	-2,648
1925,949	-7,5	-2,642
1926,645	4,5	-0,009
1927,353	-4,5	-2,606
1928,049	-9,5	-2,823
1928,751	4,5	-0,014
1929,447	-3,5	-2,384
1930,155	-12	-3,033
1930,851	4,5	-0,029
1931,558	-2,5	-2,21
1932,254	-13,5	-3,21
1932,962	4,5	-0,042
1933,658	-1,5	-1,992
1934,361	-14	-3,472
1935,056	3,5	-0,104
1935,764	-1,5	-1,778
1936,46	-14	-3,499
1937,168	3,5	-0,144
1937,883	-1,5	-1,756
1938,614	-13,5	-3,496
1939,34	4	-0,075
1940,036	-1,5	-1,828
1940,744	-14	-3,5
1941,44	3,5	-0,15
1942,148	-1,5	-1,719
1942,844	-13,5	-3,499
1943,546	3	-0,258
1944,242	-1	-1,466
1944,956	-14	-3,499
1945,652	2	-0,381
1946,36	-0,5	-1,358
1947,062	-14	-3,498
1947,788	2	-0,44
1948,484	-0,5	-1,25
1949,191	-14	-3,498
1949,888	1,5	-0,701
1950,596	0	-1,05
1951,304	-14	-3,496
1951,999	1	-0,886
1952,695	1	-0,8
1953,403	-13,5	-3,492
1954,129	1	-0,965
1954,837	0,5	-0,777
1955,545	-14	-3,491
1956,241	0,5	-1,101
1956,949	2	-0,623
1957,645	-13,5	-3,481
1958,354	0	-1,308
1959,049	4	-0,372
1959,757	-13,5	-3,467
1960,453	-0,5	-1,539
1961,161	4,5	-0,182
1961,857	-12,5	-3,43
1962,583	-0,5	-1,64
1963,279	4,5	-0,026
1963,981	-11,5	-3,393
1964,683	-2	-1,912
1965,379	4,5	-0,001
1966,074	-8,5	-3,247
1966,776	-3	-2,193
1967,473	4,5	-0,002
1968,181	-7,5	-3,033
1968,882	-5	-2,396
1969,578	4,5	-0,004
1970,274	-5	-2,748
1970,976	-7,5	-2,596
1971,673	4,5	-0,008
1972,374	-4,5	-2,654
1973,082	-8,5	-2,752
1973,778	4,5	-0,013
1974,492	-4	-2,504
1975,188	-12	-2,94
1975,896	4,5	-0,018
1976,592	-3	-2,28
1977,3	-12	-3,114
1977,996	4,5	-0,038
1978,704	-2,5	-2,122
1979,4	-13,5	-3,348
1980,102	4	-0,068
1980,798	-1,5	-1,858
1981,524	-14	-3,496
1982,22	3,5	-0,119
1982,928	-1,5	-1,747
1983,623	-14	-3,499
1984,332	3	-0,156
1985,028	-1	-1,724
1985,759	-13,5	-3,499
1986,467	3	-0,208
1987,163	-1	-1,535
1987,883	-14	-3,499
1988,579	2,5	-0,331
1989,293	-0,5	-1,413
1989,989	-14	-3,498
1990,697	2	-0,5
1991,393	0	-1,158
1992,101	-14	-3,497
1992,797	1,5	-0,729
1993,505	0	-0,99
1994,201	-14	-3,494
1994,903	1	-0,944
1995,599	0,5	-0,747
1996,307	-13,5	-3,49
1997,009	0,5	-1,1
2179,38	4,5	-0,045
2180,082	-2	-2,028
2180,778	-13,5	-3,373
2181,486	4,5	-0,068
2182,194	-1,5	-1,87
2182,902	-13,5	-3,492
2183,598	3,5	-0,116
2184,306	-1,5	-1,703
2185,002	-13,5	-3,499
2185,71	3	-0,219
2186,406	-0,5	-1,495
2187,114	-13,5	-3,499
2187,846	3	-0,236
2188,548	-1	-1,492
2189,244	-13,5	-3,499
2189,946	2,5	-0,378
2190,642	0	-1,34
2191,338	-13,5	-3,498
2192,04	1,5	-0,557
2192,748	0	-1,211
2193,444	-13,5	-3,497
2194,14	1,5	-0,667
2194,848	0	-1,014
2195,544	-13,5	-3,494
2196,252	1	-0,9
2196,947	1	-0,78
2197,679	-13,5	-3,494
2198,393	1	-0,894
2199,089	0,5	-0,841
2199,803	-13,5	-3,493
2200,499	0,5	-1,017
2201,201	2	-0,753
2201,897	-13,5	-3,488
2202,605	0,5	-1,163
2203,301	4	-0,534
2204,009	-13,5	-3,48
2204,705	0	-1,327
2205,413	4	-0,407
2206,109	-12,5	-3,465
2206,811	-0,5	-1,526
2207,537	4,5	-0,341
2208,245	-13	-3,464
2208,941	-1	-1,573
2209,649	4,5	-0,19
2210,345	-12	-3,431
2211,053	-1	-1,725
2211,749	4,5	0
2212,457	-9,5	-3,381
2213,152	-2	-1,922
2213,86	4,5	-0,001
2214,556	-8,5	-3,292
2287,794	-5	-2,418
2288,502	5	-0,003
2289,198	-5	-2,787
2289,9	-6,5	-2,616
2290,596	5	-0,008
2291,304	-4,5	-2,685
2292	-7,5	-2,7
2292,702	5	-0,01
2293,398	-3,5	-2,489
2294,106	-9,5	-2,873
2294,802	5	-0,018
2295,504	-3	-2,343
2296,2	-11,5	-3,053
2296,914	4,5	-0,024
2297,61	-2,5	-2,203
2298,311	-13	-3,164
2299,007	4,5	-0,044
2299,715	-2	-2,027
2300,429	-13	-3,323
2301,161	4,5	-0,041
2301,857	-2	-2,024
2302,565	-13	-3,409
2303,261	4	-0,089
2303,969	-1	-1,798
2304,665	-13,5	-3,499
2305,409	3,5	-0,093
2306,105	-1	-1,813
2306,813	-13,5	-3,5
2307,509	3	-0,185
2308,217	-1	-1,574
2308,913	-13,5	-3,499
2309,621	2,5	-0,299
2310,329	-0,5	-1,39
2311,031	-13,5	-3,498
2311,727	1,5	-0,513
2312,447	0	-1,293
2313,143	-13,5	-3,497
2313,863	2	-0,582
2314,559	0	-1,092
2315,261	-13,5	-3,496
2315,957	1,5	-0,856
2316,658	0,5	-0,842
2317,354	-13,5	-3,491
2318,056	0,5	-1,118
2318,752	3,5	-0,558
2319,454	-13	-3,479
2320,15	0	-1,413
2320,864	4,5	-0,324
2321,56	-12,5	-3,454
2322,268	-0,5	-1,604
2322,964	4,5	-0,018
2323,672	-10,5	-3,41
2324,368	-2	-1,945
2325,076	4,5	-0,001
2325,772	-7,5	-3,222
2326,474	-4	-2,308
2327,17	4,5	-0,003
2327,872	-5	-2,839
2328,568	-6,5	-2,584
2329,276	4,5	-0,006
2329,972	-4	-2,588
2330,68	-8	-2,757
2331,376	5	-0,013
2332,09	-3,5	-2,498
2332,81	-9	-2,819
2333,511	4,5	-0,014
2334,207	-3	-2,413
2334,909	-12	-3,033
2335,605	4,5	-0,029
2336,301	-2	-2,107
2337,009	-13	-3,288
2337,705	4	-0,064
2338,413	-1,5	-1,874
2339,109	-13,5	-3,5
2339,817	3,5	-0,137
2340,555	-1	-1,812
2341,251	-13	-3,5
2341,959	3,5	-0,134
2342,655	-1	-1,637
2343,351	-13,5	-3,499
2344,053	3	-0,313
2344,749	0	-1,357
2345,457	-13,5	-3,498
2346,153	2	-0,477
2346,855	0	-1,228
2347,551	-13,5	-3,497
2348,259	1,5	-0,692
2348,955	0	-0,936
2349,657	-13	-3,494
2350,353	1	-0,994
2351,061	1	-0,78
2351,756	-13	-3,489
2352,464	0,5	-1,06
2353,161	3	-0,582
2353,869	-13	-3,483
2354,565	0	-1,256
2355,272	3,5	-0,498
2355,968	-13	-3,473
2356,676	0	-1,351
2357,372	4,5	-0,306
2358,074	-12,5	-3,456
2358,776	0	-1,563
2359,473	4,5	-0,083
2360,18	-11,5	-3,424
3194,93	1	-1,272
3195,656	3,5	-0,558
3196,352	-8	-3,477
3197,06	1	-1,281
3197,756	4,5	-0,424
3198,464	-7,5	-3,472
3199,16	1	-1,463
3199,862	4,5	-0,266
3200,558	-6,5	-3,446
3201,254	0	-1,608
3201,956	4,5	-0,041
3202,652	-6	-3,399
3203,354	0	-1,817
3204,05	4,5	-0,001
3204,758	-5	-3,342
3205,454	-0,5	-1,944
3206,156	4,5	-0,001
3206,852	-4,5	-3,277
3207,548	-0,5	-2,096
3208,256	4,5	-0,001
3208,951	-3	-3,103
3209,653	-1,5	-2,289
3210,35	4,5	-0,003
3211,057	-3	-2,988
3211,753	-2	-2,444
3212,455	4,5	-0,004
3212,575	4,5	-0,001