File: ensaios_Ciclicos/_30perc/_1gap/entrada/_4.txt
Time (s)	Load (N)	Displacement (mm)
0	1,5	-0,034
2,447	-9	-1,788
4,793	-18,5	-2,908
7,27	-26	-3,495
9,802	-16	-2,294
12,256	-2,5	-0,69
14,776	3,5	-0,002
17,326	-6,5	-1,744
19,822	-22,5	-3,376
22,396	-24	-3,08
24,94	-2,5	-0,945
27,453	3,5	-0,003
30,528	-23,5	-3,472
32,961	-24	-3,407
35,391	-10,5	-1,919
37,896	2,5	-0,11
40,424	3,5	-0,496
42,866	-6	-1,8
45,388	-22	-3,45
47,882	-22,5	-3,211
50,195	-13,5	-2,263
52,55	-3	-1,144
54,89	2,5	-0,118
57,349	4	-0,001
60,254	-21	-3,422
62,809	-21	-3,025
65,15	-9,5	-1,948
67,699	4	-0,051
70,201	4	-0,222
72,649	-5,5	-1,773
75,09	-17,5	-3,279
77,496	-22	-3,497
79,866	-20	-2,947
82,23	-9	-1,946
84,57	-1	-0,884
86,916	3,5	-0,08
131,817	4,5	-0,015
134,103	4,5	-0,002
136,473	0,5	-0,741
138,874	-7	-2,182
141,237	-18	-3,376
143,516	-20,5	-3,487
145,791	-20,5	-3,498
148,136	-15,5	-2,809
150,47	-5,5	-1,836
152,72	-1,5	-1,272
155,089	4	-0,122
157,418	4,5	-0,005
160,261	-13,5	-3,005
162,655	-20,5	-3,495
164,971	-20	-3,281
167,263	-10,5	-2,344
169,585	-2	-1,265
171,955	4	-0,098
174,187	4,5	-0,017
176,569	4,5	-0,126
178,879	-1,5	-1,188
181,212	-7	-2,266
183,534	-15	-3,263
185,863	-19,5	-3,49
188,16	-19,5	-3,499
190,416	-15,5	-2,872
192,702	-7	-1,995
194,958	-1,5	-1,299
197,333	4	-0,113
199,589	5	-0,012
201,905	4,5	0
204,107	3	-0,469
206,393	-2	-1,257
208,699	-6	-2,238
210,971	-14	-3,174
213,233	-19	-3,461
215,481	-19,5	-3,496
217,774	-19,5	-3,371
219,934	-18,5	-3,08
222,178	-10,5	-2,418
224,386	-5	-1,938
226,546	-3	-1,648
229,18	5	-0,005
231,466	4,5	-0,115
233,703	0,5	-0,81
235,941	-2,5	-1,48
238,155	-5	-2,033
240,441	-11,5	-2,932
242,643	-15	-3,348
244,857	-18,5	-3,473
247,13	-19	-3,498
249,38	-19	-3,286
251,607	-12	-2,619
253,874	-4,5	-1,822
256,125	0	-1,158
258,308	0,5	-0,838
260,66	4,5	-0,029
262,892	5	-0,004
265,093	4,5	-0,001
267,41	-0,5	-0,925
269,666	-3,5	-1,706
271,927	-8,5	-2,531
274,163	-14,5	-3,215
276,343	-16,5	-3,416
278,533	-18,5	-3,482
280,753	-18,5	-3,496
283,056	-18,5	-3,12
285,282	-11	-2,478
287,55	-4,5	-1,74
289,728	-1,5	-1,366
291,954	0	-0,821
294,186	3	-0,13
296,358	4	-0,066
298,524	4,5	-0,024
300,743	4,5	-0,004
303,497	-8	-2,62
305,688	-12	-3,06
307,829	-14	-3,294
310,127	-18,5	-3,487
312,311	-18,5	-3,498
314,627	-18	-3,16
316,889	-10	-2,402
319,073	-7	-2,068
321,311	-1,5	-1,367
323,542	0,5	-0,843
325,744	2,5	-0,308
327,976	4,5	-0,054
330,178	4,5	-0,017
332,398	5	-0,003
374,173	-1	-1,296
376,375	0	-0,898
378,499	0,5	-0,868
380,617	0	-0,836
382,784	1	-0,73
384,931	1	-0,619
387,085	2	-0,399
389,214	2	-0,405
391,356	3	-0,263
393,487	3,5	-0,17
395,598	3,5	-0,15
397,71	3,5	-0,153
399,918	5	-0,025
402,054	5	-0,016
404,19	5	-0,009
406,349	5	-0,003
408,485	5	-0,002
410,561	5	-0,004
412,649	5	-0,007
414,743	5	-0,012
416,867	5	-0,01
418,979	5	-0,01
421,085	5	-0,01
423,185	5	-0,014
425,291	5	-0,015
427,432	5	-0,014
429,556	5	-0,017
431,638	4,5	-0,03
433,769	5	-0,02
435,874	4,5	-0,026
438,016	5	-0,012
440,115	5	-0,016
442,239	5	-0,013
444,345	4,5	-0,015
446,481	5	-0,01
448,551	4,5	-0,023
450,693	4,5	-0,017
452,793	5	-0,02
454,917	5	-0,016
457,095	4,5	-0,005
459,207	5	-0,005
461,36	5	-0,002
463,478	5	-0,002
465,62	5	-0,002
468,2	-3,5	-1,873
470,294	-3	-1,77
472,43	-3,5	-1,806
474,512	-3	-1,673
476,665	-3	-1,801
478,765	-2,5	-1,688
480,871	-2,5	-1,617
482,947	-1,5	-1,44
485,059	-1,5	-1,413
487,129	-0,5	-1,104
489,253	-1	-1,218
491,377	-1	-1,333
493,476	-1	-1,349
495,547	-0,5	-1,135
497,616	0,5	-0,933
499,722	0	-0,888
501,828	0	-0,891
503,91	0,5	-0,791
506,004	2	-0,692
508,08	3,5	-0,507
510,162	4,5	-0,31
512,232	5	-0,072
514,817	-6	-2,422
516,923	-5,5	-2,418
519,005	-4,5	-2,176
521,111	-5	-2,19
523,193	-3,5	-1,956
525,293	-3,5	-1,94
527,405	-3	-1,931
529,492	-3	-1,77
531,574	-2	-1,6
533,656	-2	-1,504
535,732	-1,5	-1,31
537,898	-2,5	-1,705
540,028	-2,5	-1,684
542,14	-2,5	-1,765
544,222	-2,5	-1,653
546,291	-2	-1,44
548,361	-1	-1,254
550,455	-0,5	-1,154
552,537	0	-0,995
554,601	1,5	-0,771
556,713	1	-0,757
558,801	3	-0,617
560,871	4	-0,392
562,959	5	-0,167
565,07	5	-0,133
567,152	5	-0,022
569,216	5	-0,001
571,274	5	-0,002
573,35	5	-0,004
575,426	5	-0,008
577,496	5	-0,012
579,59	5	-0,017
581,672	5	-0,031
583,747	4,5	-0,075
585,883	4,5	-0,063
587,965	4,5	-0,056
590,041	3,5	-0,125
592,117	3	-0,194
594,175	2	-0,474
596,245	1,5	-0,644
598,332	1	-0,758
600,426	1	-0,857
602,502	0	-1,121
604,578	-0,5	-1,335
606,642	-2	-1,676
608,76	-1,5	-1,59
610,812	-3,5	-1,916
612,894	-4,5	-2,048
614,94	-8,5	-2,434
617,052	-8,5	-2,476
619,128	-10,5	-2,704
621,197	-14,5	-2,97
623,273	-15,5	-3,134
625,355	-16	-3,274
627,437	-16,5	-3,494
629,549	-16,5	-3,5
631,649	-16,5	-3,499
633,73	-16,5	-3,498
635,824	-16,5	-3,498
637,876	-16,5	-3,493
639,952	-16,5	-3,489
642,034	-16	-3,485
644,098	-15	-3,438
646,18	-14	-3,365
648,31	-13,5	-3,364
650,361	-8,5	-2,844
652,449	-7,5	-2,72
654,537	-6	-2,601
656,613	-5	-2,348
658,713	-4,5	-2,242
660,831	-4,5	-2,301
662,931	-4	-2,237
664,995	-2,5	-1,727
667,077	-2	-1,621
669,218	-2,5	-1,74
671,306	-1,5	-1,5
673,358	-1	-1,168
675,446	0	-1,023
677,522	0,5	-0,762
679,568	4,5	-0,378
681,722	5	-0,264
683,774	5,5	-0,001
685,88	5,5	-0,002
687,967	5	-0,002
690,019	5	-0,008
692,119	5	-0,012
694,196	5	-0,027
696,271	4,5	-0,05
698,359	3,5	-0,18
700,405	2,5	-0,439
702,511	1,5	-0,68
704,592	1	-0,86
706,644	0	-1,128
708,726	-0,5	-1,344
710,802	-1,5	-1,566
712,878	-2	-1,764
714,948	-3,5	-1,968
717,084	-4,5	-2,139
719,166	-6,5	-2,33
721,217	-10,5	-2,772
723,3	-13	-2,985
725,357	-15,5	-3,284
727,421	-16,5	-3,5
729,533	-16	-3,496
731,603	-16	-3,499
733,715	-16	-3,499
735,809	-16	-3,499
737,866	-16	-3,495
739,955	-16	-3,493
742,024	-15,5	-3,488
744,112	-15,5	-3,479
746,224	-15,5	-3,48
748,294	-15	-3,408
750,376	-13	-3,294
752,458	-9,5	-3,138
754,576	-9	-3,011
756,651	-5	-2,502
758,709	-3	-1,957
760,797	-2,5	-1,78
762,879	-2	-1,627
764,937	-0,5	-1,23
767,001	0	-0,945
769,083	1,5	-0,774
771,141	4,5	-0,399
773,228	5	-0,191
775,37	5	-0,25
777,482	5	-0,201
779,564	5	-0,001
781,658	5	-0,001
783,728	5	-0,002
785,774	5	-0,004
787,868	5	-0,008
789,914	5	-0,018
792,014	5	-0,023
794,065	4,5	-0,065
796,147	4	-0,094
798,217	3	-0,209
800,299	2,5	-0,299
802,357	2	-0,55
804,451	1,5	-0,654
806,587	2	-0,48
808,639	1	-0,805
810,708	1	-1,024
812,772	0	-1,274
814,824	-1	-1,55
816,876	-3	-1,837
818,952	-4,5	-2,08
821,004	-8	-2,416
823,074	-9,5	-2,634
825,131	-13	-2,936
827,219	-15	-3,092
829,283	-15,5	-3,294
831,371	-15,5	-3,488
833,441	-15,5	-3,5
835,511	-15,5	-3,498
838,049	-2	-1,755
840,119	-4	-2,017
842,17	-6,5	-2,369
844,24	-10	-2,625
846,304	-12,5	-2,874
848,362	-15	-3,17
850,432	-15	-3,439
852,514	-15,5	-3,5
854,584	-15	-3,499
856,648	-15,5	-3,497
858,73	-15	-3,495
860,787	-15	-3,49
862,881	-15,5	-3,489
864,939	-15	-3,476
867,003	-15	-3,449
869,073	-14	-3,416
871,125	-11,5	-3,328
873,165	-9	-3,03
875,217	-6,5	-2,732
877,269	-5,5	-2,453
879,344	-4,5	-2,323
881,396	-3	-2,052
883,466	-2,5	-1,778
885,542	-1,5	-1,595
887,594	-1	-1,355
889,664	-0,5	-1,184
891,728	-0,5	-1,036
893,816	0	-0,949
895,874	2	-0,687
897,955	4	-0,511
900,013	4,5	-0,342
902,077	5	-0,066
904,177	5	-0,027
906,733	-4	-2,295
908,773	-2,5	-1,915
910,813	-1,5	-1,583
912,865	-0,5	-1,275
914,934	-0,5	-1,119
916,992	1	-0,802
919,062	2	-0,615
921,174	2,5	-0,643
923,244	3,5	-0,451
925,284	5	-0,143
927,336	5	-0,001
929,394	5	-0,002
931,475	5	-0,004
933,551	5	-0,005
935,621	5	-0,008
937,691	5	-0,015
939,755	4,5	-0,031
941,843	5	-0,041
943,919	4	-0,089
945,971	3	-0,191
948,053	3	-0,306
950,11	1,5	-0,628
952,205	1,5	-0,678
954,268	1	-0,918
956,32	0	-1,195
958,384	-0,5	-1,39
960,454	-2	-1,679
962,506	-3,5	-1,96
964,558	-5,5	-2,243
966,615	-8,5	-2,554
968,697	-10	-2,593
970,761	-12	-2,958
972,837	-14	-3,057
974,919	-15	-3,212
976,983	-15	-3,401
979,059	-15	-3,5
981,135	-15	-3,499
983,229	-15	-3,499
985,305	-15	-3,498
987,386	-15	-3,498
989,444	-15	-3,494
991,532	-15	-3,491
993,698	-15	-3,496
995,774	-15	-3,494
997,826	-15	-3,485
999,86	-15	-3,461
1001,948	-14	-3,449
1004,005	-12,5	-3,352
1006,057	-10	-3,117
1008,116	-8	-2,912
1010,173	-5,5	-2,658
1012,231	-4	-2,347
1014,313	-3	-2,045
1016,371	-2	-1,814
1018,441	-1,5	-1,584
1020,48	-0,5	-1,193
1022,538	0	-0,909
1024,59	4	-0,594
1026,63	5	-0,378
1028,7	5	-0,117
1030,764	5	0
1032,834	5	-0,001
1034,897	5	-0,003
1036,937	5	-0,007
1039,049	5	-0,007
1041,119	5	-0,013
1043,189	5	-0,03
1045,271	4,5	-0,043
1047,323	4	-0,11
1049,381	3	-0,252
1051,451	2	-0,477
1053,521	1,5	-0,694
1055,572	0,5	-0,968
1057,648	0	-1,098
1059,724	0	-1,318
1061,794	-0,5	-1,549
1063,918	0	-1,471
1065,946	-3	-1,856
1067,986	-6,5	-2,418
1070,05	-10	-2,743
1072,125	-12	-2,942
1074,207	-14,5	-3,166
1076,289	-15	-3,389
1078,347	-15	-3,499
1080,375	-15	-3,497
1082,427	-15	-3,493
1084,509	-15	-3,486
1086,585	-15	-3,474
1088,636	-13,5	-3,423
1090,73	-12	-3,341
1092,77	-8,5	-3,028
1094,858	-7,5	-2,877
1096,952	-6,5	-2,718
1099,04	-5,5	-2,595
1101,092	-3,5	-2,297
1103,162	-3	-2,039
1105,214	-1,5	-1,682
1107,277	-0,5	-1,398
1109,335	-0,5	-1,182
1111,405	0	-0,931
1113,445	3,5	-0,513
1115,503	5	-0,214
1117,585	5	0
1119,619	5,5	-0,002
1121,671	5,5	-0,007
1123,728	5,5	-0,016
1125,798	5	-0,035
1127,868	4,5	-0,064
1129,938	4	-0,112
1131,99	3	-0,387
1134,06	1,5	-0,575
1136,106	1	-0,88
1138,14	-0,5	-1,558
1140,215	-1,5	-1,704
1142,291	-2,5	-1,957
1144,349	-4,5	-2,23
1146,407	-7	-2,553
1148,471	-10,5	-2,844
1150,523	-14,5	-3,165
1152,587	-15	-3,492
1154,651	-15	-3,499
1156,739	-15	-3,498
1158,784	-15	-3,496
1160,842	-15	-3,491
1162,876	-14,5	-3,467
1164,935	-13,5	-3,418
1167,022	-12,5	-3,385
1169,104	-11	-3,308
1171,156	-8	-2,957
1173,214	-6	-2,688
1175,265	-4,5	-2,38
1177,324	-2,5	-2,004
1179,423	-2	-1,866
1181,475	-1	-1,493
1183,539	-0,5	-1,223
1185,591	0	-0,882
1187,643	3	-0,567
1189,701	5	-0,186
1191,735	5	-0,001
1193,822	5	-0,001
1195,892	5	-0,003
1197,944	5	-0,011
1200,02	5	-0,024
1202,084	5	-0,068
1204,136	3	-0,249
1206,206	2	-0,541
1208,294	1,5	-0,686
1210,357	0,5	-1,031
1212,415	0	-1,358
1214,485	-0,5	-1,63
1216,513	-3,5	-2,09
1218,553	-6,5	-2,508
1220,623	-9	-2,796
1222,675	-14,5	-3,187
1224,715	-15	-3,5
1226,767	-15	-3,498
1228,836	-15	-3,496
1230,912	-15	-3,494
1232,976	-15	-3,485
1235,028	-14,5	-3,464
1237,05	-11	-3,33
1239,108	-9,5	-3,17
1241,196	-7,5	-3,013
1243,26	-6	-2,786
1245,311	-4,5	-2,44
1247,387	-3	-2,208
1249,463	-2,5	-2,04
1251,509	-1	-1,659
1253,561	-0,5	-1,318
1255,643	-0,5	-1,116
1257,707	0,5	-0,915
1259,765	1,5	-0,704
1261,853	3	-0,693
1263,916	5	-0,38
1265,957	5	0
1268,02	5	-0,001
1270,09	5	-0,002
1272,166	5,5	-0,004
1274,206	5	-0,012
1276,276	5	-0,023
1278,322	4,5	-0,066
1280,362	3,5	-0,183
1282,401	2	-0,48
1284,459	1,5	-0,765
1286,505	0,5	-1,068
1288,581	0	-1,203
1290,663	-0,5	-1,459
1292,721	-1,5	-1,726
1294,773	-3,5	-2,036
1296,849	-4,5	-2,209
1298,889	-8	-2,584
1300,952	-11,5	-2,88
1303,016	-14	-3,104
1305,062	-14,5	-3,36
1307,132	-15	-3,5
1309,196	-15	-3,498
1311,254	-15	-3,497
1313,318	-15	-3,494
1315,37	-14,5	-3,484
1317,409	-13,5	-3,444
1319,479	-12,5	-3,397
1321,549	-10,5	-3,324
1323,607	-9	-3,153
1325,677	-7,5	-2,945
1327,729	-5	-2,604
1329,799	-3,5	-2,311
1331,845	-2	-1,956
1333,915	-1,5	-1,768
1335,972	-1	-1,478
1338,025	0	-1,1
1340,076	1	-0,785
1342,158	3	-0,605
1344,234	4	-0,485
1346,268	5	-0,12
1348,326	5	-0,001
1350,396	5	-0,002
1352,454	5	-0,005
1354,505	5	-0,015
1356,533	4	-0,059
1358,579	3,5	-0,164
1360,649	2,5	-0,379
1362,719	1,5	-0,635
1364,771	0,5	-0,998
1366,823	0	-1,291
1368,875	-1	-1,6
1370,932	-2,5	-1,842
1373,008	-3,5	-2,048
1375,06	-5,5	-2,357
1377,13	-8	-2,58
1379,194	-9,5	-2,766
1381,234	-13,5	-3,06
1383,28	-14,5	-3,433
1385,355	-14,5	-3,499
1387,42	-14,5	-3,499
1389,477	-14,5	-3,497
1391,535	-14,5	-3,492
1393,587	-14,5	-3,481
1395,634	-13,5	-3,451
1397,673	-11,5	-3,354
1399,749	-9	-3,238
1401,819	-8	-2,995
1403,871	-6	-2,739
1405,94	-5	-2,562
1407,968	-3	-2,187
1410,02	-2	-1,867
1412,09	-1,5	-1,68
1414,13	-0,5	-1,311
1416,188	0	-1,021
1418,216	2,5	-0,586
1420,273	4,5	-0,274
1422,337	5	-0,007
1424,389	5	-0,001
1426,477	5	-0,002
1428,505	5	-0,008
1430,545	5	-0,027
1432,597	4,5	-0,076
1434,649	3,5	-0,184
1436,689	2	-0,51
1438,728	1,5	-0,831
1440,769	0	-1,205
1442,826	-0,5	-1,489
1444,866	-2,5	-1,863
1446,906	-4,5	-2,163
1448,958	-6,5	-2,458
1451,01	-8,5	-2,708
1453,062	-11,5	-2,916
1455,101	-14,5	-3,3
1457,165	-14,5	-3,497
1459,217	-14,5	-3,499
1461,275	-14,5	-3,497
1463,333	-14,5	-3,494
1465,379	-14	-3,486
1467,407	-13,5	-3,455
1469,465	-11	-3,369
1471,517	-9	-3,166
1473,581	-7	-2,966
1475,644	-4,5	-2,608
1477,684	-3	-2,23
1479,712	-1,5	-1,778
1481,764	-0,5	-1,476
1483,804	0	-1,106
1485,844	2	-0,742
1487,926	3,5	-0,498
1489,995	5	-0,304
1492,041	5	0
1494,099	5	-0,002
1496,121	5	-0,008
1498,197	5	-0,013
1500,267	5	-0,02
1502,319	4,5	-0,06
1504,371	3,5	-0,173
1506,399	2	-0,599
1508,487	1,5	-0,69
1510,544	1	-0,964
1512,584	0	-1,349
1514,642	-1	-1,644
1516,688	-3	-2,058
1518,74	-5,5	-2,329
1520,78	-8,5	-2,682
1522,838	-11	-2,919
1524,883	-13,5	-3,234
1526,935	-14	-3,5
1528,975	-14,5	-3,498
1531,021	-14,5	-3,496
1533,049	-14,5	-3,488
1535,107	-13,5	-3,462
1537,147	-12	-3,374
1539,223	-10,5	-3,283
1541,287	-7,5	-3,016
1543,332	-5	-2,633
1545,384	-3,5	-2,277
1547,424	-2	-1,855
1549,458	-0,5	-1,434
1551,534	-0,5	-1,229
1553,562	0,5	-0,806
1555,608	4	-0,44
1557,642	5	-0,032
1559,682	5,5	-0,001
1561,715	5	-0,004
1563,767	5,5	-0,011
1565,795	5	-0,035
1567,847	4,5	-0,086
1569,888	3	-0,277
1571,933	2	-0,61
1573,973	0,5	-1,069
1576,013	0	-1,443
1578,035	-1,5	-1,854
1580,081	-3,5	-2,218
1582,108	-7,5	-2,654
1584,148	-13	-3,152
1586,194	-14	-3,5
1588,234	-14	-3,498
1590,274	-14,5	-3,495
1592,35	-14,5	-3,491
1594,384	-14	-3,468
1596,43	-12,5	-3,421
1598,481	-10	-3,25
1600,557	-7,5	-3,088
1602,585	-5	-2,644
1604,637	-3,5	-2,361
1606,695	-2,5	-2,088
1608,735	-1	-1,58
1610,775	0	-1,2
1612,827	0	-0,966
1614,848	3	-0,527
1616,888	5	-0,174
1618,934	5	-0,001
1620,962	5	-0,004
1623,002	5	-0,015
1625,042	4,5	-0,05
1627,07	3	-0,201
1629,098	1,5	-0,619
1631,126	0,5	-1,08
1633,165	0	-1,459
1635,187	-2	-1,883
1637,227	-4,5	-2,239
1639,309	-5,5	-2,394
1641,361	-7,5	-2,672
1643,389	-12,5	-3,1
1645,441	-14	-3,496
1647,498	-14	-3,499
1649,527	-14	-3,496
1651,566	-14	-3,486
1653,6	-13,5	-3,459
1655,634	-10,5	-3,355
1657,662	-7,5	-3,045
1659,702	-5	-2,627
1661,736	-3	-2,25
1663,764	-1,5	-1,757
1665,858	-1,5	-1,694
1667,886	-0,5	-1,35
1669,919	0	-0,84
1671,977	3,5	-0,46
1674,005	5	-0,104
1676,051	5	-0,001
1678,109	5,5	-0,003
1680,137	5	-0,013
1682,177	4,5	-0,066
1684,234	3,5	-0,168
1686,262	2	-0,581
1688,296	1	-0,975
1690,318	-0,5	-1,46
1692,364	-1,5	-1,837
1694,404	-4	-2,243
1696,438	-6,5	-2,606
1698,49	-11	-2,947
1700,512	-14	-3,471
1702,551	-14	-3,499
1704,627	-14	-3,497
1706,655	-14	-3,483
1708,689	-13,5	-3,457
1710,741	-11	-3,352
1712,769	-5,5	-2,879
1714,797	-3,5	-2,374
1716,849	-2	-1,97
1718,889	-1	-1,521
1720,91	0	-1,12
1722,963	1,5	-0,773
1725,002	4,5	-0,392
1727,025	5	0
1729,064	5	-0,002
1731,092	5	-0,008
1733,132	4,5	-0,027
1735,159	3,5	-0,108
1737,193	2,5	-0,367
1739,249	0,5	-0,815
1741,273	0	-1,308
1743,313	-1	-1,628
1745,383	-3	-1,964
1747,411	-5,5	-2,404
1749,451	-8,5	-2,72
1751,479	-14	-3,232
1753,507	-14	-3,499
1755,54	-14	-3,498
1757,58	-14	-3,494
1759,608	-14	-3,472
1761,648	-12	-3,398
1763,718	-9	-3,268
1765,764	-7	-3,002
1767,81	-4,5	-2,636
1769,861	-3	-2,358
1771,883	-1,5	-1,92
1773,917	-1	-1,56
1775,94	0	-1,196
1777,991	0,5	-0,918
1780,037	3	-0,61
1782,095	5	-0,325
1784,135	5	-0,002
1786,163	5	-0,002
1788,197	5	-0,004
1790,218	5	-0,027
1792,252	4	-0,102
1794,274	2	-0,5
1796,338	1	-0,765
1798,36	0	-1,176
1800,4	-0,5	-1,524
1802,446	-1,5	-1,799
1804,48	-4,5	-2,3
1806,532	-7,5	-2,609
1808,595	-9,5	-2,815
1810,635	-13,5	-3,23
1812,663	-13,5	-3,499
1814,697	-14	-3,495
1816,725	-13,5	-3,475
1818,759	-11,5	-3,408
1820,811	-8,5	-3,225
1822,838	-5	-2,707
1824,878	-2,5	-2,257
1826,906	-1	-1,765
1828,958	-0,5	-1,472
1830,986	0	-1,079
1833,026	1,5	-0,685
1835,048	5	-0,176
1837,082	5	-0,001
1839,104	5	-0,004
1841,137	5	-0,015
1843,159	4	-0,069
1845,187	3	-0,297
1847,209	1,5	-0,708
1849,243	0	-1,154
1851,271	-1	-1,594
1853,323	-1,5	-1,829
1855,375	-3,5	-2,123
1857,408	-7	-2,584
1859,442	-11	-2,985
1861,464	-13,5	-3,471
1863,504	-13,5	-3,499
1865,526	-14	-3,495
1867,566	-13,5	-3,487
1869,618	-13,5	-3,476
1871,676	-12	-3,416
1873,74	-9	-3,29
1875,767	-6	-2,9
1877,802	-4	-2,468
1879,829	-2	-2,066
1881,864	-1	-1,652
1883,891	0	-1,163
1885,961	0	-0,896
1888,001	3,5	-0,484
1890,029	5	-0,086
1892,057	5	-0,001
1894,085	5,5	-0,005
1896,118	5,5	-0,015
1898,146	4,5	-0,057
1900,18	3,5	-0,174
1902,214	2	-0,55
1904,242	1	-1,043
1906,282	0	-1,395
1908,322	-1	-1,749
1910,349	-3,5	-2,194
1912,384	-7	-2,63
1914,405	-12,5	-3,115
1916,433	-14	-3,5
1918,461	-13,5	-3,498
1920,489	-14	-3,496
1922,523	-13,5	-3,486
1924,569	-13	-3,455
1926,597	-9,5	-3,333
1928,643	-7,5	-3,018
1930,706	-5	-2,707
1932,728	-2,5	-2,215
1934,774	-1,5	-1,944
1936,814	-0,5	-1,533
1938,842	0	-1,073
1940,912	1,5	-0,774
1942,94	4,5	-0,339
1944,986	5	-0,054
1947,013	5	-0,002
1949,047	5	-0,006
1951,075	5	-0,013
1953,121	4,5	-0,061
1955,143	3	-0,244
1957,177	1,5	-0,666
1959,199	0,5	-1,157
1961,245	-0,5	-1,602
1963,284	-2	-1,945
1965,312	-5	-2,379
1967,346	-8	-2,703
1969,398	-9,5	-2,907
1971,45	-13,5	-3,279
1973,478	-13,5	-3,499
1975,512	-13,5	-3,498
1977,54	-13,5	-3,491
1979,585	-13	-3,474
1981,613	-11	-3,403
1983,653	-8	-3,186
1985,699	-6,5	-2,905
1987,733	-3,5	-2,474
1989,761	-2	-1,971
1991,795	-1	-1,657
1993,823	-0,5	-1,27
1995,857	0	-0,941
1997,884	3,5	-0,505
1999,912	5	-0,023
2001,934	5	-0,002
2003,962	5	-0,006
2005,99	4,5	-0,022
2008,042	4,5	-0,05
2010,07	3	-0,192
2012,116	2	-0,555
2014,144	0,5	-1,038
2016,195	0	-1,384
2018,223	-1,5	-1,813
2020,263	-3	-2,135
2022,309	-5,5	-2,42
2024,349	-8	-2,689
2026,377	-12,5	-3,161
2028,417	-13,5	-3,486
2030,439	-13,5	-3,498
2032,478	-13,5	-3,495
2034,5	-13,5	-3,485
2036,54	-12,5	-3,454
2038,562	-10,5	-3,35
2040,596	-7,5	-3,048
2042,618	-4,5	-2,648
2044,67	-3,5	-2,345
2046,716	-2	-2,022
2048,75	-1	-1,682
2050,777	-0,5	-1,322
2052,817	0,5	-0,887
2054,851	3	-0,499
2056,886	5	-0,005
2058,943	5	-0,001
2060,983	5	-0,004
2063,011	5	-0,017
2065,045	4,5	-0,059
2067,067	2,5	-0,267
2069,142	2,5	-0,42
2071,2	1,5	-0,722
2073,246	0,5	-1,06
2075,274	0	-1,424
2077,302	-1,5	-1,897
2079,33	-4,5	-2,406
2081,382	-7	-2,636
2083,416	-12	-3,094
2085,455	-13,5	-3,405
2087,495	-13,5	-3,499
2089,523	-13,5	-3,496
2091,569	-13,5	-3,49
2093,627	-13,5	-3,478
2095,685	-13	-3,46
2097,713	-11	-3,374
2099,771	-9	-3,238
2101,799	-5,5	-2,814
2103,838	-4	-2,488
2105,866	-2,5	-2,112
2107,906	-1,5	-1,742
2109,934	-0,5	-1,356
2111,962	0	-0,985
2114,05	0	-0,861
2116,09	3	-0,502
2118,13	5	-0,072
2120,193	5	-0,001
2122,215	5	-0,005
2124,255	5	-0,015
2126,283	4,5	-0,055
2128,317	3,5	-0,166
2130,339	2	-0,569
2132,367	1,5	-0,909
2134,389	0	-1,262
2136,429	0	-1,56
2138,456	-1,5	-1,931
2140,484	-3	-2,259
2142,518	-7,5	-2,669
2144,54	-13	-3,098
2146,586	-13,5	-3,426
2148,608	-13,5	-3,499
2150,642	-13,5	-3,496
2152,67	-13,5	-3,49
2154,703	-13	-3,47
2156,725	-10,5	-3,364
2158,747	-7,5	-3,006
2160,781	-4,5	-2,584
2162,809	-2,5	-2,13
2164,855	-1	-1,78
2166,883	-0,5	-1,377
2168,911	0	-0,964
2170,939	4	-0,481
2173,002	5	-0,196
2175,048	5	-0,001
2177,088	5	-0,003
2179,122	5	-0,008
2181,162	5	-0,026
2183,184	4	-0,111
2185,212	2,5	-0,323
2187,252	1,5	-0,76
2189,322	0,5	-1,053
2191,361	-0,5	-1,604
2193,389	-2	-1,933
2195,423	-4	-2,347
2197,451	-8	-2,786
2199,473	-13	-3,243
2201,513	-13	-3,499
2203,541	-13,5	-3,497
2205,569	-13,5	-3,489
2207,596	-12,5	-3,459
2209,654	-10,5	-3,402
2211,688	-7,5	-3,131
2213,716	-4,5	-2,697
2215,756	-3	-2,318
2217,778	-1,5	-1,889
2219,818	-0,5	-1,51
2221,846	0	-1,06
2223,868	3	-0,584
2225,901	5	-0,185
2227,965	5	-0,01
2229,993	5	-0,002
2232,021	5	-0,009
2234,061	5	-0,024
2236,083	4	-0,093
2238,123	2,5	-0,309
2240,151	1,5	-0,748
2242,226	1	-0,884
2244,254	0	-1,41
2246,282	-1,5	-1,919
2248,31	-5	-2,39
2250,338	-9	-2,856
2252,372	-13	-3,248
2254,4	-13,5	-3,499
2256,44	-13,5	-3,498
2258,462	-13	-3,489
2260,496	-12,5	-3,466
2262,517	-10,5	-3,368
2264,539	-7	-3,072
2266,579	-5	-2,782
2268,613	-3	-2,442
2270,653	-1,5	-2,099
2272,675	-1	-1,692
2274,703	0	-1,189
2276,743	1	-0,793
2278,764	5	-0,306
2280,793	5	0
2282,832	5	-0,003
2284,86	5	-0,012
2286,894	4,5	-0,036
2288,916	3,5	-0,16
2290,95	1,5	-0,504
2292,972	0,5	-0,985
2294,994	0	-1,333
2297,039	-0,5	-1,619
2299,067	-2	-1,909
2301,101	-4,5	-2,335
2303,123	-7,5	-2,704
2305,163	-11	-2,994
2307,191	-13	-3,466
2309,213	-13	-3,498
2311,253	-13	-3,495
2313,28	-13	-3,484
2315,308	-12	-3,452
2317,342	-9,5	-3,34
2319,37	-6,5	-3,072
2321,392	-3,5	-2,578
2323,426	-1,5	-2,097
2325,454	-0,5	-1,677
2327,488	0	-1,332
2329,528	0	-0,968
2331,562	3	-0,566
2333,601	5	-0,164
2335,635	5	-0,001
2337,657	5	-0,004
2339,715	5	-0,01
2341,743	4,5	-0,035
2343,771	4	-0,118
2345,811	2,5	-0,272
2347,832	1,5	-0,684
2349,86	0,5	-1,084
2351,894	0	-1,472
2353,941	-1	-1,789
2356,016	-1,5	-1,914
2358,044	-4	-2,284
2360,066	-8	-2,734
2362,1	-11,5	-3,049
2364,128	-13	-3,5
2366,155	-13	-3,498
2368,184	-13	-3,494
2370,205	-13	-3,479
2372,287	-12,5	-3,463
2374,333	-11	-3,412
2376,373	-8,5	-3,219
2378,395	-5,5	-2,882
2380,423	-3,5	-2,576
2382,451	-2,5	-2,179
2384,502	-1,5	-1,902
2386,53	-0,5	-1,419
2388,552	0	-0,944
2390,592	3,5	-0,501
2392,614	5	-0,127
2394,648	5	-0,001
2396,676	5	-0,003
2398,704	5	-0,013
2400,737	4,5	-0,056
2402,759	3	-0,211
2404,793	2	-0,471
2406,815	1	-0,889
2408,843	0	-1,285
2410,877	-1	-1,743
2412,905	-3	-2,119
2414,933	-6	-2,554
2416,973	-9,5	-2,928
2419,024	-13	-3,284
2421,058	-13	-3,499
2423,086	-13	-3,496
2425,12	-13	-3,489
2427,148	-12	-3,447
2429,176	-9	-3,305
2431,216	-6,5	-3,019
2433,238	-4	-2,572
2435,296	-2,5	-2,25
2437,323	-1	-1,862
2439,345	-0,5	-1,457
2441,379	0	-1,083
2443,401	2	-0,682
2445,447	4,5	-0,354
2447,493	5	-0,009
2449,521	5	-0,002
2451,561	5	-0,006
2453,582	5	-0,022
2455,635	4,5	-0,064
2457,68	3	-0,209
2459,708	1,5	-0,648
2461,736	0,5	-1,048
2463,764	0	-1,458
2465,81	-1	-1,801
2467,838	-3,5	-2,204
2469,866	-6,5	-2,638
2471,906	-10,5	-3,014
2473,933	-13	-3,433
2475,967	-13	-3,499
2477,989	-13	-3,495
2480,023	-13	-3,484
2482,051	-12	-3,448
2484,079	-9	-3,3
2486,107	-6	-2,942
2488,129	-4,5	-2,606
2490,15	-2	-2,13
2492,202	-1,5	-1,937
2494,23	-0,5	-1,445
2496,27	0	-1,086
2498,31	1	-0,786
2500,332	4,5	-0,38
2502,408	5	-0,186
2504,43	5	-0,001
2506,458	5	-0,004
2508,497	5	-0,009
2510,519	4,5	-0,044
2512,553	3,5	-0,135
2514,581	2,5	-0,426
2516,603	1	-0,923
2518,637	0	-1,274
2520,659	-1	-1,733
2522,687	-3	-2,151
2524,721	-5	-2,54
2526,742	-9	-2,929
2528,772	-13	-3,377
2530,792	-13	-3,499
2532,814	-13	-3,496
2534,842	-13	-3,483
2536,882	-12	-3,446
2538,91	-10	-3,362
2540,944	-7	-3,078
2542,965	-4,5	-2,678
2544,987	-2,5	-2,256
2547,021	-1,5	-1,873
2549,049	-0,5	-1,497
2551,071	0	-1,017
2553,105	1,5	-0,707
2555,127	4,5	-0,29
2557,161	5	0
2559,188	5	-0,002
2561,21	5	-0,009
2563,244	5	-0,023
2565,266	4,5	-0,072
2567,288	3	-0,25
2569,322	2	-0,562
2571,344	1	-1,053
2573,366	0	-1,528
2575,436	-1	-1,715
2577,463	-1,5	-1,99
2579,503	-4	-2,392
2581,525	-8	-2,845
2583,547	-12,5	-3,3
2585,581	-12,5	-3,499
2587,609	-12,5	-3,497
2589,661	-12,5	-3,492
2591,689	-12	-3,477
2593,716	-11,5	-3,443
2595,744	-9	-3,309
2597,766	-5	-2,857
2599,788	-3	-2,341
2601,816	-1,5	-1,89
2603,844	-0,5	-1,429
2605,866	0	-0,906
2607,9	5	-0,416
2609,922	5	0
2611,961	5	-0,002
2613,983	5	-0,009
2616,011	4,5	-0,038
2618,045	3,5	-0,158
2620,073	1,5	-0,595
2622,119	1	-0,954
2624,183	0,5	-1,194
2626,223	0	-1,553
2628,245	-2	-2,048
2630,272	-5,5	-2,535
2632,306	-9	-2,945
2634,334	-12	-3,483
2636,362	-12,5	-3,498
2638,396	-12,5	-3,494
2640,418	-12	-3,478
2642,482	-11,5	-3,447
2644,51	-8	-3,276
2646,538	-5,5	-2,867
2648,565	-3	-2,492
2650,593	-1,5	-2,019
2652,621	-0,5	-1,601
2654,703	0	-1,4
2656,737	0	-1,048
2658,771	3	-0,612
2660,799	5	-0,097
2662,82	5	-0,001
2664,849	5,5	-0,005
2666,87	5	-0,026
2668,892	4	-0,119
2670,92	2	-0,434
2672,942	1,5	-0,909
2674,964	0	-1,394
2677,016	0	-1,639
2679,038	-2,5	-2,125
2681,089	-5	-2,498
2683,118	-7,5	-2,816
2685,145	-12	-3,288
2687,185	-12,5	-3,499
2689,213	-12,5	-3,497
2691,235	-12,5	-3,491
2693,269	-12	-3,469
2695,309	-10,5	-3,404
2697,348	-7	-3,156
2699,371	-4	-2,616
2701,392	-1,5	-2,084
2703,426	-0,5	-1,717
2705,454	0	-1,24
2707,482	1,5	-0,82
2709,513	4	-0,46
2711,532	5	-0,002
2713,56	5	-0,002
2715,593	5	-0,006
2717,616	5	-0,024
2719,643	3,5	-0,096
2721,665	2,5	-0,354
2723,699	1,5	-0,8
2725,727	0,5	-1,24
2727,767	0	-1,61
2729,795	-1,5	-2,049
2731,817	-5	-2,508
2733,845	-9,5	-2,894
2735,872	-12	-3,242
2737,894	-12	-3,499
2739,934	-12	-3,498
2741,962	-12	-3,492
2743,99	-11,5	-3,469
2746,024	-9,5	-3,4
2748,046	-6,5	-3,12
2750,068	-4	-2,666
2752,101	-1,5	-2,298
2754,129	-1	-1,816
2756,157	0	-1,44
2758,191	1	-0,935
2760,219	3,5	-0,574
2762,247	5	-0,142
2764,281	5	-0,001
2766,309	5	-0,006
2768,337	5	-0,023
2770,376	4	-0,076
2772,404	3	-0,303
2774,432	1,5	-0,768
2776,472	0,5	-1,104
2778,494	0	-1,505
2780,522	-2	-2,026
2782,556	-4,5	-2,388
2784,584	-7,5	-2,795
2786,612	-12	-3,271
2788,645	-12	-3,499
2790,673	-12,5	-3,497
2792,701	-12	-3,489
2794,729	-11,5	-3,463
2796,763	-10	-3,384
2798,791	-6	-3,089
2800,825	-4	-2,685
2802,852	-1,5	-2,176
2804,881	-0,5	-1,752
2806,926	0	-1,402
2808,978	0	-1,131
2811,006	1,5	-0,706
2813,034	5	-0,285
2815,074	5	0
2817,102	5	-0,002
2819,13	5	-0,007
2821,163	5	-0,021
2823,185	4	-0,096
2825,213	2,5	-0,389
2827,253	1,5	-0,728
2829,275	0,5	-1,107
2831,303	0	-1,525
2833,361	-0,5	-1,772
2835,395	-3	-2,235
2837,435	-5	-2,584
2839,456	-10	-3,043
2841,502	-11,5	-3,354
2843,566	-11,5	-3,5
2845,594	-11	-3,498
2847,622	-11,5	-3,495
2849,692	-11,5	-3,492
2851,72	-11	-3,475
2853,748	-10	-3,423
2855,775	-6	-3,178
2857,797	-4	-2,852
2859,849	-3	-2,576
2861,877	-1,5	-2,221
2863,914	-0,5	-1,773
2865,933	0	-1,341
2867,973	0	-1,036
2870,019	2	-0,67
2872,047	5	-0,248
2874,075	5	-0,001
2876,108	5	-0,004
2878,154	5	-0,01
2880,194	4,5	-0,03
2882,222	4	-0,104
2884,244	2,5	-0,416
2886,266	1,5	-0,902
2888,306	0,5	-1,271
2890,334	-0,5	-1,818
2892,373	-1,5	-2,17
2894,401	-4	-2,626
2896,423	-8	-3,075
2898,451	-9,5	-3,452
2900,485	-9,5	-3,499
2902,513	-9,5	-3,495
2904,541	-9,5	-3,485
2906,569	-8,5	-3,432
2908,591	-5,5	-3,22
2910,618	-3	-2,743
2912,646	-2	-2,315
2914,68	-1	-1,868
2916,708	0	-1,407
2918,754	0	-1,095
2920,776	3	-0,571
2922,798	5	-0,047
2924,844	5,5	-0,001
2926,865	5	-0,007
2928,893	5	-0,025
2930,927	3,5	-0,108
2932,949	2	-0,46
2934,971	1,5	-0,962
2937,005	1	-1,349
2939,039	0	-1,824
2941,067	-1,5	-2,264
2943,101	-4	-2,647
2945,122	-7,5	-3,09
2947,15	-9	-3,497
2949,19	-9	-3,499
2951,212	-9	-3,494
2953,252	-9	-3,476
2955,286	-7	-3,416
2957,314	-5	-3,122
2959,348	-3	-2,736
2961,43	-2,5	-2,564
2963,451	-1	-2,085
2965,479	0	-1,608
2967,507	0	-1,317
2969,529	1	-0,868
2971,557	4,5	-0,386
2973,597	5	0
2975,619	5	-0,002
2977,64	5	-0,012
2979,675	5	-0,038
2981,702	3,5	-0,133
2983,748	2,5	-0,412
2985,782	1,5	-0,737
2987,81	1,5	-1,134
2989,85	0,5	-1,514
2991,89	0	-1,83
2993,918	-1,5	-2,279
2995,945	-4	-2,699
2997,986	-8	-3,126
3000,007	-9	-3,499
3002,035	-9	-3,497
3004,075	-8,5	-3,492
3006,097	-8,5	-3,475
3008,119	-7	-3,409
3010,147	-4,5	-3,124
3012,18	-3	-2,708
3014,202	-1,5	-2,27
3016,272	-1	-2,015
3018,312	-0,5	-1,726
3020,352	0	-1,372
3022,374	0,5	-0,966
3024,396	4	-0,468
3026,424	5	-0,091
3028,458	5	-0,001
3030,479	5	-0,006
3032,502	5	-0,022
3034,541	4,5	-0,07
3036,563	3	-0,295
3038,591	2	-0,728
3040,637	1,5	-1,021
3042,659	1	-1,474
3044,687	0	-1,86
3046,715	-1	-2,284
3048,755	-3	-2,678
3050,782	-7	-3,095
3052,81	-7,5	-3,497
3054,844	-7,5	-3,499
3056,866	-7,5	-3,495
3058,894	-8	-3,477
3060,928	-6,5	-3,408
3062,95	-4	-3,107
3064,971	-2	-2,604
3066,999	-1	-2,132
3069,028	-0,5	-1,683
3071,055	0	-1,173
3073,089	2	-0,672
3075,117	4,5	-0,18
3077,139	5	-0,001
3079,167	5	-0,005
3081,207	5	-0,018
3083,228	4	-0,083
3085,256	2,5	-0,32
3087,29	2	-0,824
3089,312	1	-1,304
3091,34	0	-1,75
3093,374	-0,5	-2,181
3095,402	-3	-2,717
3097,43	-6	-3,126
3099,47	-7,5	-3,5
3101,498	-7,5	-3,498
3103,525	-7,5	-3,495
3105,553	-7,5	-3,48
3107,587	-7	-3,432
3109,615	-4	-3,181
3111,643	-3	-2,784
3113,689	-1,5	-2,429
3115,711	0	-1,832
3117,751	0	-1,43
3119,827	0	-1,21
3121,848	1,5	-0,74
3123,876	4,5	-0,331
3125,91	5	0
3127,938	5	-0,002
3129,966	5	-0,01
3131,994	4,5	-0,054
3134,022	3,5	-0,232
3136,049	2	-0,721
3138,096	1,5	-1,07
3140,123	1	-1,538
3142,151	0	-2,018
3144,173	-1,5	-2,51
3146,207	-4,5	-2,936
3148,235	-7,5	-3,389
3150,263	-7,5	-3,499
3152,296	-7,5	-3,495
3154,343	-7,5	-3,485
3156,37	-6,5	-3,438
3158,416	-4	-3,265
3160,444	-3	-2,864
3162,472	-1	-2,372
3164,506	-0,5	-2,025
3166,534	0	-1,575
3168,556	0,5	-1,026
3170,601	2	-0,649
3172,581	4,5	-0,001