File: ensaios_Ciclicos/_30perc/_1gap/entrada/_5.txt
Time (s)	Load (N)	Displacement (mm)
88,493	-6	-1,946
88,95	-22	-3,482
89,381	-15	-2,508
89,855	2	-0,217
90,275	3,5	-0,16
90,707	-9	-2,326
91,121	-22	-3,493
91,529	-14	-2,412
91,943	1	-0,343
92,363	3,5	-0,115
92,771	-7	-2,072
93,227	-22	-3,491
93,629	-13	-2,443
94,037	1	-0,408
94,451	3,5	0
94,901	-7,5	-2,18
95,321	-22	-3,492
95,783	-11	-2,104
96,233	3	-0,081
96,617	3	-0,328
97,055	-10	-2,465
97,469	-22	-3,494
97,866	-12	-2,22
98,279	1,5	-0,221
98,669	3,5	-0,009
99,065	-6	-2,01
99,485	-21,5	-3,482
99,905	-14,5	-2,424
100,343	1,5	-0,184
100,786	3,5	-0,322
101,237	-10,5	-2,518
101,65	-22	-3,495
102,088	-10	-2,064
102,521	3,5	-0,086
102,928	3	-0,387
103,348	-9,5	-2,482
103,756	-22	-3,496
104,213	-9	-2,014
104,687	3,5	-0,038
105,113	-0,5	-0,813
105,533	-14	-2,908
105,952	-21,5	-3,499
106,366	-6	-1,585
106,799	3,5	-0,026
107,218	-0,5	-0,886
107,65	-15	-3,046
108,058	-21,5	-3,499
108,521	-4	-1,362
108,934	3,5	-0,013
109,354	-2	-1,072
109,75	-15	-3,186
110,236	-21,5	-3,354
110,68	-2	-1,125
111,064	3,5	-0,01
111,49	-3	-1,22
111,946	-19	-3,383
112,366	-21,5	-3,22
112,744	-3,5	-1,327
113,122	4	-0,02
113,56	-1	-0,952
113,968	-14,5	-3,052
114,358	-21,5	-3,499
114,76	-7,5	-1,854
115,174	3,5	-0,059
115,57	2	-0,496
115,948	-9,5	-2,392
116,356	-21,5	-3,493
116,752	-11,5	-2,345
117,153	1,5	-0,335
117,574	4	-0,005
118,018	-8,5	-2,357
118,468	-21,5	-3,494
118,918	-9	-2,026
119,356	3,5	-0,071
119,817	0	-0,753
120,255	-13,5	-2,943
120,675	-21,5	-3,499
121,137	-4,5	-1,495
121,521	4	-0,031
121,977	-2	-1,256
122,415	-16	-3,205
122,859	-21,5	-3,389
123,304	-2	-1,154
123,705	4	-0,009
124,113	-2	-1,238
124,575	-18,5	-3,367
125,013	-19,5	-2,9
125,463	0	-0,795
125,859	4	-0,002
126,309	-5	-1,759
126,765	-21	-3,476
127,167	-15,5	-2,696
127,545	-0,5	-0,801
127,989	4	-0,001
128,373	-4,5	-1,624
128,763	-19	-3,423
129,165	-21	-3,208
129,591	-1	-1,076
130,071	4	-0,002
130,461	-4	-1,659
411,575	-2	-1,49
411,959	-14,5	-3,342
412,319	-18	-3,5
412,691	-3	-1,694
413,069	4	-0,065
413,441	4	-0,324
413,812	-5	-2,181
414,184	-17,5	-3,478
414,544	-14,5	-2,877
414,916	0	-1,011
415,276	4,5	-0,011
415,666	-0,5	-1,035
416,038	-10	-2,9
416,428	-18	-3,498
416,788	-7,5	-2,167
417,16	2	-0,302
417,52	4,5	-0,001
417,91	-3	-1,669
418,312	-16,5	-3,446
418,708	-17,5	-3,115
419,092	-0,5	-1,194
419,476	4,5	-0,013
419,878	-0,5	-1,052
420,256	-10,5	-2,937
420,646	-18	-3,498
421,018	-6	-2,08
421,378	2,5	-0,281
421,78	4,5	0
422,158	-3	-1,866
422,53	-17	-3,442
422,92	-16,5	-3,07
423,298	-0,5	-1,179
423,682	4,5	-0,012
424,072	0	-0,932
424,444	-9	-2,792
424,828	-18	-3,497
425,188	-9	-2,32
425,584	2	-0,34
425,974	4,5	-0,001
426,346	-3	-1,77
426,736	-16,5	-3,441
427,156	-14,5	-2,912
427,546	0	-0,962
427,906	4,5	-0,009
428,266	-0,5	-0,967
428,67	-9,5	-2,921
429,052	-18	-3,498
429,436	-5,5	-2,034
429,814	3	-0,17
430,204	4	-0,079
430,593	-4,5	-2,046
430,965	-17,5	-3,466
431,337	-16	-3,008
431,716	0	-1,118
432,087	4	-0,012
432,448	0,5	-0,806
432,831	-8,5	-2,726
433,191	-18	-3,495
433,563	-9,5	-2,41
433,929	1,5	-0,58
434,302	4,5	-0,002
434,703	-2,5	-1,585
435,105	-15	-3,413
435,465	-18	-3,445
435,849	-2	-1,5
436,227	4	-0,035
436,611	2	-0,578
436,971	-6	-2,378
437,38	-18	-3,493
437,751	-10	-2,512
438,123	1	-0,562
438,525	4,5	-0,002
438,915	-2,5	-1,625
439,281	-14,5	-3,365
439,653	-18	-3,482
440,013	-3	-1,659
440,409	4	-0,044
440,811	2	-0,599
441,172	-6	-2,399
441,573	-18	-3,492
441,963	-9,5	-2,393
442,323	1,5	-0,594
442,701	4,5	-0,002
443,091	-2,5	-1,595
443,463	-13,5	-3,365
443,835	-17,5	-3,438
444,213	-2	-1,526
444,597	4,5	-0,035
444,975	2,5	-0,563
445,353	-6	-2,453
445,743	-17,5	-3,493
446,103	-11,5	-2,614
446,475	1	-0,759
446,835	4,5	-0,004
447,225	-1	-1,244
447,591	-11,5	-3,134
447,963	-18	-3,499
448,334	-4,5	-1,922
448,731	3,5	-0,098
449,121	4,5	-0,351
524,938	-0,5	-1,016
525,328	-10	-2,966
525,688	-17,5	-3,498
526,078	-7	-2,203
526,468	3	-0,251
526,828	4,5	-0,001
527,206	-2,5	-1,695
527,566	-15	-3,381
527,956	-17,5	-3,388
528,316	-2,5	-1,576
528,706	4,5	-0,037
529,066	3,5	-0,351
529,456	-5	-2,298
529,816	-17,5	-3,482
530,206	-11,5	-2,717
530,566	0,5	-0,922
530,938	4	-0,007
531,316	0	-1,066
531,724	-11,5	-3,105
532,096	-17,5	-3,499
532,456	-5	-1,95
532,846	3,5	-0,117
533,206	4,5	-0,002
533,578	-3	-1,864
533,938	-15,5	-3,429
534,808	0,5	-0,844
535,179	4	-0,005
535,558	-1	-1,163
535,941	-11,5	-3,083
536,314	-17	-3,499
536,686	-4	-1,939
537,063	3,5	-0,137
537,435	4	-0,06
537,796	-3	-1,88
538,179	-16,5	-3,454
538,539	-17	-3,187
538,912	-1	-1,324
539,271	4	-0,027
539,649	2	-0,581
540,009	-5,5	-2,381
540,369	-17	-3,486
540,759	-12	-2,729
541,143	1	-0,808
541,503	4,5	-0,006
541,863	-0,5	-1,051
542,253	-10	-3,01
542,637	-17	-3,498
542,997	-6	-2,118
543,387	3	-0,198
543,759	4	-0,001
544,131	-2,5	-1,762
544,497	-15	-3,412
544,888	-17	-3,242
545,259	-1	-1,373
545,649	4,5	-0,02
546,022	0,5	-0,706
546,381	-6	-2,502
546,771	-17,5	-3,493
547,149	-9	-2,459
547,521	1,5	-0,599
547,881	4	-0,003
548,271	-1,5	-1,387
548,631	-12	-3,187
549,003	-17	-3,499
549,363	-4	-1,938
549,747	3,5	-0,124
550,107	4	-0,025
550,467	-3	-1,856
550,857	-16,5	-3,454
551,217	-17	-3,177
551,589	-1	-1,371
551,949	4,5	-0,031
552,333	1,5	-0,64
552,693	-5,5	-2,44
553,058	-17	-3,489
553,449	-10	-2,55
553,808	1	-0,754
554,169	4,5	-0,005
554,54	-1	-1,111
554,9	-10	-2,916
555,278	-17,5	-3,498
555,657	-5	-2,045
556,028	2,5	-0,248
556,418	4	-0,003
556,778	-3	-1,81
557,156	-15,5	-3,437
557,516	-17,5	-3,289
557,876	-1,5	-1,359
558,273	4,5	-0,024
558,662	0,5	-0,693
559,022	-7	-2,494
559,388	-17,5	-3,49
559,754	-11	-2,615
560,144	1	-0,67
560,522	4,5	-0,003
560,894	-1,5	-1,343
561,266	-12,5	-3,202
561,638	-17,5	-3,499
561,999	-4,5	-1,895
562,37	3,5	-0,129
600,462	4,5	-0,019
600,822	1,5	-0,621
601,194	-5,5	-2,481
601,554	-17	-3,49
601,926	-11,5	-2,766
602,286	0	-0,966
602,652	4,5	-0,008
603,012	0	-0,868
603,372	-7,5	-2,724
603,756	-17	-3,496
604,146	-7	-2,299
604,506	1,5	-0,494
604,884	4,5	-0,002
605,244	-1,5	-1,379
605,616	-11,5	-3,236
605,976	-17	-3,499
606,353	-4	-1,854
606,713	3	-0,138
607,103	4	-0,15
607,463	-3,5	-1,958
607,836	-16	-3,456
608,195	-16,5	-3,173
608,555	-1	-1,372
608,939	4,5	-0,021
609,311	2,5	-0,688
609,683	-7	-2,548
610,043	-17	-3,491
610,415	-9	-2,481
610,775	1	-0,681
611,165	4,5	-0,002
611,525	-1	-1,333
611,897	-12	-3,193
612,275	-17	-3,499
612,647	-3	-1,843
613,007	3,5	-0,134
613,391	4,5	-0,109
613,751	-3	-1,925
614,111	-15,5	-3,441
614,513	-15	-3,044
614,885	0	-1,179
615,245	4,5	-0,017
615,629	0,5	-0,794
615,989	-6,5	-2,594
616,361	-17	-3,493
616,755	-7,5	-2,351
617,129	1,5	-0,496
617,489	4,5	-0,002
617,873	-1,5	-1,456
618,233	-12	-3,253
618,593	-17	-3,499
618,977	-3	-1,852
619,349	3,5	-0,113
619,709	4,5	-0,012
620,081	-3	-1,949
620,453	-15,5	-3,446
620,813	-16,5	-3,237
621,197	-0,5	-1,315
621,557	4,5	-0,026
621,941	1	-0,684
622,319	-7	-2,574
622,691	-17	-3,493
623,062	-9	-2,496
623,44	1,5	-0,606
623,801	4,5	-0,002
624,172	-1	-1,274
624,532	-10,5	-3,074
624,917	-16,5	-3,499
625,276	-4	-1,979
625,654	3	-0,155
626,026	4,5	-0,032
626,422	-4	-2,036
626,782	-16	-3,459
627,154	-15	-3,026
627,532	0	-1,135
627,91	4,5	-0,011
628,282	0	-0,846
628,654	-7,5	-2,706
629,062	-16,5	-3,498
629,44	-6	-2,117
629,812	2,5	-0,262
630,172	4,5	-0,001
630,532	-1,5	-1,581
630,922	-15	-3,394
631,294	-17	-3,411
631,672	-2	-1,494
632,032	4	-0,046
632,404	3,5	-0,45
632,794	-5	-2,4
633,166	-17	-3,489
633,526	-11,5	-2,745
633,91	0,5	-0,825
634,282	4,5	-0,005
634,642	-0,5	-1,077
635,512	-16,5	-3,31
635,872	-1,5	-1,503
636,256	4,5	-0,032
636,616	3	-0,446
636,976	-5	-2,301
637,36	-17	-3,485
637,75	-10,5	-2,642
638,11	0,5	-0,842
638,494	4,5	-0,004
638,854	-0,5	-1,153
639,214	-9,5	-2,953
639,598	-17	-3,498
639,988	-4	-1,94
640,366	3,5	-0,138
640,737	4	-0,009
641,097	-3	-1,826
641,487	-15,5	-3,45
641,859	-15	-3,129
642,25	0	-1,178
642,621	4,5	-0,012
643,005	0	-0,891
643,365	-7,5	-2,687
643,749	-17	-3,496
644,11	-8	-2,394
644,481	1,5	-0,539
644,859	4	-0,002
645,231	-1,5	-1,432
645,591	-12	-3,225
645,981	-17	-3,5
646,341	-3	-1,824
646,714	3,5	-0,106
647,073	4	-0,121
647,463	-4	-2,081
647,823	-15,5	-3,464
648,183	-15	-3,084
648,567	0	-1,163
648,927	4,5	-0,016
649,299	0,5	-0,734
649,665	-6,5	-2,564
650,049	-16,5	-3,494
650,421	-7,5	-2,409
650,782	1,5	-0,604
651,141	4,5	-0,003
651,531	-1,5	-1,389
651,897	-12,5	-3,318
652,281	-17	-3,499
652,641	-3	-1,851
653,013	3,5	-0,114
653,373	4,5	-0,003
653,763	-3,5	-1,964
654,123	-15,5	-3,448
654,483	-16	-3,175
654,873	-0,5	-1,223
655,233	4,5	-0,016
655,605	1,5	-0,668
655,977	-6,5	-2,528
656,367	-16,5	-3,494
656,727	-9,5	-2,558
657,099	1,5	-0,638
657,471	4,5	-0,003
657,843	-1	-1,209
658,209	-10	-3,039
658,58	-17	-3,498
658,946	-5	-2,066
659,33	3	-0,185
659,691	4	-0,001
660,062	-2,5	-1,731
660,441	-15	-3,419
660,813	-16,5	-3,336
661,172	-1,5	-1,526
661,55	4	-0,038
661,928	3	-0,506
662,3	-5,5	-2,367
662,678	-16,5	-3,489
663,05	-11	-2,7
663,41	0	-0,9
663,788	4	-0,006
664,166	-0,5	-1,107
664,526	-9,5	-2,907
664,898	-16,5	-3,498
665,27	-6	-2,124
665,643	2	-0,314
666,002	4	-0,001
666,368	-2	-1,521
666,728	-13	-3,295
667,1	-17	-3,499
667,46	-3	-1,807
667,833	3,5	-0,1
668,204	4	-0,103
668,564	-3,5	-1,916
668,954	-16,5	-3,462
669,314	-15	-3,1
669,692	-0,5	-1,208
670,052	4	-0,018
670,424	1	-0,663
670,802	-6,5	-2,553
671,174	-17	-3,493
671,534	-9,5	-2,637
671,924	1	-0,687
672,284	4,5	-0,004
672,644	-1	-1,156
673,034	-11,5	-3,106
673,406	-17	-3,499
673,766	-4,5	-2,023
674,126	2,5	-0,236
674,51	4	0
674,882	-2,5	-1,782
749,799	-3,5	-1,876
750,171	3	-0,125
750,531	4	0
750,891	-2,5	-1,768
751,263	-14,5	-3,421
751,635	-16,5	-3,332
752,001	-1,5	-1,494
752,361	4	-0,045
752,721	4	-0,358
753,111	-5	-2,309
753,471	-16	-3,483
753,843	-14	-2,927
754,216	0	-1,067
754,587	4,5	-0,01
754,947	0,5	-0,836
755,319	-6,5	-2,696
755,698	-16,5	-3,496
756,057	-8	-2,415
756,424	1,5	-0,585
756,783	4,5	-0,003
757,173	-1,5	-1,391
757,533	-11	-3,186
757,929	-16	-3,499
758,289	-3	-1,862
758,673	3,5	-0,098
759,033	4,5	-0,264
759,417	-3,5	-2,052
759,777	-15,5	-3,461
760,149	-15,5	-3,115
760,521	-0,5	-1,254
760,893	4,5	-0,018
761,253	2	-0,636
761,625	-6	-2,557
761,997	-16,5	-3,492
762,357	-10,5	-2,655
762,723	0,5	-0,825
763,083	4,5	-0,006
763,467	0	-1,126
763,827	-8	-2,927
764,186	-16,5	-3,497
764,559	-6,5	-2,15
764,936	2	-0,35
765,309	4,5	-0,001
765,668	-1,5	-1,52
766,052	-13	-3,359
766,412	-16,5	-3,499
766,796	-2,5	-1,642
767,168	4	-0,06
767,546	4	-0,296
767,906	-3	-2,098
768,266	-15,5	-3,466
768,638	-15,5	-3,114
768,998	-0,5	-1,318
769,382	4,5	-0,018
769,742	2,5	-0,635
770,114	-5,5	-2,49
770,492	-16	-3,492
770,864	-9,5	-2,54
771,224	1	-0,739
771,596	4,5	-0,004
771,968	-0,5	-1,158
772,328	-9	-3,018
772,724	-16,5	-3,499
773,084	-5	-2,014
773,462	3	-0,173
773,822	4,5	-0,001
774,182	-2	-1,659
774,566	-14	-3,409
774,926	-16	-3,479
775,298	-2	-1,593
775,67	4	-0,051
776,042	4	-0,367
776,402	-3,5	-2,168
776,762	-15,5	-3,472
777,152	-13,5	-2,935
777,512	0	-1,134
777,884	4,5	-0,012
778,244	1	-0,788
778,634	-7	-2,738
778,994	-16,5	-3,495
779,354	-8,5	-2,44
779,75	1,5	-0,461
780,14	4	-0,001
780,499	-1,5	-1,547
780,86	-12	-3,308
781,267	-16	-3,498
781,628	-3	-1,693
781,999	4	-0,07
782,359	4	-0,233
782,743	-3,5	-2,156
783,115	-16	-3,476
783,505	-14,5	-3,022
783,883	-0,5	-1,132
784,273	4,5	-0,01
784,633	0,5	-0,818
785,017	-7	-2,738
785,377	-16,5	-3,495
785,749	-8	-2,429
786,127	1,5	-0,544
786,487	4,5	-0,002
786,871	-1,5	-1,456
787,231	-11,5	-3,248
787,597	-16,5	-3,499
787,957	-4	-1,932
788,329	3	-0,147
788,707	4	-0,016
789,091	-3	-1,954
789,451	-15	-3,447
789,829	-16,5	-3,166
790,201	-1,5	-1,365
790,579	4	-0,023
790,968	1,5	-0,663
791,335	-5,5	-2,493
791,707	-16,5	-3,491
792,067	-10,5	-2,699
792,457	1	-0,744
792,817	4,5	-0,005
793,177	-0,5	-1,098
793,561	-9	-3,017
793,927	-16,5	-3,498
794,299	-5,5	-2,13
794,659	2	-0,33
795,031	4,5	-0,001
795,409	-2	-1,662
795,781	-13,5	-3,39
796,141	-16	-3,5
796,513	-2,5	-1,688
796,891	4	-0,063
797,251	4,5	-0,218
797,641	-3,5	-2,172
798,013	-15,5	-3,482
798,402	-13,5	-2,883
798,763	0	-1,082
799,152	4,5	-0,008
799,512	0	-0,857
799,878	-6,5	-2,688
800,256	-16	-3,496
800,629	-9	-2,338
801,024	2	-0,358
801,396	4,5	-0,001
801,768	-1,5	-1,616
802,158	-14	-3,404
802,518	-16	-3,475
802,878	-2,5	-1,65
803,25	4	-0,061
803,61	4	-0,304
803,982	-3,5	-2,165
804,348	-15,5	-3,475
804,75	-11	-2,754
805,128	0,5	-0,864
805,512	4	-0,004
805,89	-1	-1,227
806,262	-9,5	-3,092
806,622	-16	-3,498
806,982	-6	-2,119
807,354	2,5	-0,264
807,72	4	-0,001
808,104	-2	-1,705
808,464	-13	-3,385
808,824	-16	-3,489
809,196	-2	-1,608
809,556	4	-0,065
809,94	4,5	-0,336
810,3	-3,5	-2,138
810,702	-16	-3,484
811,068	-11	-2,764
811,428	0	-0,964
811,788	4,5	-0,009
812,16	0	-0,948
812,538	-7,5	-2,838
812,934	-16	-3,498
813,294	-5,5	-2,139
813,666	2,5	-0,285
814,038	4,5	-0,001
814,41	-2	-1,667
814,77	-13	-3,37
815,154	-16	-3,474
815,531	-1,5	-1,556
815,922	4	-0,034
816,293	3,5	-0,49
816,666	-5	-2,351
817,025	-16	-3,485
817,41	-11	-2,752
817,769	0	-0,952
818,13	4,5	-0,009
818,507	0	-0,938
818,867	-7,5	-2,738
819,257	-16,5	-3,497
819,617	-6,5	-2,248
819,977	2	-0,444
820,349	4,5	-0,002
820,727	-1,5	-1,48
821,099	-12	-3,307
821,459	-16	-3,499
821,837	-2,5	-1,733
822,197	3,5	-0,094
822,557	4,5	-0,054
822,947	-3,5	-2,026
823,307	-15	-3,457
823,679	-15,5	-3,089
898,387	4,5	-0,004
898,748	-0,5	-1,17
899,137	-9,5	-3,12
899,527	-16	-3,499
899,887	-3,5	-1,942
900,247	3	-0,183
900,631	4	0
901,009	-2,5	-1,873
901,393	-15	-3,453
901,753	-15,5	-3,21
902,125	-0,5	-1,348
902,485	4	-0,029
902,856	3,5	-0,523
903,234	-4,5	-2,413
903,594	-15,5	-3,487
903,979	-9	-2,625
904,339	1	-0,82
904,728	4,5	-0,004
905,088	-0,5	-1,188
905,479	-10,5	-3,138
905,851	-15,5	-3,499
906,21	-4	-1,964
906,576	3	-0,178
906,948	4,5	0
907,338	-2,5	-1,886
907,716	-15	-3,45
908,088	-15	-3,156
908,478	0	-1,204
908,85	4,5	-0,015
909,21	1,5	-0,697
909,582	-5,5	-2,557
909,942	-15,5	-3,492
910,314	-9,5	-2,594
910,686	1	-0,734
911,064	4,5	-0,003
911,437	-0,5	-1,184
911,796	-8,5	-2,984
912,18	-15,5	-3,499
912,54	-4,5	-2,128
912,912	2,5	-0,272
913,302	4,5	0
913,674	-2	-1,741
914,052	-14	-3,422
914,412	-15,5	-3,4
914,784	-1,5	-1,525
915,162	4	-0,038
915,552	3,5	-0,514
915,912	-4,5	-2,314
916,272	-15,5	-3,483
916,644	-11	-2,789
917,004	0	-0,994
917,364	4,5	-0,01
917,748	0	-0,904
918,108	-6	-2,704
918,48	-16	-3,495
918,84	-7,5	-2,421
919,224	1,5	-0,501
919,584	4,5	-0,002
919,944	-1	-1,336
920,334	-11	-3,271
920,693	-15,5	-3,499
921,053	-3	-1,793
921,42	3,5	-0,105
921,78	4,5	-0,023
922,151	-2,5	-1,908
922,523	-15	-3,449
922,884	-15,5	-3,231
923,273	-0,5	-1,278
923,634	4	-0,023
924,011	2	-0,628
924,371	-5	-2,428
924,743	-15,5	-3,49
925,103	-10	-2,696
925,487	1	-0,776
925,853	4,5	-0,005
926,225	-0,5	-1,248
926,597	-9,5	-3,048
926,957	-15,5	-3,498
927,317	-4	-2,073
927,69	3	-0,228
928,049	4,5	-0,001
928,439	-2	-1,773
928,799	-14	-3,407
929,189	-15,5	-3,261
929,549	-1	-1,456
929,909	4	-0,041
930,281	3,5	-0,452
930,641	-4,5	-2,252
931,001	-15	-3,479
931,391	-12	-2,815
931,751	0	-1,015
932,123	4,5	-0,009
932,483	0	-0,967
932,843	-7	-2,767
933,215	-15,5	-3,496
933,593	-6,5	-2,316
933,953	1,5	-0,511
934,325	4,5	-0,002
934,685	-1	-1,423
935,045	-10,5	-3,221
935,417	-15,5	-3,499
935,777	-3	-1,873
936,137	3,5	-0,148
936,509	4,5	-0,042
936,869	-2,5	-1,864
937,265	-15	-3,46
937,625	-15	-3,151
937,997	0	-1,29
938,369	4,5	-0,02
938,74	1,5	-0,672
939,1	-5	-2,472
939,46	-15,5	-3,489
939,832	-10,5	-2,733
940,192	0	-0,932
940,571	4,5	-0,006
940,943	0	-1,065
941,302	-8	-2,865
941,662	-15,5	-3,497
942,034	-6	-2,238
942,394	1,5	-0,443
942,784	4,5	-0,001
943,144	-1,5	-1,585
943,504	-12	-3,332
943,87	-15,5	-3,499
944,254	-2,5	-1,729
944,626	3,5	-0,078
944,986	4,5	-0,217
945,376	-4	-2,171
945,736	-15	-3,473
946,096	-13	-2,988
946,474	0	-1,097
946,834	4,5	-0,012
947,23	0	-0,909
947,602	-7,5	-2,769
947,962	-15,5	-3,496
948,334	-8	-2,37
948,706	1,5	-0,569
949,066	4,5	-0,003
949,426	-1	-1,299
949,798	-10,5	-3,159
950,158	-15,5	-3,499
950,542	-3	-1,896
950,902	3,5	-0,156
951,292	4	-0,054
951,652	-2,5	-1,876
952,018	-15	-3,438
952,39	-15,5	-3,272
952,762	-0,5	-1,407
953,152	4,5	-0,022
953,524	2	-0,576
953,908	-5	-2,496
954,268	-15,5	-3,49
954,628	-10,5	-2,721
954,988	0,5	-0,861
955,378	4,5	-0,005
955,749	0	-1,073
956,109	-7,5	-2,878
956,482	-16	-3,497
956,854	-6	-2,229
957,213	1,5	-0,428
957,603	4,5	-0,001
957,963	-1,5	-1,596
958,323	-12	-3,338
958,695	-15	-3,5
959,055	-2	-1,767
959,415	3,5	-0,106
959,805	4,5	-0,216
960,166	-3	-2,02
960,525	-15	-3,457
960,915	-13,5	-3,036
961,275	0	-1,236
961,647	4,5	-0,017
962,007	1,5	-0,767
962,397	-6	-2,632
962,769	-15	-3,494
963,129	-8,5	-2,503
963,501	1,5	-0,643
963,861	4,5	-0,004
964,239	-0,5	-1,262
964,599	-9,5	-3,062
964,959	-15,5	-3,498
965,331	-5	-2,132
965,703	2,5	-0,275
966,075	4,5	-0,001
966,447	-1,5	-1,664
966,819	-13,5	-3,389
967,179	-15,5	-3,498
967,539	-2	-1,693
967,911	4	-0,07
968,289	4,5	-0,244
968,649	-3	-2,047
969,021	-15	-3,467
969,381	-14	-3,079
969,753	0	-1,218
970,113	4,5	-0,019
970,491	2,5	-0,704
970,857	-5,5	-2,533
971,217	-15,5	-3,491
971,595	-9	-2,581
971,967	1	-0,781
972,327	4,5	-0,005
972,711	-0,5	-1,166
973,071	-8,5	-2,971
973,454	-15,5	-3,498
973,833	-4,5	-2,003
974,204	3	-0,184
974,565	4,5	0
974,924	-2	-1,719
975,285	-13	-3,391
975,656	-15	-3,45
976,034	-1	-1,532
976,4	4	-0,046
976,778	3,5	-0,436
977,168	-4,5	-2,387
977,528	-15	-3,486
977,888	-11,5	-2,814
978,266	0,5	-0,924
978,626	4,5	-0,008
978,998	0	-1,015
979,358	-7,5	-2,815
979,718	-15	-3,496
980,09	-6	-2,298
980,45	1,5	-0,499
980,81	4,5	-0,002
981,182	-1	-1,435
981,542	-11	-3,232
981,92	-15,5	-3,499
982,286	-3	-1,84
982,658	3,5	-0,11
983,018	4,5	-0,104
983,39	-2,5	-1,916
983,75	-14,5	-3,44
984,128	-15	-3,196
984,488	-0,5	-1,394
984,848	4	-0,033
985,22	2,5	-0,54
985,592	-4,5	-2,401
985,964	-15,5	-3,489
986,324	-10	-2,703
986,684	0	-0,903
987,056	4,5	-0,006
987,428	0	-1,027
987,788	-7,5	-2,827
988,166	-15,5	-3,497
988,526	-6	-2,283
988,898	2	-0,423
989,258	4,5	-0,002
989,618	-1,5	-1,452
990,008	-12	-3,343
990,367	-15	-3,5
990,734	-2	-1,744
991,106	3,5	-0,082
991,484	4,5	-0,268
991,855	-3,5	-2,13
992,215	-15	-3,469
992,575	-14	-3,072
992,959	0	-1,152
993,32	4,5	-0,015
993,691	1	-0,763
994,057	-6	-2,593
994,417	-15,5	-3,492
994,801	-7,5	-2,488
995,167	1,5	-0,598
995,539	4,5	-0,003
995,899	-1	-1,248
996,271	-9,5	-3,198
996,649	-15,5	-3,499
997,009	-4	-1,98
997,381	3	-0,171
997,753	4,5	0
998,125	-2,5	-1,836
998,503	-15	-3,443
998,905	-14	-3,049
999,283	0	-1,163
999,655	4,5	-0,013
1000,015	0,5	-0,727
1000,375	-5,5	-2,528
1000,747	-15,5	-3,492
1001,125	-8	-2,502
1001,509	1,5	-0,582
1001,869	4,5	-0,003
1002,229	-0,5	-1,272
1002,601	-10	-3,132
1002,961	-15,5	-3,498
1003,351	-4	-1,952
1003,711	3	-0,189
1004,071	4,5	-0,001
1004,443	-2	-1,714
1004,803	-13	-3,387
1005,163	-15,5	-3,488
1005,547	-1,5	-1,547
1005,907	4	-0,054
1006,267	4,5	-0,267
1006,633	-3,5	-2,1
1006,993	-15	-3,466
1007,365	-14	-3,052
1007,724	0	-1,251
1008,097	4,5	-0,018
1008,469	1,5	-0,722
1008,829	-5	-2,527
1193,324	3,5	-0,127
1193,696	4,5	-0,093
1194,068	-3	-1,974
1194,44	-15	-3,458
1194,8	-13,5	-3,141
1195,16	0	-1,339
1195,532	4,5	-0,023
1195,898	2	-0,603
1196,258	-4,5	-2,403
1196,666	-15	-3,494
1197,026	-7,5	-2,553
1197,416	1,5	-0,602
1197,776	4,5	-0,003
1198,136	-0,5	-1,277
1198,508	-10	-3,137
1198,868	-15	-3,499
1199,234	-3,5	-1,996
1199,6	3,5	-0,197
1199,96	4,5	-0,001
1200,32	-2	-1,692
1200,692	-13,5	-3,402
1201,052	-15	-3,432
1201,412	-1	-1,607
1201,771	4	-0,063
1202,155	4	-0,386
1202,515	-3	-2,187
1202,899	-15	-3,482
1203,271	-10,5	-2,833
1203,643	0,5	-0,968
1204,004	4,5	-0,009
1204,363	0	-0,98
1204,753	-7	-2,84
1205,113	-15	-3,496
1205,473	-6	-2,371
1205,845	1,5	-0,516
1206,205	4,5	-0,002
1206,565	-1	-1,363
1206,955	-11	-3,292
1207,315	-15	-3,499
1207,675	-3	-1,893
1208,059	3,5	-0,108
1208,431	4,5	-0,148
1208,803	-3	-2,021
1209,163	-15	-3,456
1209,523	-13,5	-3,122
1209,901	0	-1,23
1210,261	4,5	-0,02
1210,621	1	-0,67
1210,999	-5,5	-2,56
1211,359	-15	-3,492
1211,731	-8	-2,565
1212,091	1	-0,765
1212,451	4,5	-0,005
1212,811	0	-1,066
1213,183	-8,5	-2,926
1213,555	-15	-3,498
1213,927	-4,5	-2,159
1214,287	2,5	-0,359
1214,659	4,5	-0,001
1215,031	-1,5	-1,635
1215,391	-12	-3,357
1215,781	-15	-3,444
1216,141	-1	-1,616
1216,501	4	-0,066
1216,879	3,5	-0,352
1217,251	-3,5	-2,213
1217,611	-15	-3,476
1217,983	-11	-2,896
1218,343	0	-1,096
1218,702	4,5	-0,013
1219,074	0	-0,918
1219,434	-6,5	-2,718
1219,794	-15	-3,495
1220,178	-6	-2,368
1220,539	1,5	-0,568
1220,898	4,5	-0,003
1221,27	-1	-1,335
1221,63	-9,5	-3,135
1221,99	-15	-3,499
1222,362	-3	-1,99
1222,723	3	-0,212
1223,1	4	-0,002
1223,472	-2	-1,866
1223,833	-14	-3,43
1224,204	-15	-3,279
1224,576	-0,5	-1,414
1224,936	4	-0,036
1225,326	1,5	-0,593
1225,686	-4,5	-2,393
1226,046	-15	-3,486
1226,418	-9	-2,727
1226,796	1	-0,837
1227,156	4,5	-0,006
1227,528	0	-1,092
1227,888	-7,5	-2,982
1228,266	-15	-3,498
1228,639	-4	-2,168
1229,01	2,5	-0,308
1229,37	4,5	-0,001
1229,742	-1,5	-1,678
1230,12	-13,5	-3,405
1230,492	-15	-3,333
1230,864	-0,5	-1,464
1231,254	4,5	-0,026
1231,614	3,5	-0,522
1231,974	-3,5	-2,322
1232,346	-15	-3,486
1232,706	-11,5	-2,866
1233,096	0	-0,916
1233,456	4,5	-0,008
1233,816	0	-0,952
1234,194	-6,5	-2,842
1234,572	-15	-3,497
1234,944	-5	-2,16
1235,304	2	-0,36
1235,664	4,5	-0,001
1236,023	-1,5	-1,493
1236,408	-11,5	-3,346
1236,78	-15	-3,497
1237,151	-1,5	-1,63
1237,527	4	-0,052
1237,902	4	-0,393
1238,28	-4	-2,284
1238,64	-15	-3,481
1239,011	-11	-2,798
1239,371	0	-0,993
1239,767	4,5	-0,006
1240,127	0	-1,056
1240,487	-7	-2,856
1240,847	-15	-3,497
1241,237	-5	-2,178
1241,597	2	-0,378
1241,987	4,5	-0,001
1242,347	-1,5	-1,687
1242,707	-12	-3,378
1243,079	-15	-3,455
1243,439	-1,5	-1,627
1243,811	4	-0,057
1244,183	4	-0,35
1244,543	-3	-2,151
1244,903	-15	-3,471
1245,275	-14,5	-2,995
1245,647	0	-1,134
1246,008	4	-0,015
1246,379	0	-0,81
1246,739	-5,5	-2,61
1247,099	-15	-3,493
1247,483	-7	-2,439
1247,843	1,5	-0,639
1248,215	4,5	-0,003
1248,575	-0,5	-1,285
1248,935	-8,5	-3,085
1249,307	-15	-3,499
1249,667	-4	-2,044
1250,027	2,5	-0,251
1250,387	4,5	-0,001
1250,753	-1,5	-1,628
1251,113	-11,5	-3,353
1251,473	-15	-3,5
1251,857	-1,5	-1,669
1252,229	3,5	-0,065
1252,601	4,5	-0,269
1252,961	-3	-2,072
1253,321	-14,5	-3,463
1253,681	-14,5	-3,075
1254,065	0	-1,199
1254,425	4,5	-0,018
1254,797	0,5	-0,746
1255,157	-5	-2,546
1255,535	-15	-3,493
1255,901	-8,5	-2,508
1256,26	1,5	-0,708
1256,65	4,5	-0,003
1257,01	-0,5	-1,306
1257,389	-9,5	-3,196
1257,76	-15	-3,499
1258,12	-3	-1,94
1258,492	3,5	-0,095
1258,882	4	-0,116
1259,242	-2,5	-1,928
1259,602	-14	-3,442
1259,968	-15	-3,23
1260,328	-1	-1,432
1260,688	4	-0,037
1261,06	3,5	-0,53
1261,432	-3,5	-2,33
1261,804	-15	-3,486
1262,164	-10,5	-2,784
1262,524	0	-0,984
1262,908	4,5	-0,006
1263,268	0	-1
1263,628	-6,5	-2,805
1264	-15	-3,497
1264,36	-6	-2,336
1264,732	1,5	-0,476
1265,104	4,5	-0,001
1265,464	-1	-1,522
1265,824	-10,5	-3,292
1266,196	-15	-3,5
1266,556	-2,5	-1,808
1266,916	3,5	-0,118
1267,288	4,5	-0,085
1267,666	-2,5	-1,99
1268,032	-14,5	-3,457
1268,392	-15	-3,155
1268,752	-0,5	-1,353
1269,118	4,5	-0,022
1269,49	3	-0,568
1269,85	-4	-2,373
1270,222	-15	-3,488
1270,594	-10,5	-2,724
1270,954	0,5	-0,924
1271,326	4,5	-0,006
1271,686	0	-1,026
1272,046	-6,5	-2,976
1272,436	-15	-3,498
1272,796	-5	-2,188
1273,162	2	-0,353
1273,522	4,5	-0,001
1273,893	-1	-1,566
1274,265	-11,5	-3,353
1274,625	-15	-3,5
1274,997	-1,5	-1,684
1275,369	4	-0,068
1275,729	4,5	-0,238
1276,089	-2,5	-2,041
1276,461	-14,5	-3,466
1276,833	-13,5	-3,019
1277,193	0	-1,158
1277,565	4,5	-0,016
1277,925	1,5	-0,699
1278,286	-5	-2,499
1278,657	-15	-3,492
1279,017	-8,5	-2,636
1279,389	1	-0,776
1279,761	4,5	-0,004
1280,121	0	-1,11
1280,481	-7,5	-2,911
1280,853	-15	-3,498
1281,213	-6	-2,247
1281,573	1,5	-0,447
1281,946	4,5	-0,001
1282,305	-1	-1,461
1282,665	-10	-3,253
1283,037	-15	-3,499
1283,397	-2,5	-1,868
1283,757	3	-0,145
1284,141	4,5	-0,054
1284,531	-2,5	-2,033
1284,903	-15	-3,465
1285,263	-14	-3,061
1285,641	0	-1,171
1286,013	4,5	-0,014
1286,373	1,5	-0,738
1286,763	-5,5	-2,687
1287,135	-15	-3,495
1287,495	-6,5	-2,448
1287,885	1,5	-0,499
1288,262	4,5	-0,002
1288,634	-1	-1,511
1288,994	-11	-3,288
1289,354	-15	-3,499
1289,726	-2,5	-1,804
1290,104	3,5	-0,09
1290,464	4,5	-0,122
1290,842	-2,5	-2,028
1291,232	-15	-3,473
1291,592	-14	-3,034
1291,964	0	-1,173
1292,324	4,5	-0,016
1292,696	1	-0,702
1293,068	-5	-2,562
1293,428	-15	-3,492
1293,788	-8,5	-2,574
1294,172	1	-0,655
1294,532	4,5	-0,004
1294,892	0	-1,232
1295,264	-8,5	-3,092
1295,636	-15	-3,498
1296,008	-4	-2,043
1296,369	2,5	-0,251
1296,746	4,5	0
1297,118	-2	-1,776
1297,478	-13	-3,406
1297,85	-15	-3,354
1298,222	-1	-1,484
1298,6	4	-0,033
1298,973	3,5	-0,534
1299,332	-3,5	-2,329
1299,692	-15	-3,483
1300,052	-12,5	-2,807
1300,436	1	-0,887
1300,796	4,5	-0,007
1301,18	0	-1,092
1301,558	-8	-2,987
1301,918	-15	-3,498
1302,29	-4,5	-2,133
1302,65	2	-0,333
1303,01	4,5	-0,001
1303,382	-1	-1,558
1303,742	-11	-3,317
1304,102	-15	-3,499
1304,492	-2	-1,682
1304,852	3,5	-0,082
1305,218	4,5	-0,191
1305,578	-2,5	-1,997
1305,938	-14,5	-3,453
1306,31	-14,5	-3,129
1306,67	-0,5	-1,328
1307,042	4,5	-0,022
1307,413	2	-0,607
1307,774	-4,5	-2,407
1308,134	-15	-3,487
1308,493	-10	-2,718
1308,865	0,5	-0,918
1309,243	4,5	-0,006
1309,621	0	-1,12
1309,981	-7,5	-2,92
1310,342	-15	-3,497
1310,713	-4,5	-2,182
1311,079	2	-0,348
1311,439	4,5	-0,001
1311,835	-1,5	-1,611
1312,195	-12	-3,345
1312,567	-15	-3,498
1312,933	-1,5	-1,658
1313,293	4	-0,076
1313,665	4	-0,237
1314,043	-3	-2,13
1314,415	-15	-3,474
1314,775	-13	-3,018
1315,135	0	-1,128
1315,525	4,5	-0,012
1315,885	1,5	-0,732
1316,245	-4,5	-2,527
1316,617	-15	-3,492
1316,989	-8,5	-2,547
1317,349	1	-0,742
1317,727	4,5	-0,004
1318,087	0	-1,152
1318,447	-7,5	-3,017
1318,837	-15	-3,498
1319,197	-4	-2,082
1319,563	2,5	-0,258
1319,923	4	-0,001
1320,283	-1	-1,616
1320,643	-11,5	-3,35
1321,015	-15	-3,5
1321,393	-1	-1,627
1321,777	4	-0,047
1322,155	4	-0,39
1322,527	-3	-2,251
1322,886	-15	-3,479
1323,246	-12,5	-2,949
1323,631	0	-1,028
1323,991	4,5	-0,011
1324,351	1	-0,786
1324,717	-5,5	-2,621
1325,076	-15	-3,493
1325,448	-8	-2,54
1325,82	1,5	-0,675
1326,18	4,5	-0,004
1326,557	0	-1,203
1326,931	-8	-3,058
1327,29	-15	-3,498
1327,657	-4,5	-2,107
1328,028	2	-0,262
1328,388	4,5	-0,001
1328,772	-1,5	-1,62
1329,132	-12	-3,35
1329,492	-15	-3,5
1329,882	-1,5	-1,593
1330,242	4	-0,061
1330,602	4	-0,25
1330,974	-3	-2,114
1331,346	-15	-3,472
1331,706	-13	-2,973
1332,078	0	-1,113
1332,45	4	-0,012
1332,81	1	-0,783
1333,182	-5,5	-2,643
1333,542	-15	-3,494
1333,932	-5,5	-2,344
1334,292	1,5	-0,544
1334,653	4,5	-0,002
1335,024	-0,5	-1,4
1335,402	-9,5	-3,274
1335,762	-15	-3,499
1336,134	-2,5	-1,828
1336,494	3,5	-0,128
1336,854	4,5	0
1337,226	-2	-1,815
1337,586	-13	-3,418
1337,946	-15	-3,37
1338,318	-1	-1,498
1338,678	4	-0,046
1339,038	4	-0,374
1339,398	-3	-2,175
1339,77	-15	-3,477
1340,13	-13	-2,966
3123,96	4,5	0
3124,32	-0,5	-1,791
3124,68	-9	-3,412
3125,052	-10	-3,246
3125,436	0	-1,323
3125,795	4	-0,027
3126,168	1,5	-0,67
3126,527	-2,5	-2,47
3126,887	-10	-3,489
3127,247	-4,5	-2,64
3127,607	1	-0,84
3127,98	4,5	-0,006
3128,339	0	-1,136
3128,7	-5	-2,936
3129,059	-10	-3,497
3129,431	-1,5	-2,114
3129,791	2,5	-0,315
3130,151	4	-0,001
3130,512	-0,5	-1,565
3130,877	-7,5	-3,335
3131,237	-10	-3,497
3131,597	0	-1,688
3131,957	4	-0,083
3132,317	4,5	-0,221
3132,683	-1,5	-2,005
3133,043	-9,5	-3,454
3133,403	-8	-3,08
3133,763	0,5	-1,279
3134,129	4	-0,021
3134,489	2	-0,635
3134,849	-2,5	-2,435
3135,209	-10	-3,488
3135,581	-4	-2,619
3135,941	1,5	-0,819
3136,301	4,5	-0,006
3136,661	0	-1,086
3137,039	-5	-2,975
3137,399	-10	-3,498
3137,759	-1,5	-2,155
3138,119	3	-0,355
3138,479	4,5	-0,001
3138,845	-0,5	-1,564
3139,205	-7	-3,318
3139,565	-9,5	-3,497
3139,925	0	-1,687
3140,297	4	-0,069
3140,657	4	-0,27
3141,017	-1,5	-2,068
3141,377	-9,5	-3,462
3141,749	-7,5	-2,961
3142,109	0,5	-1,16
3142,469	4,5	-0,016
3142,828	1	-0,739
3143,188	-3	-2,539
3143,561	-10	-3,492
3143,92	-3,5	-2,499
3144,281	1,5	-0,704
3144,641	4,5	-0,004
3145,012	0	-1,234
3145,373	-5	-3,034
3145,75	-10	-3,499
3146,11	-1	-1,975
3146,483	3	-0,167
3146,842	4,5	0
3147,202	-0,5	-1,769
3147,562	-8,5	-3,405
3147,922	-10	-3,263
3148,294	0	-1,459
3148,654	4	-0,041
3149,014	4	-0,371
3149,374	-1,5	-2,202
3149,74	-10	-3,475
3150,1	-6,5	-2,919
3150,46	1	-1,118
3150,82	4,5	-0,014
3151,192	0,5	-0,809
3151,552	-3	-2,609
3151,913	-10	-3,492
3152,272	-3	-2,416
3152,632	1,5	-0,616
3152,998	4,5	-0,003
3153,358	0	-1,321
3153,718	-6	-3,121
3154,078	-10	-3,498
3154,45	-1	-1,866
3154,81	3	-0,144
3155,146	4,5	-0,001