File: Cycling_tests/_30perc/_2gap/entrada/_2.txt
Time (s)	Load (N)	Displacement (mm)
0	0,5	-0,024
2,536	-15	-2,237
5,139	-29	-3,498
7,87	-7	-1,09
10,579	3,5	0
13,233	-16	-2,611
15,717	-27	-3,491
18,405	-9,5	-1,521
21,08	3,5	-0,002
23,75	-11	-2,25
26,906	-6,5	-1,193
29,636	3,5	-0,121
32,192	-11	-2,182
34,736	-25,5	-3,493
37,231	-16	-2,359
39,817	2,5	-0,088
42,397	2,5	-0,496
44,914	-12,5	-2,426
47,359	-24,5	-3,47
49,921	-20	-2,702
52,388	-2,5	-0,94
54,961	4	-0,001
57,39	-4,5	-1,321
60,342	-24,5	-3,497
62,784	-12	-2,052
65,304	2,5	-0,15
67,782	4	0
70,284	-6,5	-2,014
72,81	-24	-3,474
75,275	-24	-3,306
77,741	-8,5	-1,735
80,082	-0,5	-0,743
82,565	4,5	-0,006
85,013	0	-0,724
87,491	-12	-2,524
90,514	-9	-1,891
93,065	3,5	-0,072
95,422	4,5	-0,002
97,966	-4,5	-1,543
100,468	-21,5	-3,412
102,964	-23,5	-3,494
105,376	-11	-2,114
107,871	1,5	-0,301
110,253	4,5	-0,009
112,804	-3	-1,244
115,311	-17	-3,135
117,807	-23	-3,498
120,243	-14	-2,384
123,206	4,5	-0,037
125,661	-3,5	-1,401
128,09	-13,5	-2,791
130,551	-22,5	-3,493
132,956	-22,5	-3,187
135,338	-9	-1,978
137,864	3	-0,181
140,216	4,5	-0,01
142,519	4,5	-0,001
144,871	1,5	-0,611
147,301	-5,5	-1,926
149,605	-13	-2,74
152,053	-22	-3,484
154,501	-22	-3,125
157,359	4,5	-0,041
159,655	4,5	-0,003
162,018	3,5	-0,496
164,352	-3,5	-1,432
166,782	-13	-2,996
169,2	-22	-3,488
171,612	-22	-3,279
174,006	-9,5	-2,146
176,424	0	-0,806
178,775	4,5	-0,048
181,182	4,5	-0,001
183,521	0	-0,842
185,915	-6,5	-2,12
188,267	-16,5	-3,342
190,595	-21,5	-3,488
193,505	0	-0,842
195,85	4	-0,081
198,214	5	-0,002
200,584	1,5	-0,619
202,996	-6	-2,074
205,342	-15	-3,048
207,64	-21	-3,466
210,039	-21,5	-3,499
212,362	-15	-2,69
214,707	-3,5	-1,566
217,084	2	-0,414
219,315	4	-0,061
221,733	4,5	0
224,019	0,5	-0,78
226,377	-5	-2,016
228,68	-13	-2,887
231,026	-21	-3,476
233,45	-21,5	-3,5
235,814	-11	-2,334
238,106	-2	-1,373
240,464	3	-0,235
242,84	5	-0,006
245,186	5	-0,25
247,495	-1,5	-1,158
249,973	-12,5	-2,954
252,307	-20,5	-3,472
254,653	-21	-3,499
257,029	-13,5	-2,583
259,327	-4,5	-1,63
261,565	-0,5	-1,152
263,88	3	-0,234
266,724	-4	-1,71
269,004	-9	-2,486
271,296	-16	-3,264
273,63	-21	-3,49
275,976	-20,5	-3,491
278,352	-9	-2,239
280,475	-9	-2,225
282,671	-5	-1,816
284,867	-2,5	-1,473
287,117	0,5	-0,861
289,397	4	-0,119
291,713	5	-0,009
293,957	4,5	-0,002
296,194	4,5	-0,066
298,402	3	-0,492
300,682	-2,5	-1,228
302,89	-3	-1,604
305,11	-5,5	-2,032
307,858	-20,5	-3,499
310,204	-12	-2,548
312,454	-5,5	-1,963
314,739	-0,5	-1,158
317,031	2	-0,403
319,311	4,5	-0,032
321,568	5	-0,004
323,829	4,5	-0,048
326,043	3	-0,533
328,323	-2,5	-1,427
330,609	-6	-2,177
332,907	-12,5	-2,986
335,276	-20	-3,49
337,454	-20	-3,494
339,788	-20	-3,4
342,032	-13	-2,716
344,348	-4,5	-1,823
347,078	4,5	-0,002
349,364	4,5	-0,215
351,638	-1	-0,94
353,839	-3	-1,507
356,065	-4,5	-1,984
358,267	-7	-2,371
360,481	-10,5	-2,797
362,665	-13	-3,053
364,933	-18	-3,442
367,158	-19,5	-3,487
369,366	-20	-3,495
371,598	-19,5	-3,498
373,854	-19,5	-3,208
376,128	-12	-2,566
378,402	-4,5	-1,871
380,628	-1	-1,39
382,902	1,5	-0,605
385,14	4	-0,103
387,845	-1,5	-1,197
390,077	-3,5	-1,693
392,273	-5	-2,003
394,469	-7,5	-2,398
396,641	-8,5	-2,572
398,885	-13	-3,122
401,092	-17	-3,378
403,342	-19,5	-3,477
405,562	-19,5	-3,495
407,704	-19,5	-3,495
409,888	-19,5	-3,498
412,078	-19,5	-3,499
414,238	-19,5	-3,5
416,38	-19,5	-3,5
418,528	-19,5	-3,363
420,747	-14,5	-2,89
422,919	-13	-2,721
425,061	-13	-2,676
427,275	-8	-2,271
429,435	-6,5	-2,152
432,135	5	-0,014
434,409	5	-0,001
436,575	4,5	-0,001
438,806	4	-0,31
441,008	0,5	-0,701
443,162	0	-0,858
445,37	-2	-1,228
447,56	-2,5	-1,588
449,714	-3,5	-1,693
451,922	-5	-2,062
454,076	-5,5	-2,211
456,265	-9	-2,571
458,455	-10,5	-2,876
460,669	-15,5	-3,326
462,841	-18	-3,429
465,025	-19	-3,47
467,173	-19	-3,48
469,339	-19	-3,49
471,468	-19	-3,488
473,604	-19	-3,49
475,74	-19	-3,491
478,464	-2	-1,564
480,624	-1,5	-1,434
482,76	-1,5	-1,324
484,938	0	-1,045
487,068	0	-1,072
489,215	0	-0,991
491,405	2	-0,557
493,577	3	-0,294
495,743	3,5	-0,157
497,873	3,5	-0,16
500,069	4,5	-0,06
502,223	5	-0,043
504,365	5	-0,025
506,537	5	-0,013
508,666	5	-0,011
510,844	5	-0,005
512,998	5	-0,003
515,128	5	-0,003
517,247	5	-0,004
519,382	5	-0,003
521,482	5,5	-0,004
523,66	5	-0,002
525,802	5	-0,002
527,973	5	-0,001
530,103	5	-0,001
532,245	5	0
534,357	5	0
536,487	5	0
538,599	5	-0,001
540,764	5	-0,11
542,901	5	-0,154
545,06	4,5	-0,284
547,19	5	-0,312
549,302	5	-0,315
551,48	2	-0,636
553,64	0	-0,867
555,818	-1	-1,183
557,942	-1,5	-1,244
560,108	-2	-1,527
562,285	-3	-1,79
564,457	-3,5	-1,962
566,569	-3,5	-1,874
568,741	-4	-1,98
570,871	-4	-2,038
573,043	-5,5	-2,286
575,191	-5,5	-2,357
577,284	-5	-2,246
579,42	-5,5	-2,266
581,562	-5,5	-2,296
583,692	-6,5	-2,467
585,822	-6,5	-2,468
588,024	-9,5	-2,819
590,148	-9	-2,795
592,266	-9,5	-2,822
594,401	-10	-2,853
596,538	-10	-2,857
598,697	-10,5	-2,929
600,839	-12,5	-3,155
602,969	-13	-3,266
605,129	-15,5	-3,411
607,325	-18	-3,469
609,479	-18	-3,482
611,596	-18	-3,478
613,762	-18	-3,49
615,892	-18	-3,488
618,022	-18,5	-3,49
620,152	-18	-3,487
622,3	-18	-3,489
624,502	-18,5	-3,497
626,644	-18	-3,498
628,797	-18	-3,498
630,957	-18	-3,5
633,087	-18	-3,499
635,259	-18	-3,358
637,383	-18	-3,36
639,513	-18	-3,343
641,655	-18	-3,353
643,803	-17,5	-3,19
645,938	-17	-3,12
648,075	-15,5	-3,045
650,198	-16	-3,064
652,346	-15	-2,94
654,47	-15,5	-2,965
656,63	-13	-2,744
658,76	-11	-2,652
660,878	-12	-2,739
662,996	-13	-2,834
665,144	-13,5	-2,845
667,255	-14	-2,906
669,41	-14,5	-2,881
671,539	-13	-2,794
673,639	-15	-2,885
675,775	-12	-2,748
677,917	-10,5	-2,623
680,065	-11	-2,617
682,218	-9	-2,484
684,33	-9	-2,51
686,466	-9	-2,355
688,608	-8	-2,301
690,756	-5,5	-2,145
692,874	-6,5	-2,086
695,004	-5,5	-2,098
697,14	-4,5	-1,975
699,275	-3	-1,817
701,423	-2,5	-1,71
703,553	-2	-1,655
705,701	-1,5	-1,538
707,837	-1,5	-1,49
710,015	0	-1,174
712,151	0,5	-0,995
714,293	1,5	-0,715
716,44	1,5	-0,646
718,57	1,5	-0,624
720,712	2,5	-0,456
722,848	3	-0,288
725,002	4	-0,132
727,132	4	-0,121
729,28	4,5	-0,075
731,392	4	-0,088
733,539	4,5	-0,053
735,669	5	-0,052
737,775	5	-0,058
739,911	5	-0,041
742,041	5	-0,029
744,177	5	-0,02
746,313	5,5	-0,013
748,449	5,5	-0,009
750,572	5,5	-0,009
752,733	5	-0,004
754,844	5	-0,005
756,974	5	-0,003
759,11	5	-0,001
761,24	5	-0,001
763,382	5	-0,001
765,518	5	0
767,654	5	-0,105
769,79	5	-0,275
771,919	4,5	-0,358
774,044	4	-0,409
776,185	1,5	-0,598
778,328	0,5	-0,766
780,463	0	-0,908
782,575	-0,5	-1,005
784,675	0	-0,926
786,816	-0,5	-1,023
788,976	-1	-1,25
791,106	-1,5	-1,256
793,26	-1,5	-1,426
795,426	-2,5	-1,601
797,538	-2	-1,533
799,692	-3	-1,724
801,87	-4	-2,028
803,999	-4	-2,109
806,165	-5,5	-2,37
808,289	-6	-2,432
810,413	-6	-2,482
812,561	-8	-2,648
814,709	-9	-2,807
816,851	-10,5	-3,034
818,945	-10,5	-2,999
821,063	-11,5	-3,131
823,162	-11,5	-3,089
825,31	-12	-3,239
827,452	-14	-3,353
829,624	-16,5	-3,456
831,748	-17	-3,464
833,914	-17	-3,487
836,032	-17	-3,488
838,215	-17,5	-3,496
840,381	-17	-3,498
842,499	-17	-3,498
844,617	-17	-3,499
846,753	-17	-3,499
848,847	-17	-3,499
851,013	-17	-3,333
853,113	-17	-3,426
855,249	-16,5	-3,2
857,373	-16,5	-3,207
859,491	-16,5	-3,22
861,626	-15,5	-3,139
863,744	-16,5	-3,269
865,856	-17	-3,359
867,998	-17	-3,293
870,134	-17	-3,13
872,258	-17	-3,252
874,375	-17	-3,349
876,493	-17	-3,36
878,605	-17	-3,432
880,705	-17	-3,488
882,829	-17	-3,338
885,025	-12	-2,855
887,131	-13,5	-2,932
889,249	-13,5	-2,948
891,373	-13	-2,873
893,502	-11,5	-2,81
895,626	-10,5	-2,7
897,756	-9,5	-2,604
899,874	-9	-2,546
901,998	-7,5	-2,516
904,104	-8,5	-2,545
906,216	-7,5	-2,544
908,375	-5,5	-2,28
910,524	-4,5	-2,125
912,653	-4,5	-2,082
914,753	-4,5	-2,075
916,847	-5	-2,118
918,995	-3	-1,999
921,089	-4,5	-2,094
923,225	-3,5	-1,96
925,313	-4,5	-2,059
927,412	-5	-2,18
929,524	-5,5	-2,211
931,648	-5	-2,165
933,736	-5	-2,258
935,854	-5,5	-2,279
937,972	-6	-2,284
940,582	4,5	-0,068
942,712	4,5	-0,065
944,817	4,5	-0,081
946,941	4,5	-0,056
949,041	4,5	-0,064
951,189	5	-0,035
953,289	5	-0,034
955,425	5	-0,016
957,555	5	-0,014
959,655	5	-0,017
961,76	5	-0,021
963,86	4,5	-0,033
965,99	5	-0,025
968,096	5	-0,023
970,22	5	-0,018
972,356	5	-0,014
974,48	5,5	-0,01
976,574	5,5	-0,01
978,673	5	-0,008
980,761	5	-0,01
982,915	5	-0,006
985,063	5	-0,003
987,145	5	-0,006
989,251	5,5	-0,005
991,351	5,5	-0,005
993,451	5,5	-0,005
995,575	5	-0,004
997,674	5,5	-0,006
999,774	5	-0,006
1001,91	5	-0,005
1004,028	5	-0,003
1006,14	5	-0,003
1008,258	5	-0,003
1010,358	5	-0,003
1012,518	5	-0,001
1014,653	5	-0,001
1016,789	5	0
1018,925	5	-0,12
1021,055	4,5	-0,247
1023,167	5	-0,214
1025,303	5	-0,296
1027,409	4,5	-0,289
1029,515	4,5	-0,325
1031,597	4,5	-0,177
1033,702	5	-0,122
1035,85	4,5	-0,292
1037,962	5	-0,304
1040,086	5	-0,329
1042,21	4	-0,37
1044,322	4,5	-0,366
1046,476	2,5	-0,61
1048,6	2	-0,661
1050,693	3,5	-0,502
1052,805	4,5	-0,515
1054,923	3,5	-0,567
1057,017	3,5	-0,501
1059,141	3	-0,615
1061,289	0	-0,824
1063,389	0,5	-0,76
1065,489	1	-0,739
1067,624	1,5	-0,823
1069,712	1,5	-0,699
1071,848	0	-0,805
1073,954	1,5	-0,734
1076,078	0,5	-0,806
1078,25	-0,5	-1,055
1080,356	-0,5	-1,026
1082,468	-0,5	-1,13
1084,585	-0,5	-1,111
1086,716	-0,5	-1,197
1088,815	-0,5	-1,107
1090,927	-0,5	-1,098
1093,027	0	-0,976
1095,127	0	-0,902
1097,233	0	-0,91
1099,375	-0,5	-1,111
1101,522	-1	-1,387
1103,611	-0,5	-1,236
1105,71	-1	-1,162
1107,822	-1	-1,18
1109,922	-0,5	-1,132
1112,064	-1,5	-1,278
1114,182	-1	-1,373
1116,294	-1,5	-1,397
1118,394	-1	-1,311
1120,505	-1,5	-1,382
1122,629	-1,5	-1,406
1124,771	-2	-1,578
1126,877	-1,5	-1,496
1129,001	-1,5	-1,65
1131,089	-2	-1,601
1133,207	-2	-1,567
1135,325	-2	-1,604
1137,412	-1,5	-1,475
1139,512	-1,5	-1,437
1141,594	-1	-1,283
1143,712	-1	-1,368
1145,836	-1,5	-1,525
1147,96	-2	-1,678
1150,066	-2	-1,676
1152,172	-2	-1,668
1154,289	-2,5	-1,758
1156,407	-2,5	-1,786
1158,525	-2,5	-1,807
1160,613	-1,5	-1,506
1162,701	-1	-1,33
1164,819	-1	-1,35
1166,919	-1	-1,292
1169,019	-0,5	-1,175
1171,119	-0,5	-1,17
1173,2	-0,5	-0,99
1175,318	-0,5	-1,063
1177,448	-0,5	-1,138
1179,548	-0,5	-1,059
1181,672	-0,5	-1,052
1183,82	-1	-1,164
1185,938	-0,5	-1,168
1188,086	-1	-1,312
1190,209	-1	-1,359
1192,357	-1,5	-1,524
1194,451	-1	-1,373
1196,587	-1,5	-1,499
1198,723	-2	-1,657
1200,811	-1,5	-1,512
1202,959	-2	-1,641
1205,083	-2,5	-1,745
1207,176	-2,5	-1,757
1209,27	-2	-1,669
1211,376	-1,5	-1,577
1213,476	-1,5	-1,454
1215,582	-1,5	-1,389
1217,706	-1,5	-1,461
1219,836	-1,5	-1,579
1221,924	-1,5	-1,481
1224,017	-1,5	-1,398
1226,105	-1	-1,276
1228,199	-0,5	-1,106
1230,323	-0,5	-1,141
1232,429	-0,5	-1,071
1234,541	-0,5	-1,148
1236,653	0	-1,011
1238,771	0	-0,962
1240,901	0	-0,967
1243,06	-0,5	-1,146
1245,172	-0,5	-1,11
1247,26	-0,5	-1,033
1249,39	-0,5	-1,088
1251,544	-1	-1,21
1253,656	-1	-1,173
1255,75	-0,5	-1,048
1257,85	0	-0,968
1259,967	0	-0,984
1262,073	0	-0,86
1264,173	0,5	-0,764
1266,261	1,5	-0,64
1268,385	1,5	-0,702
1270,491	2	-0,646
1272,573	2	-0,557
1274,673	2,5	-0,552
1276,773	4	-0,476
1278,908	3,5	-0,518
1281,008	4	-0,433
1283,114	2,5	-3,077
1285,718	-8,5	-2,883
1287,86	-9,5	-3,05
1289,98	-10	-3,086
1292,102	-10	-3,159
1294,201	-10	-3,122
1296,337	-10,5	-3,19
1298,443	-9,5	-3,102
1300,555	-9,5	-3,084
1302,697	-10,5	-3,176
1304,821	-10,5	-3,21
1306,939	-11,5	-3,314
1309,057	-11,5	-3,271
1311,162	-11	-3,254
1313,268	-11	-3,29
1315,38	-11,5	-3,273
1317,486	-11	-3,264
1319,61	-12,5	-3,312
1321,734	-13	-3,355
1323,84	-13	-3,368
1325,946	-12	-3,326
1328,069	-13	-3,359
1330,17	-12,5	-3,32
1332,275	-12	-3,309
1334,381	-11,5	-3,301
1336,487	-10,5	-3,238
1338,605	-11	-3,272
1340,705	-10	-3,185
1342,787	-8,5	-2,999
1344,887	-7	-2,828
1346,993	-6,5	-2,716
1349,092	-6	-2,592
1351,222	-6	-2,646
1353,322	-5	-2,525
1355,428	-5	-2,417
1357,522	-3,5	-2,222
1359,61	-3,5	-2,056
1361,704	-2,5	-1,983
1363,791	-2,5	-1,827
1365,897	-2	-1,719
1367,997	-1,5	-1,592
1370,115	-1,5	-1,463
1372,197	-0,5	-1,24
1374,297	-0,5	-1,112
1376,385	0	-0,941
1378,473	0,5	-0,759
1380,573	2	-0,594
1382,69	2,5	-0,54
1384,796	3	-0,533
1386,89	4	-0,37
1388,996	4,5	-0,281
1391,144	4	-0,443
1393,238	4,5	-0,324
1395,362	5	-0,26
1397,444	5	-0,005
1399,549	5	0
1401,649	5	-0,001
1403,737	5	-0,001
1405,843	5	-0,002
1407,967	5	-0,002
1410,073	5	-0,003
1412,179	5	-0,006
1414,285	5	-0,008
1416,378	5	-0,012
1418,484	5	-0,018
1420,596	4,5	-0,023
1422,678	4,5	-0,063
1424,808	4,5	-0,059
1426,884	3,5	-0,151
1428,966	2,5	-0,327
1431,066	2	-0,48
1433,171	2	-0,509
1435,266	1,5	-0,64
1437,371	1	-0,78
1439,471	1	-0,887
1441,578	0	-1,074
1443,677	0	-1,24
1445,771	-0,5	-1,392
1447,859	-1,5	-1,607
1449,959	-2,5	-1,776
1452,052	-3	-1,902
1454,14	-5	-2,168
1456,246	-6	-2,341
1458,34	-8	-2,494
1460,488	-6	-2,36
1462,594	-7	-2,42
1464,694	-8	-2,527
1466,77	-10,5	-2,784
1468,863	-11,5	-2,89
1470,958	-15	-3,069
1473,063	-15	-3,156
1475,133	-15	-3,327
1477,221	-15	-3,489
1479,315	-15	-3,5
1481,421	-15	-3,5
1483,509	-15,5	-3,499
1485,621	-15,5	-3,498
1487,696	-15,5	-3,496
1489,796	-15	-3,495
1491,89	-15	-3,493
1493,978	-15	-3,489
1496,096	-15	-3,487
1498,25	-15	-3,492
1500,356	-15	-3,492
1502,504	-15	-3,494
1504,591	-15	-3,493
1506,704	-15	-3,492
1508,791	-15	-3,491
1510,897	-15	-3,489
1512,991	-15	-3,482
1515,091	-15	-3,474
1517,209	-15	-3,478
1519,303	-15	-3,474
1521,409	-15	-3,472
1523,497	-15	-3,455
1525,584	-14,5	-3,44
1527,672	-13	-3,407
1529,76	-12,5	-3,368
1531,866	-12,5	-3,38
1533,972	-10,5	-3,355
1536,06	-11	-3,283
1538,142	-10	-3,206
1540,241	-10	-3,174
1542,329	-8,5	-3,062
1544,417	-7	-2,826
1546,535	-7	-2,814
1548,623	-5,5	-2,653
1550,711	-4,5	-2,497
1552,817	-4,5	-2,459
1554,929	-4	-2,354
1557,004	-3	-2,048
1559,098	-2,5	-1,912
1561,186	-1,5	-1,809
1563,262	-1	-1,534
1565,362	-1	-1,429
1567,444	-0,5	-1,227
1569,55	0	-1,192
1571,626	0	-1,025
1573,713	0,5	-0,811
1575,801	3	-0,57
1577,901	4,5	-0,405
1579,977	5	-0,132
1582,059	5	0
1584,165	5	-0,001
1586,271	5	-0,001
1588,347	5	-0,002
1590,453	5	-0,002
1592,541	5,5	-0,005
1594,616	5	-0,011
1596,698	5	-0,014
1598,792	5	-0,016
1600,868	5	-0,022
1602,95	4,5	-0,027
1605,056	5	-0,019
1607,138	5	-0,027
1609,235	5	-0,04
1611,343	4,5	-0,051
1613,431	4,5	-0,083
1615,519	3,5	-0,135
1617,595	3,5	-0,192
1619,707	2,5	-0,255
1621,832	3,5	-0,2
1623,919	2,5	-0,3
1626,012	2,5	-0,438
1628,101	1,5	-0,604
1630,2	1,5	-0,645
1632,276	1	-0,898
1634,364	0,5	-1,049
1636,452	0	-1,237
1638,54	0	-1,424
1640,646	-0,5	-1,489
1642,764	-0,5	-1,501
1644,863	-1	-1,586
1646,963	-1,5	-1,745
1649,039	-2,5	-1,973
1651,121	-4	-2,168
1653,221	-5,5	-2,296
1655,297	-7	-2,549
1657,385	-10,5	-2,8
1659,473	-10,5	-2,87
1661,554	-13	-3,051
1663,636	-15	-3,3
1665,724	-15	-3,451
1667,8	-15	-3,499
1669,882	-15	-3,499
1671,958	-15	-3,496
1674,04	-15	-3,495
1676,122	-15	-3,492
1678,198	-15	-3,484
1680,285	-14,5	-3,473
1682,427	-15	-3,48
1684,533	-15	-3,463
1686,627	-14,5	-3,46
1688,715	-14,5	-3,448
1690,803	-13	-3,413
1692,879	-12,5	-3,374
1694,967	-11	-3,285
1697,054	-9	-3,112
1699,13	-7,5	-2,922
1701,242	-6,5	-2,85
1703,324	-5,5	-2,648
1705,406	-4,5	-2,436
1707,512	-4,5	-2,402
1709,6	-3,5	-2,23
1711,688	-3	-2,016
1713,776	-2,5	-1,897
1715,864	-1,5	-1,822
1717,951	-1,5	-1,713
1720,039	-1	-1,521
1722,145	-1	-1,396
1724,263	-1	-1,466
1726,339	-0,5	-1,302
1728,433	-0,5	-1,097
1730,526	0	-1,025
1732,62	0	-0,894
1734,708	0	-0,802
1736,79	2,5	-0,578
1738,86	4,5	-0,396
1740,942	5	-0,311
1743,054	4,5	-0,279
1745,13	5	-0,054
1747,206	5	-0,001
1749,312	5	-0,001
1751,399	5	-0,001
1753,517	5	-0,002
1755,605	5	-0,002
1757,687	5	-0,003
1759,781	5	-0,006
1761,857	5,5	-0,013
1763,963	5	-0,015
1766,05	5,5	-0,023
1768,121	4,5	-0,056
1770,214	4,5	-0,084
1772,314	4	-0,115
1774,39	3	-0,234
1776,49	3	-0,291
1778,566	1,5	-0,501
1780,678	1,5	-0,59
1782,772	1,5	-0,764
1784,848	1	-0,974
1786,929	0	-1,164
1789,005	0	-1,397
1791,093	-0,5	-1,526
1793,176	-1	-1,659
1795,269	-1,5	-1,816
1797,363	-2	-1,931
1799,433	-3	-2,089
1801,527	-4,5	-2,293
1803,614	-6	-2,438
1805,69	-7,5	-2,604
1807,796	-9	-2,681
1809,884	-11	-2,955
1812,026	-10	-2,845
1814,102	-12	-3,045
1816,184	-14,5	-3,249
1818,26	-15	-3,378
1820,365	-15	-3,496
1822,453	-15	-3,5
1824,529	-15	-3,499
1826,617	-15	-3,498
1828,699	-15	-3,497
1830,775	-15	-3,493
1832,875	-15	-3,491
1834,945	-15	-3,482
1837,099	-15	-3,49
1839,174	-15	-3,479
1841,262	-14,5	-3,468
1843,338	-14	-3,44
1845,42	-13,5	-3,421
1847,502	-12	-3,343
1849,59	-10	-3,221
1851,672	-8,5	-3,096
1853,747	-7	-2,864
1855,835	-6,5	-2,73
1857,911	-4,5	-2,509
1859,993	-4	-2,323
1862,111	-3,5	-2,333
1864,181	-3,5	-2,168
1866,275	-3	-2,037
1868,393	-2,5	-2,073
1870,474	-2,5	-1,93
1872,563	-2	-1,758
1874,65	-1,5	-1,625
1876,72	-1	-1,447
1878,808	-0,5	-1,276
1880,914	-0,5	-1,183
1883,002	0	-1,028
1885,156	-0,5	-1,234
1887,232	0	-0,986
1889,356	0	-1,063
1891,443	0	-0,951
1893,513	1,5	-0,71
1895,589	3,5	-0,568
1897,695	4,5	-0,402
1899,765	5	-0,194
1901,865	5	-0,12
1903,947	5	0
1906,04	5,5	-0,001
1908,116	5	-0,001
1910,192	5,5	-0,002
1912,274	5	-0,004
1914,362	5	-0,006
1916,444	5	-0,012
1918,532	5	-0,02
1920,608	4,5	-0,034
1922,69	4,5	-0,044
1924,778	4,5	-0,076
1926,854	3,5	-0,178
1928,941	3	-0,209
1931,017	2,5	-0,295
1933,105	2,5	-0,338
1935,181	2	-0,432
1937,263	2	-0,5
1939,339	1,5	-0,604
1941,427	1	-0,771
1943,508	0,5	-0,962
1945,584	0,5	-1,109
1947,666	0	-1,299
1949,742	-0,5	-1,525
1951,824	-1	-1,594
1953,9	-2	-1,813
1955,988	-3	-1,934
1958,064	-3,5	-2,096
1960,151	-3,5	-2,152
1962,233	-5	-2,268
1964,321	-5	-2,322
1966,391	-7	-2,536
1968,473	-8	-2,616
1970,549	-9	-2,735
1972,649	-10	-2,843
1974,737	-13	-3,057
1976,812	-15	-3,248
1978,901	-15	-3,395
1981,006	-15	-3,446
1983,088	-15	-3,5
1985,176	-15	-3,499
1987,246	-15	-3,499
1989,328	-15	-3,498
1991,404	-15	-3,497
1993,492	-15	-3,496
1995,58	-15	-3,492
1997,667	-15	-3,489
1999,743	-14,5	-3,479
2001,825	-14	-3,462
2003,901	-13	-3,434
2006,001	-13	-3,429
2008,101	-13	-3,428
2010,183	-11,5	-3,387
2012,276	-11,5	-3,37
2014,394	-11,5	-3,378
2016,482	-10	-3,299
2018,558	-8	-3,111
2020,634	-7	-2,952
2022,704	-5,5	-2,797
2024,792	-5,5	-2,753
2026,874	-4,5	-2,573
2028,949	-4	-2,362
2031,025	-2,5	-2,037
2033,113	-2,5	-1,923
2035,202	-1,5	-1,761
2037,277	-1,5	-1,647
2039,383	-1,5	-1,687
2041,459	-1	-1,525
2043,547	-1	-1,412
2045,623	-0,5	-1,264
2047,711	-0,5	-1,231
2049,786	0	-1,011
2051,868	0	-0,921
2053,938	1,5	-0,732
2056,026	1,5	-0,711
2058,102	2,5	-0,632
2060,19	2,5	-0,598
2062,266	3	-0,532
2064,372	3,5	-0,515
2066,472	4	-0,471
2068,547	4,5	-0,259
2070,641	5	-0,143
2072,717	4,5	-0,003
2074,799	5	-0,001
2076,875	5	-0,001
2078,981	5	-0,001
2081,068	4,5	-0,002
2083,144	4,5	-0,004
2085,232	5	-0,006
2087,308	5	-0,01
2089,396	5	-0,015
2091,466	4,5	-0,035
2093,548	4,5	-0,04
2095,63	4,5	-0,055
2097,706	3,5	-0,129
2099,788	3	-0,231
2101,863	2,5	-0,358
2103,945	1,5	-0,566
2106,015	1	-0,79
2108,103	1,5	-0,828
2110,179	0,5	-0,98
2112,261	0	-1,129
2114,337	0	-1,27
2116,418	0	-1,318
2118,5	0	-1,45
2120,576	-1	-1,576
2122,652	-1	-1,659
2124,728	-1,5	-1,784
2126,858	-0,5	-1,618
2128,982	0	-1,455
2131,058	-0,5	-1,538
2133,134	-1	-1,619
2135,222	-1	-1,723
2137,298	-2	-1,908
2139,385	-3	-2,069
2141,485	-3,5	-2,12
2143,561	-4	-2,22
2145,631	-5,5	-2,438
2147,713	-7	-2,539
2149,783	-8	-2,7
2151,864	-9	-2,758
2153,994	-8,5	-2,667
2156,118	-6,5	-2,589
2158,212	-7	-2,545
2160,282	-8	-2,684
2162,376	-8	-2,74
2164,464	-9	-2,758
2166,564	-9,5	-2,812
2168,639	-12	-3,028
2170,727	-13,5	-3,114
2172,797	-14,5	-3,285
2174,885	-14,5	-3,366
2176,955	-14,5	-3,5
2179,043	-15	-3,499
2181,119	-14,5	-3,499
2183,201	-14,5	-3,498
2185,277	-14,5	-3,496
2187,359	-15	-3,495
2189,434	-15	-3,494
2191,516	-15	-3,492
2193,586	-14,5	-3,488
2195,674	-14,5	-3,488
2197,75	-14,5	-3,484
2199,838	-14,5	-3,481
2201,914	-14,5	-3,472
2203,995	-14	-3,459
2206,071	-12,5	-3,432
2208,147	-12,5	-3,399
2210,235	-12,5	-3,386
2212,317	-12	-3,359
2214,405	-11	-3,346
2216,475	-10	-3,257
2218,557	-10,5	-3,284
2220,633	-9,5	-3,21
2222,733	-9,5	-3,2
2224,802	-7,5	-3,023
2226,89	-6	-2,921
2228,96	-6	-2,761
2231,054	-6	-2,816
2233,13	-5,5	-2,712
2235,242	-6	-2,804
2237,312	-5,5	-2,675
2239,399	-4,5	-2,566
2241,469	-4,5	-2,528
2243,581	-5,5	-2,673
2245,663	-5	-2,588
2247,751	-4,5	-2,507
2249,827	-3,5	-2,376
2251,915	-4	-2,354
2253,991	-3,5	-2,218
2256,078	-3	-2,122
2258,166	-2,5	-2,103
2260,254	-3	-2,065
2262,33	-2	-1,87
2264,436	-2	-1,842
2266,512	-2	-1,807
2268,6	-1,5	-1,715
2270,67	-1,5	-1,656
2272,758	-1,5	-1,547
2274,84	-0,5	-1,426
2276,957	-1	-1,506
2279,033	-0,5	-1,39
2281,121	-1	-1,388
2283,197	-0,5	-1,311
2285,285	-0,5	-1,273
2287,361	0	-1,153
2289,443	0	-1,02
2291,519	0	-0,894
2293,595	0,5	-0,748
2295,724	0,5	-0,818
2297,806	2	-0,691
2299,894	1,5	-0,637
2301,97	3	-0,48
2304,058	4	-0,381
2306,134	5	-0,114
2308,221	5	0
2310,291	5	-0,001
2312,379	5	-0,002
2314,467	5	-0,004
2316,555	5	-0,006
2318,637	5	-0,011
2320,713	5	-0,021
2322,795	4,5	-0,036
2324,871	4	-0,078
2326,952	4	-0,104
2329,047	3	-0,236
2331,134	3	-0,32
2333,21	1,5	-0,632
2335,292	1	-0,887
2337,368	0,5	-1,088
2339,456	0	-1,289
2341,55	0	-1,49
2343,643	-0,5	-1,589
2345,72	-1,5	-1,805
2347,813	-2	-1,978
2349,889	-3,5	-2,205
2351,965	-5	-2,426
2354,065	-5,5	-2,506
2356,171	-6	-2,583
2358,247	-9	-2,862
2360,329	-12,5	-3,129
2362,399	-14,5	-3,457
2364,474	-14,5	-3,499
2366,574	-14,5	-3,499
2368,656	-14,5	-3,498
2370,744	-14,5	-3,495
2372,82	-14,5	-3,49
2374,908	-14	-3,484
2376,984	-14	-3,468
2379,072	-13	-3,449
2381,165	-11,5	-3,395
2383,277	-10,5	-3,363
2385,365	-9	-3,251
2387,453	-7,5	-3,092
2389,535	-5,5	-2,863
2391,629	-4,5	-2,781
2393,753	-5	-2,789
2395,829	-4	-2,493
2397,916	-2,5	-2,126
2399,992	-1,5	-1,824
2402,086	-1	-1,624
2404,156	-0,5	-1,372
2406,232	0	-1,082
2408,314	0	-0,918
2410,39	2	-0,718
2412,472	3,5	-0,543
2414,553	4,5	-0,452
2416,648	4,5	-0,376
2418,735	5	0
2420,823	5	-0,001
2422,899	5	-0,002
2424,987	5	-0,003
2427,057	5	-0,008
2429,145	5	-0,014
2431,22	4,5	-0,04
2433,303	4	-0,079
2435,39	3,5	-0,124
2437,466	2,5	-0,329
2439,584	2	-0,527
2441,66	1,5	-0,78
2443,736	0,5	-1,074
2445,812	0	-1,398
2447,9	-1	-1,698
2449,993	-2	-1,885
2452,081	-3,5	-2,255
2454,169	-5,5	-2,453
2456,245	-8	-2,721
2458,333	-9,5	-2,834
2460,415	-12,5	-3,053
2462,491	-13,5	-3,311
2464,597	-13,5	-3,496
2466,672	-13,5	-3,499
2468,749	-13,5	-3,498
2470,836	-14	-3,496
2472,912	-13,5	-3,492
2474,988	-13,5	-3,484
2477,064	-13,5	-3,473
2479,14	-12	-3,43
2481,222	-10	-3,341
2483,292	-7,5	-3,171
2485,373	-5,5	-2,885
2487,443	-4,5	-2,57
2489,531	-3,5	-2,456
2491,607	-2,5	-2,241
2493,689	-2	-2,05
2495,759	-1,5	-1,851
2497,829	-1	-1,644
2499,911	-0,5	-1,431
2501,992	0	-1,289
2504,08	0	-1,16
2506,162	0	-0,888
2508,25	1,5	-0,754
2510,326	3,5	-0,543
2512,402	4,5	-0,397
2514,49	5	-0,194
2516,566	5	-0,066
2518,642	5	0
2520,717	5	-0,001
2522,805	5	-0,002
2524,875	5	-0,003
2526,957	5,5	-0,005
2529,045	5,5	-0,007
2531,121	5,5	-0,01
2533,209	5	-0,012
2535,285	5	-0,021
2537,367	5	-0,029
2539,443	4,5	-0,046
2541,53	4,5	-0,062
2543,618	4	-0,086
2545,712	4	-0,118
2547,8	3,5	-0,198
2549,876	3	-0,333
2551,958	2	-0,54
2554,033	1,5	-0,675
2556,109	1	-0,745
2558,203	1	-0,825
2560,279	1	-0,939
2562,367	0	-1,112
2564,443	0	-1,349
2566,525	-0,5	-1,486
2568,601	-1	-1,67
2570,688	-1,5	-1,815
2572,765	-2,5	-2,025
2574,84	-3	-2,162
2576,922	-4	-2,278
2578,992	-7,5	-2,742
2581,08	-10	-2,908
2583,156	-12	-3,093
2585,232	-13,5	-3,299
2587,347	-13,5	-3,13
2589,42	-13,5	-3,337
2591,531	-13,5	-3,343
2593,649	-13,5	-3,321
2595,725	-13,5	-3,5
2597,801	-13,5	-3,499
2599,889	-13,5	-3,499
2601,959	-13,5	-3,498
2604,041	-13,5	-3,497
2606,116	-13,5	-3,495
2608,187	-13,5	-3,493
2610,274	-13,5	-3,49
2612,344	-13	-3,485
2614,462	-13,5	-3,487
2616,538	-13	-3,478
2618,62	-12,5	-3,463
2620,714	-12,5	-3,447
2622,802	-11	-3,413
2624,877	-9,5	-3,372
2626,965	-9	-3,303
2629,035	-7	-3,034
2631,123	-5	-2,782
2633,193	-4	-2,575
2635,353	-5	-2,716
2637,429	-4,5	-2,563
2639,511	-3	-2,357
2641,593	-2,5	-2,134
2643,668	-1,5	-1,92
2645,763	-1	-1,755
2647,838	-1	-1,582
2649,92	-0,5	-1,364
2651,996	0	-1,068
2654,066	0,5	-0,785
2656,154	2,5	-0,582
2658,236	4,5	-0,341
2660,329	5	-0,048
2662,399	5	0
2664,481	5,5	-0,001
2666,569	5	-0,002
2668,657	5	-0,003
2670,733	5	-0,008
2672,809	5	-0,02
2674,909	5,5	-0,025
2676,984	4,5	-0,047
2679,072	4,5	-0,075
2681,142	3	-0,165
2683,224	2,5	-0,348
2685,312	2	-0,514
2687,388	1,5	-0,683
2689,5	1,5	-0,713
2691,576	1	-0,934
2693,669	0,5	-1,084
2695,746	0,5	-1,296
2697,821	0	-1,522
2699,909	-0,5	-1,694
2701,979	-1,5	-1,914
2704,061	-3	-2,109
2706,143	-3,5	-2,344
2708,225	-5,5	-2,555
2710,295	-9	-2,863
2712,365	-13	-3,248
2714,452	-13	-3,5
2716,528	-13,5	-3,499
2718,67	-13,5	-3,499
2720,746	-13	-3,498
2722,834	-13	-3,495
2724,904	-13	-3,488
2726,98	-13	-3,47
2729,056	-11,5	-3,418
2731,155	-10,5	-3,372
2733,243	-9	-3,262
2735,355	-12,5	-3,448
2737,443	-11	-3,392
2739,519	-7,5	-3,19
2741,595	-6	-2,964
2743,677	-4,5	-2,666
2745,753	-3,5	-2,413
2747,834	-3	-2,254
2749,91	-1,5	-1,922
2751,98	-1,5	-1,708
2754,068	-0,5	-1,408
2756,144	0	-0,953
2758,226	2	-0,647
2760,302	4	-0,37
2762,378	5	-0,073
2764,466	5	-0,001
2766,547	5	-0,001
2768,635	5	-0,003
2770,771	5	-0,003
2772,847	5	-0,007
2774,923	5	-0,012
2777,005	5	-0,028
2779,081	4,5	-0,057
2781,169	4	-0,071
2783,244	3,5	-0,139
2785,314	2,5	-0,275
2787,408	2	-0,421
2789,484	2	-0,473
2791,596	2	-0,578
2793,672	1,5	-0,794
2795,748	0,5	-1,057
2797,842	0,5	-1,085
2799,912	0	-1,289
2802,005	0,5	-1,266
2804,075	0	-1,459
2806,181	0	-1,557
2808,257	-0,5	-1,82
2810,339	-1	-1,91
2812,415	-1,5	-2,109
2814,491	-3	-2,23
2816,579	-3,5	-2,412
2818,654	-5	-2,607
2820,73	-7	-2,754
2822,818	-7	-2,803
2824,888	-9	-2,948
2826,97	-11,5	-3,172
2829,046	-12	-3,311
2831,134	-11,5	-3,498
2833,239	-11,5	-3,5
2835,315	-11,5	-3,5
2837,403	-11,5	-3,499
2839,479	-12	-3,499
2841,555	-12	-3,498
2843,637	-12	-3,496
2845,713	-12	-3,495
2847,795	-12	-3,492
2849,877	-11,5	-3,488
2851,971	-11,5	-3,484
2854,058	-11,5	-3,467
2856,128	-9,5	-3,392
2858,222	-7,5	-3,292
2860,298	-5,5	-2,994
2862,386	-4	-2,759
2864,474	-3,5	-2,641
2866,55	-2,5	-2,346
2868,656	-2	-2,2
2870,732	-1,5	-1,931
2872,807	-0,5	-1,652
2874,895	-0,5	-1,432
2876,971	0	-1,243
2879,059	0	-1,092
2881,153	0	-1,003
2883,241	1	-0,822
2885,353	1,5	-0,727
2887,434	4	-0,493
2889,51	5	-0,198
2891,586	5	0
2893,674	5	-0,001
2895,756	5	-0,001
2897,85	5	-0,002
2899,938	5	-0,004
2902,02	5	-0,008
2904,114	5	-0,009
2906,189	5	-0,016
2908,271	5	-0,021
2910,359	5	-0,027
2912,435	4,5	-0,045
2914,517	4	-0,079
2916,593	3,5	-0,106
2918,681	3	-0,166
2920,756	2,5	-0,206
2922,827	2,5	-0,343
2924,914	2,5	-0,509
2926,984	1,5	-0,659
2929,06	1,5	-0,794
2931,154	1,5	-0,841
2933,224	1	-1,059
2935,3	0,5	-1,191
2937,388	0,5	-1,298
2939,457	0	-1,428
2941,534	0	-1,531
2943,621	0	-1,613
2945,691	-0,5	-1,752
2947,767	-0,5	-1,878
2949,849	-1	-1,967
2951,925	-1,5	-2,109
2954,007	-1,5	-2,134
2956,083	-3	-2,313
2958,152	-3,5	-2,453
2960,24	-4	-2,539
2962,316	-5	-2,674
2964,41	-5,5	-2,748
2966,48	-8,5	-2,971
2968,55	-10	-3,188
2970,644	-10	-3,241
2972,714	-10	-3,395
2974,789	-10	-3,407
2976,871	-10,5	-3,496
2978,947	-10	-3,499
2981,023	-10	-3,499
2983,105	-10	-3,498
2985,181	-10	-3,498
2987,263	-10	-3,497
2989,339	-10	-3,493
2991,414	-10	-3,487
2993,508	-10	-3,484
2995,585	-10	-3,469
2997,654	-9	-3,452
2999,742	-8,5	-3,429
3001,812	-7,5	-3,383
3003,9	-6	-3,327
3005,97	-5	-3,108
3008,045	-4,5	-2,903
3010,128	-3,5	-2,728
3012,204	-2,5	-2,438
3014,279	-1,5	-2,218
3016,367	-1,5	-2,093
3018,449	-1	-1,832
3020,519	0	-1,482
3022,607	0	-1,327
3024,677	0	-1,076
3026,758	1	-0,853
3028,84	1,5	-0,671
3030,916	4,5	-0,413
3033,004	5	-0,176
3035,086	5	0
3037,18	5	-0,001
3039,292	5	-0,001
3041,374	5	-0,003
3043,455	5	-0,006
3045,525	4,5	-0,017
3047,595	4,5	-0,038
3049,689	4	-0,078
3051,759	3,5	-0,184
3053,847	2	-0,445
3055,947	2	-0,524
3058,023	1,5	-0,746
3060,111	1,5	-0,89
3062,18	1	-1,109
3064,262	1	-1,22
3066,344	0	-1,417
3068,42	0	-1,628
3070,508	0	-1,804
3072,584	0	-1,962
3074,66	-1	-2,177
3076,748	-1,5	-2,258
3078,829	-3	-2,487
3080,905	-3,5	-2,624
3082,993	-5	-2,804
3085,069	-7	-3
3087,145	-8,5	-3,195
3089,233	-9	-3,31
3091,309	-9	-3,5
3093,397	-9	-3,499
3095,472	-9	-3,498
3097,543	-9	-3,495
3099,624	-9	-3,492
3101,7	-9	-3,484
3103,776	-9	-3,47
3105,864	-8	-3,444
3107,94	-6,5	-3,39
3110,01	-5	-3,213
3112,092	-4	-3,061
3114,192	-3,5	-2,964
3116,285	-3	-2,849
3118,361	-2,5	-2,65
3120,437	-2	-2,428
3122,519	-1,5	-2,242
3124,613	-1,5	-2,192
3126,713	-1,5	-2,187
3128,783	-1	-1,962
3130,858	-0,5	-1,794
3132,934	-0,5	-1,653
3135,028	-0,5	-1,543
3137,11	0	-1,321
3139,186	0	-1,093
3141,262	1	-0,926
3143,338	1,5	-0,705
3145,42	3	-0,525
3147,496	4,5	-0,324
3149,584	4,5	-0,246
3151,659	4,5	-0,032
3153,735	4,5	0
3155,823	5	-0,001
3157,899	5	-0,002
3159,969	5	-0,004
3162,063	5	-0,005
3164,139	5	-0,008
3166,214	5	-0,011
3168,302	5	-0,018
3170,372	4,5	-0,038
3172,46	4,5	-0,049
3174,536	4	-0,087
3176,606	3	-0,17
3176,942	5	-0,001