File: Cycling_tests/_30perc/_2gap/entrada/_3.txt
Time (s)	Load (N)	Displacement (mm)
46,309	-18	-3,02
48,739	-24,5	-3,493
51,216	-24	-3,2
53,61	-13,5	-2,142
55,926	-6,5	-1,493
58,314	0	-0,536
60,696	3,5	-0,017
63,232	3	-0,41
65,664	-5,5	-1,681
68,129	-17,5	-3,031
70,487	-23,5	-3,46
72,887	-24	-3,498
75,21	-23,5	-3,27
78,143	4	-0,029
80,555	4	-0,001
82,889	3	-0,396
85,282	-5	-1,546
87,649	-11,5	-2,521
90,017	-21,5	-3,42
92,356	-23,5	-3,492
94,666	-23,5	-3,499
97,03	-19,5	-2,858
99,358	-12,5	-2,094
101,835	0	-0,592
104,271	4	-0,014
106,689	4	-0,046
109,083	-3	-1,133
111,885	-23	-3,489
114,309	-22,5	-3,487
116,709	-14	-2,365
118,976	-8,5	-1,78
121,37	0	-0,683
123,693	3,5	-0,088
125,948	4,5	-0,027
128,204	4,5	-0,009
130,574	4,5	-0,001
132,932	0	-0,752
135,212	-3,5	-1,323
137,539	-8	-2,182
139,885	-15,5	-2,997
142,123	-20	-3,347
144,985	-9	-1,983
147,349	-2,5	-1,068
149,755	3	-0,098
152,046	4,5	-0,008
154,398	4,5	-0,001
156,702	3,5	-0,423
159,054	-3	-1,344
161,304	-5,5	-1,807
163,596	-10	-2,467
165,93	-16,5	-3,232
168,24	-21,5	-3,467
170,619	-22	-3,498
172,901	-22,5	-3,476
175,199	-19	-2,764
340,298	-20,5	-3,5
342,44	-20	-3,499
344,66	-20,5	-3,492
346,759	-20	-3,499
348,974	-20,5	-3,499
351,115	-20,5	-3,499
353,294	-20,5	-3,499
355,435	-20,5	-3,499
357,607	-20,5	-3,498
359,671	-20,5	-3,492
361,825	-20	-3,486
363,954	-20	-3,468
366,162	-20	-3,478
368,334	-20	-3,48
370,47	-19,5	-3,465
372,666	-20	-3,464
374,796	-18,5	-3,415
376,944	-18	-3,414
379,146	-18,5	-3,408
381,318	-17,5	-3,397
383,483	-17,5	-3,372
385,565	-12,5	-2,951
387,737	-12	-2,932
389,874	-10	-2,676
392,087	-11	-2,79
394,271	-10,5	-2,758
396,382	-8,5	-2,456
398,512	-6,5	-2,24
400,624	-5	-1,947
402,73	-3	-1,479
404,866	-2,5	-1,276
407,075	-3	-1,396
409,228	-2,5	-1,352
411,322	-1	-0,95
413,458	1	-0,742
415,534	4,5	-0,269
418,212	-11	-2,821
420,321	-9	-2,516
422,427	-6	-2,151
424,497	-3	-1,549
426,603	-3	-1,356
428,679	0	-0,832
430,773	4,5	-0,338
432,878	4,5	0
434,984	4,5	-0,001
437,054	5	-0,005
439,124	4,5	-0,032
441,23	3,5	-0,11
443,342	2	-0,343
445,454	0,5	-0,678
447,554	-1	-1,092
449,671	-2,5	-1,347
451,765	-6,5	-1,861
453,895	-8,5	-2,147
455,995	-13	-2,567
458,143	-14,5	-2,773
460,237	-19,5	-3,22
462,871	0	-0,936
465,013	-1	-1,098
467,089	-4	-1,613
469,194	-6,5	-1,934
471,366	-6,5	-1,967
473,472	-10	-2,283
475,602	-12	-2,573
477,708	-15,5	-2,846
479,796	-19,5	-3,245
481,86	-19,5	-3,499
483,906	-19,5	-3,495
486	-19,5	-3,481
488,081	-18,5	-3,438
490,217	-17	-3,375
492,311	-13	-3,076
494,423	-10	-2,786
496,499	-6,5	-2,251
498,581	-4,5	-1,868
500,633	-2	-1,397
502,721	0	-0,85
504,766	4,5	-0,158
506,806	4,5	-0,002
509,338	-2,5	-1,296
511,408	0,5	-0,796
513,466	4,5	-0,176
515,566	4,5	-0,001
517,63	4,5	-0,004
519,718	4,5	-0,012
521,763	3,5	-0,082
523,875	3	-0,237
525,921	0	-0,831
528,027	-1,5	-1,205
530,141	-3	-1,576
532,191	-8,5	-2,172
534,303	-10,5	-2,448
536,349	-18	-2,973
538,454	-19,5	-3,355
540,524	-19,5	-3,499
542,606	-19,5	-3,496
544,712	-19,5	-3,483
546,8	-18,5	-3,44
548,936	-17	-3,384
551,006	-11,5	-2,917
553,094	-8	-2,447
555,163	-4,5	-1,952
557,239	-3	-1,412
559,303	-0,5	-0,897
561,355	3,5	-0,358
563,437	4,5	0
565,501	4,5	-0,002
567,583	4,5	-0,007
569,641	4,5	-0,038
571,686	2	-0,246
573,774	1	-0,616
575,892	0	-0,952
577,938	-3	-1,573
580,008	-7	-2,068
582,084	-12,5	-2,608
584,148	-19	-3,103
586,218	-19	-3,5
588,288	-19,5	-3,498
590,363	-19	-3,491
592,457	-19	-3,468
594,533	-16	-3,355
596,579	-10,5	-2,78
598,697	-8	-2,47
600,791	-5,5	-2,052
602,831	-3	-1,338
604,901	0,5	-0,741
606,982	4,5	-0,266
609,017	5	-0,001
611,068	4,5	-0,006
613,168	4,5	-0,022
615,22	3	-0,186
617,266	0,5	-0,781
619,306	-3	-1,528
621,358	-8,5	-2,178
623,44	-13,5	-2,575
625,474	-19	-3,283
627,549	-19	-3,499
629,559	-19	-3,491
631,617	-17,5	-3,442
633,693	-14	-3,258
635,745	-9	-2,645
637,887	-7	-2,391
639,951	-4	-1,818
642,009	-2	-1,257
644,048	2	-0,617
646,124	4,5	-0,103
648,2	4,5	-0,001
650,252	4,5	-0,006
652,298	4	-0,044
654,38	2,5	-0,166
656,438	0	-0,732
658,502	-1,5	-1,242
660,625	-3	-1,478
662,689	-7	-2,063
664,765	-11	-2,528
666,781	-19	-3,34
668,857	-19	-3,499
670,927	-19	-3,496
672,985	-18,5	-3,477
675,049	-15,5	-3,368
677,197	-14	-3,328
679,248	-9	-2,678
681,306	-4,5	-2,043
683,394	-3	-1,556
685,476	-1,5	-1,164
687,528	1,5	-0,654
689,598	4,5	-0,143
691,644	4,5	-0,002
693,756	4,5	-0,004
695,825	4,5	-0,019
697,902	3,5	-0,104
699,953	0,5	-0,554
702,053	0	-0,835
704,141	-1,5	-1,273
706,175	-6	-1,932
708,233	-11	-2,508
710,321	-15	-2,889
712,348	-18,5	-3,5
714,436	-19	-3,498
716,452	-18,5	-3,48
718,516	-15,5	-3,402
720,58	-12	-3,05
722,638	-6	-2,397
724,72	-4	-1,892
726,802	-2,5	-1,388
728,842	0,5	-0,731
730,899	4,5	-0,129
732,975	4,5	-0,001
735,057	4,5	-0,003
737,127	4,5	-0,014
739,209	4	-0,061
741,261	1,5	-0,452
743,337	-0,5	-0,993
745,455	-1,5	-1,232
747,5	-5	-1,884
749,588	-9,5	-2,322
751,664	-14	-2,783
753,74	-18,5	-3,3
755,858	-18,5	-3,5
757,898	-18,5	-3,497
759,986	-18,5	-3,485
762,026	-15,5	-3,379
764,071	-9	-2,777
766,147	-5,5	-2,254
768,229	-3,5	-1,791
770,311	-2	-1,287
772,351	3	-0,576
774,403	4,5	0
776,473	4,5	-0,002
778,555	4,5	-0,006
780,589	4	-0,059
782,628	1,5	-0,513
784,704	0	-1,048
786,804	-2,5	-1,452
788,826	-8	-2,198
790,86	-14,5	-2,885
792,906	-18,5	-3,5
794,976	-18,5	-3,498
797,076	-18,5	-3,496
799,158	-18,5	-3,483
801,215	-16	-3,385
803,267	-10	-2,876
805,331	-5,5	-2,298
807,377	-3	-1,614
809,477	-2	-1,236
811,565	1,5	-0,66
813,611	4,5	0
815,639	4,5	-0,003
817,702	5	-0,015
819,736	3,5	-0,116
821,794	1	-0,617
823,846	-1	-1,214
825,94	-3,5	-1,653
827,986	-9,5	-2,374
830,038	-16	-3,04
832,078	-18	-3,5
834,105	-18,5	-3,493
836,17	-17	-3,452
838,221	-12	-3,118
840,273	-7	-2,457
842,313	-3,5	-1,754
844,377	-2	-1,271
846,435	1,5	-0,656
848,463	4,5	0
850,509	4,5	-0,003
852,578	4,5	-0,016
854,612	3	-0,122
856,682	1,5	-0,494
858,752	0	-1,09
860,798	-3,5	-1,748
862,856	-9	-2,415
864,878	-17,5	-3,163
866,93	-18	-3,499
869,017	-18,5	-3,497
871,081	-18	-3,483
873,139	-16,5	-3,427
875,203	-12	-3,147
877,249	-6,5	-2,462
879,313	-4,5	-1,942
881,359	-2	-1,267
883,411	0,5	-0,715
885,469	4,5	-0,076
887,569	4,5	-0,001
889,627	4,5	-0,005
891,654	4,5	-0,044
893,754	3,5	-0,085
895,788	1	-0,599
897,834	-1	-1,199
899,934	-2,5	-1,513
902,022	-5	-1,929
904,044	-12,5	-2,685
906,125	-16,5	-3,053
908,193	-18	-3,5
910,295	-18	-3,499
912,383	-18	-3,497
914,435	-18	-3,482
916,451	-14,5	-3,351
918,509	-10	-2,848
920,609	-7	-2,451
922,642	-3,5	-1,808
924,676	-1	-1,052
926,692	4	-0,356
928,726	4,5	-0,001
930,76	4,5	-0,007
932,806	4	-0,056
934,882	2,5	-0,243
936,916	0	-0,973
938,962	-3	-1,572
941,02	-6	-2,107
943,065	-12	-2,661
945,123	-18	-3,299
947,157	-18	-3,499
949,197	-18	-3,49
951,231	-15,5	-3,407
953,295	-11,5	-3,085
955,395	-8,5	-2,708
957,429	-4,5	-2,101
959,444	-2	-1,304
961,478	2	-0,655
963,527	4,5	0
965,564	4,5	-0,002
967,604	5	-0,019
969,674	3,5	-0,11
971,708	1	-0,648
973,73	-1,5	-1,454
975,757	-6,5	-2,143
977,809	-12	-2,75
979,861	-18	-3,402
981,889	-18	-3,498
983,911	-18	-3,478
985,939	-12,5	-3,239
988,027	-9,5	-2,827
990,085	-5	-2,272
992,119	-2,5	-1,554
994,14	0	-0,834
996,168	4,5	-0,096
998,202	4,5	-0,002
1000,218	4,5	-0,024
1002,253	3	-0,169
1004,298	0,5	-0,713
1006,326	-1,5	-1,408
1008,354	-6	-2,075
1010,429	-10,5	-2,626
1012,469	-17	-3,211
1014,485	-18	-3,498
1016,567	-17,5	-3,496
1018,631	-17,5	-3,478
1020,665	-14	-3,307
1022,723	-9,5	-2,805
1024,763	-5	-2,148
1026,778	-1,5	-1,329
1028,83	0,5	-0,728
1030,858	4,5	0
1032,892	5	-0,002
1034,938	4,5	-0,014
1036,972	3,5	-0,125
1038,988	0	-0,818
1041,034	-2	-1,466
1043,056	-7	-2,208
1045,072	-15	-2,963
1047,087	-17,5	-3,499
1049,127	-17,5	-3,495
1051,203	-17	-3,474
1053,255	-13,5	-3,328
1055,271	-7,5	-2,589
1057,365	-5	-2,208
1059,399	-3	-1,569
1061,421	0	-0,829
1063,454	4,5	-0,146
1065,476	4,5	-0,002
1067,576	4,5	-0,005
1069,634	4,5	-0,036
1072,184	4,5	-0,27
1074,218	5	-0,002
1076,258	4,5	-0,009
1078,316	4	-0,057
1080,361	1,5	-0,488
1082,389	-1,5	-1,322
1084,447	-3,5	-1,819
1086,481	-9	-2,488
1088,503	-17,5	-3,31
1090,519	-17,5	-3,498
1092,565	-17,5	-3,481
1094,599	-13,5	-3,31
1096,657	-8	-2,719
1098,721	-5	-2,267
1100,772	-2,5	-1,736
1102,812	-0,5	-1,084
1104,888	2	-0,677
1106,928	4,5	-0,006
1108,956	5	-0,003
1110,99	4,5	-0,028
1113,036	3	-0,186
1115,046	0	-0,96
1117,073	-3,5	-1,692
1119,167	-6	-2,099
1121,183	-13,5	-2,754
1123,217	-17,5	-3,5
1125,257	-17,5	-3,497
1127,291	-17	-3,476
1129,307	-11	-3,173
1131,347	-5,5	-2,431
1133,381	-3	-1,718
1135,408	-0,5	-1,024
1137,46	3,5	-0,491
1139,512	4,5	0
1141,552	5	-0,003
1143,604	4,5	-0,019
1145,638	2,5	-0,195
1147,672	0	-0,839
1149,693	-2,5	-1,553
1151,722	-7,5	-2,227
1153,737	-15,5	-3,056
1155,765	-17,5	-3,499
1157,835	-17,5	-3,497
1159,899	-17,5	-3,482
1161,951	-15	-3,404
1164,003	-9,5	-2,936
1166,031	-4,5	-2,152
1168,053	-2	-1,39
1170,092	1,5	-0,664
1172,126	4,5	-0,041
1174,178	4,5	-0,002
1176,2	4,5	-0,021
1178,228	2	-0,204
1180,262	0	-0,797
1182,296	-2	-1,483
1184,312	-6,5	-2,2
1186,363	-13,5	-2,807
1188,379	-17,5	-3,5
1190,401	-17,5	-3,496
1192,477	-17	-3,48
1194,547	-15	-3,4
1196,563	-8,5	-2,83
1198,639	-6	-2,434
1200,661	-2,5	-1,687
1202,706	-1	-1,092
1204,77	2,5	-0,556
1206,834	4,5	-0,004
1208,85	4,5	-0,003
1210,92	4,5	-0,014
1212,948	3,5	-0,118
1215,012	1	-0,569
1217,07	-0,5	-1,153
1219,11	-3,5	-1,772
1221,143	-9,5	-2,442
1223,166	-17,5	-3,255
1225,241	-17,5	-3,499
1227,269	-17,5	-3,492
1229,321	-16	-3,445
1231,319	-9	-2,883
1233,359	-4,5	-2,157
1235,423	-2	-1,515
1237,462	0	-0,832
1239,496	4,5	-0,154
1241,524	4,5	-0,002
1243,558	4,5	-0,016
1245,592	3,5	-0,133
1247,632	1	-0,606
1249,714	-0,5	-1,069
1251,76	-3	-1,668
1253,794	-8,5	-2,403
1255,816	-16,5	-3,16
1257,861	-17,5	-3,499
1259,895	-17	-3,493
1261,929	-15,5	-3,431
1263,975	-10	-3,005
1265,991	-5	-2,218
1268,037	-2,5	-1,614
1270,071	-0,5	-0,96
1272,099	4,5	-0,478
1274,133	4,5	-0,001
1276,166	4,5	-0,005
1278,254	4,5	-0,019
1280,342	3,5	-0,068
1282,382	1,5	-0,429
1284,416	-0,5	-1,146
1286,468	-3,5	-1,808
1288,61	-4,5	-1,932
1290,655	-9,5	-2,51
1292,719	-15	-2,999
1294,765	-17	-3,5
1296,805	-17,5	-3,498
1298,833	-17	-3,483
1300,879	-14,5	-3,391
1302,913	-9	-2,884
1304,941	-4,5	-2,206
1306,987	-2,5	-1,562
1309,015	0	-0,92
1311,048	4,5	-0,28
1313,094	4,5	-0,001
1315,11	4,5	-0,008
1317,162	4,5	-0,056
1319,208	1,5	-0,446
1321,242	0	-1,01
1323,27	-3	-1,688
1325,297	-8,5	-2,379
1327,325	-16	-3,14
1329,371	-17	-3,499
1331,423	-17	-3,495
1333,475	-16,5	-3,465
1335,509	-11	-3,229
1337,543	-7	-2,562
1339,577	-3	-1,908
1341,622	-1,5	-1,282
1343,657	2	-0,627
1345,69	4,5	-0,012
1347,73	4,5	-0,003
1349,752	4,5	-0,025
1351,804	3	-0,136
1353,838	0,5	-0,671
1355,89	-1	-1,246
1357,906	-4,5	-1,974
1359,988	-8	-2,394
1362,033	-15	-2,999
1364,067	-17	-3,499
1366,071	-17	-3,494
1368,129	-16,5	-3,47
1370,175	-12,5	-3,295
1372,203	-7	-2,599
1374,237	-3,5	-1,997
1376,295	-2	-1,521
1378,329	0	-0,872
1380,362	4,5	-0,169
1382,396	4,5	-0,002
1384,454	4,5	-0,007
1386,47	4	-0,084
1388,516	1,5	-0,465
1390,568	0	-1,035
1392,602	-3	-1,727
1394,635	-8	-2,36
1396,664	-15	-3,049
1398,697	-17	-3,499
1400,701	-17	-3,494
1402,729	-15,5	-3,447
1404,757	-11	-3,094
1406,809	-6,5	-2,551
1408,831	-3	-1,847
1410,853	-1	-1,144
1412,892	3,5	-0,486
1414,92	4,5	-0,001
1416,93	4,5	-0,007
1418,958	4,5	-0,064
1420,986	1,5	-0,503
1423,014	-0,5	-1,197
1425,054	-3,5	-1,8
1427,064	-9	-2,478
1429,08	-16,5	-3,237
1431,131	-17	-3,499
1433,171	-17	-3,495
1435,193	-15	-3,442
1437,245	-11,5	-3,158
1439,261	-5,5	-2,397
1441,283	-3	-1,758
1443,281	0	-0,918
1445,315	4	-0,331
1447,337	4,5	-0,002
1449,364	4,5	-0,013
1451,386	3,5	-0,118
1453,39	0	-0,843
1455,4	-3	-1,723
1457,434	-8,5	-2,479
1459,456	-16,5	-3,277
1461,508	-17	-3,499
1463,536	-17	-3,491
1465,551	-14	-3,38
1467,573	-8	-2,757
1469,613	-4,5	-2,127
1471,653	-2	-1,44
1473,687	1	-0,695
1475,691	4,5	-0,001
1477,707	4,5	-0,005
1479,741	4,5	-0,046
1481,744	1,5	-0,475
1483,754	-0,5	-1,275
1485,783	-4,5	-1,976
1487,81	-12	-2,75
1489,85	-17	-3,486
1491,848	-16,5	-3,496
1493,864	-15,5	-3,46
1495,877	-10,5	-3,068
1497,914	-5,5	-2,503
1499,929	-2,5	-1,677
1501,975	-1	-1,035
1503,991	4	-0,222
1506,001	4,5	-0,002
1508,029	4,5	-0,017
1510,045	2,5	-0,205
1512,061	0	-0,935
1514,071	-3	-1,742
1516,105	-8	-2,418
1518,102	-16,5	-3,345
1520,148	-17	-3,498
1522,158	-16,5	-3,483
1524,193	-13,5	-3,334
1526,196	-6,5	-2,573
1528,236	-3,5	-1,875
1530,258	-1	-1,139
1532,304	2,5	-0,592
1534,332	4,5	-0,001
1536,348	4,5	-0,005
1538,363	4	-0,059
1540,379	1	-0,568
1542,383	-1	-1,376
1544,399	-5,5	-2,126
1546,427	-13,5	-2,874
1548,431	-16,5	-3,499
1550,471	-16,5	-3,496
1552,504	-16	-3,473
1554,532	-12	-3,226
1556,56	-6	-2,528
1558,576	-3	-1,784
1560,616	-1	-1,202
1562,632	3	-0,473
1564,636	4,5	-0,001
1566,652	5	-0,008
1568,656	4	-0,092
1570,677	0,5	-0,676
1572,682	-2	-1,48
1574,685	-7	-2,322
1576,689	-16	-3,197
1578,765	-16,5	-3,5
1580,763	-17	-3,495
1582,779	-15	-3,447
1584,801	-9,5	-3,027
1586,84	-4,5	-2,334
1588,862	-2	-1,598
1590,872	0,5	-0,813
1592,906	4,5	-0,162
1594,91	4,5	-0,003
1596,944	4,5	-0,02
1598,96	2	-0,223
1600,982	0	-0,984
1602,998	-3	-1,692
1605,014	-9	-2,5
1607,018	-16,5	-3,259
1609,057	-16,5	-3,499
1611,109	-16,5	-3,494
1613,143	-15	-3,436
1615,171	-9	-2,948
1617,175	-3,5	-2,047
1619,203	-1,5	-1,315
1621,249	1,5	-0,668
1623,253	4,5	-0,001
1625,268	4,5	-0,005
1627,284	4,5	-0,048
1629,288	1	-0,613
1631,298	-1,5	-1,295
1633,362	-4,5	-1,975
1635,384	-10,5	-2,685
1637,388	-16,5	-3,5
1639,404	-16,5	-3,494
1641,402	-14	-3,374
1643,411	-7	-2,665
1645,421	-3	-1,795
1647,425	0	-0,922
1649,441	4,5	-0,13
1651,439	4,5	-0,003
1653,455	4,5	-0,038
1655,501	2,5	-0,286
1657,505	-0,5	-1,222
1659,52	-4,5	-1,983
1661,536	-12,5	-2,796
1663,54	-16,5	-3,499
1665,592	-16,5	-3,496
1667,626	-15	-3,453
1669,672	-10	-3,126
1671,676	-4,5	-2,227
1673,686	-1,5	-1,362
1675,683	3,5	-0,491
1677,711	4,5	-0,001
1679,727	4,5	-0,006
1681,725	3,5	-0,113
1683,729	0	-0,867
1685,739	-3	-1,747
1687,791	-8,5	-2,433
1689,801	-16,5	-3,269
1691,804	-16,5	-3,498
1693,833	-16,5	-3,481
1695,878	-14	-3,375
1697,882	-6	-2,562
1699,898	-2,5	-1,731
1701,962	-1	-1,212
1703,966	4,5	-0,294
1705,976	4,5	-0,002
1707,98	4,5	-0,02
1709,99	2	-0,255
1711,987	-0,5	-1,154
1714,003	-4,5	-1,946
1716,031	-10,5	-2,641
1718,047	-16,5	-3,498
1720,093	-16,5	-3,498
1722,109	-16	-3,474
1724,221	-15	-3,438
1726,225	-8	-2,811
1728,23	-3,5	-1,996
1730,227	-1	-1,188
1732,242	3,5	-0,416
1734,246	4,5	-0,002
1736,256	4,5	-0,017
1738,26	2	-0,298
1740,288	0	-1,056
1742,31	-3,5	-1,727
1744,325	-10,5	-2,654
1746,342	-16	-3,48
1748,339	-16,5	-3,496
1750,343	-15	-3,448
1752,359	-8,5	-2,897
1754,375	-4	-2,085
1756,385	-1	-1,197
1758,383	4,5	-0,242
1760,399	4,5	-0,002
1762,396	4,5	-0,025
1764,406	1,5	-0,347
1766,404	-0,5	-1,224
1768,42	-3,5	-1,836
1770,424	-10,5	-2,694
1772,464	-16	-3,247
1774,468	-16,5	-3,498
1776,496	-16,5	-3,488
1778,512	-13	-3,372
1780,545	-8	-2,808
1782,567	-4	-2,157
1784,613	-2,5	-1,621
1786,623	0,5	-0,761
1788,657	4,5	-0,158
1790,667	4,5	-0,002
1792,707	4,5	-0,017
1794,711	2	-0,236
1796,715	0	-1,066
1798,754	-3	-1,739
1800,77	-9,5	-2,548
1802,786	-16,5	-3,378
1804,79	-16,5	-3,497
1806,8	-15,5	-3,462
1808,822	-10,5	-3,137
1810,838	-5	-2,382
1812,854	-2	-1,552
1814,863	1,5	-0,703
1816,91	4,5	-0,011
1818,949	4,5	-0,002
1820,965	4,5	-0,02
1822,981	2	-0,275
1824,979	-0,5	-1,186
1826,977	-5,5	-2,122
1829,029	-12	-2,782
1831,033	-16,5	-3,5
1833,03	-16,5	-3,495
1835,058	-15,5	-3,466
1837,068	-9,5	-3,107
1839,078	-5	-2,333
1841,076	-1,5	-1,398
1843,116	0	-0,8
1845,138	4,5	-0,011
1847,142	4,5	-0,004
1849,152	4	-0,048
1851,18	2	-0,334
1853,201	0	-1,15
1855,199	-4,5	-2,026
1857,209	-12	-2,875
1859,219	-16,5	-3,499
1861,223	-16	-3,492
1863,221	-14,5	-3,408
1865,255	-7,5	-2,789
1867,27	-3,5	-1,997
1869,275	-1	-1,165
1871,284	4,5	-0,37
1873,288	4,5	-0,001
1875,298	4,5	-0,018
1877,362	3,5	-0,086
1879,378	0,5	-0,747
1881,376	-2	-1,591
1883,404	-6,5	-2,291
1885,407	-15	-3,188
1887,418	-16,5	-3,499
1889,463	-16	-3,489
1891,467	-14	-3,372
1893,483	-6,5	-2,654
1895,487	-3	-1,812
1897,503	-0,5	-0,984
1899,513	4,5	-0,175
1901,523	4,5	-0,002
1903,534	4,5	-0,027
1905,53	1,5	-0,427
1907,546	-0,5	-1,271
1909,556	-5,5	-2,141
1911,59	-12	-2,882
1913,606	-16	-3,499
1915,616	-16	-3,492
1917,62	-13	-3,383
1919,636	-6,5	-2,676
1921,633	-3	-1,843
1923,662	-0,5	-1,057
1925,665	4,5	-0,148
1927,699	5	-0,002
1929,763	4,5	-0,01
1931,791	4	-0,096
1933,813	0,5	-0,722
1935,829	-1,5	-1,556
1937,88	-5,5	-2,148
1939,884	-14	-3,049
1941,9	-16	-3,499
1943,898	-16	-3,488
1945,908	-13,5	-3,365
1947,906	-6	-2,512
1949,922	-2,5	-1,652
1951,926	1,5	-0,751
1953,966	4,5	-0,126
1955,999	4,5	-0,002
1958,003	4,5	-0,028
1960,025	2,5	-0,252
1962,059	0	-0,948
1964,075	-3	-1,788
1966,079	-9,5	-2,582
1968,095	-16	-3,408
1970,099	-16	-3,497
1972,115	-15	-3,465
1974,118	-9	-3,053
1976,134	-4	-2,287
1978,132	-1,5	-1,405
1980,148	2,5	-0,575
1982,152	4,5	-0,001
1984,168	5	-0,006
1986,172	4	-0,075
1988,176	1	-0,674
1990,185	-1	-1,468
1992,207	-5,5	-2,227
1994,223	-15,5	-3,069
1996,227	-16	-3,499
1998,243	-16	-3,483
2000,259	-12,5	-3,29
2002,287	-6,5	-2,64
2004,298	-2,5	-1,784
2006,319	-1	-1,033
2008,328	4,5	-0,217
2010,339	4,5	-0,002
2012,354	4,5	-0,025
2014,358	1,5	-0,412
2016,368	-0,5	-1,192
2018,372	-5	-2,096
2020,388	-12	-2,847
2022,392	-16	-3,499
2024,408	-15,5	-3,493
2026,412	-13,5	-3,386
2028,409	-7	-2,747
2030,419	-3	-1,88
2032,423	-0,5	-1,001
2034,427	4,5	-0,031
2036,431	4,5	-0,004
2038,447	4,5	-0,042
2040,451	1	-0,556
2042,461	-0,5	-1,336
2044,465	-5	-2,141
2046,474	-14	-2,995
2048,478	-15,5	-3,499
2050,482	-15,5	-3,489
2052,492	-13	-3,367
2054,496	-6,5	-2,586
2056,5	-2,5	-1,776
2058,522	-0,5	-1,004
2060,531	4,5	-0,21
2062,541	4,5	-0,002
2064,539	4,5	-0,021
2066,555	2	-0,286
2068,559	0	-1,11
2070,587	-3,5	-1,8
2072,585	-10	-2,656
2074,589	-16	-3,494
2076,604	-16	-3,496
2078,608	-15	-3,45
2080,63	-8,5	-2,997
2082,634	-4	-2,167
2084,644	-1	-1,323
2086,648	3,5	-0,497
2088,664	4,5	-0,001
2090,668	4,5	-0,009
2092,684	3	-0,127
2094,687	0	-0,927
2096,721	-2	-1,584
2098,767	-6,5	-2,223
2100,783	-15	-3,038
2102,781	-16	-3,499
2104,785	-15,5	-3,487
2106,795	-12	-3,326
2108,793	-5	-2,511
2110,809	-2	-1,735
2112,813	0	-0,893
2114,81	4,5	-0,03
2116,868	4,5	-0,002
2118,884	4,5	-0,018
2120,888	2	-0,219
2122,916	0	-0,908
2124,938	-2,5	-1,617
2126,978	-7	-2,33
2129,012	-13,5	-3,008
2131,033	-15,5	-3,499
2133,049	-16	-3,493
2135,059	-14,5	-3,43
2137,075	-7,5	-2,827
2139,079	-3	-2,006
2141,119	-1	-1,302
2143,123	4	-0,498
2145,121	4,5	-0,001
2147,13	4,5	-0,01
2149,134	3	-0,138
2151,144	0	-0,862
2153,142	-3,5	-1,818
2155,158	-9	-2,552
2157,162	-15,5	-3,452
2159,172	-16	-3,497
2161,176	-15	-3,466
2163,18	-8,5	-2,971
2165,196	-3,5	-2,115
2167,199	-1,5	-1,332
2169,209	3	-0,509
2171,213	4,5	-0,001
2173,217	4,5	-0,008
2175,227	3	-0,142
2177,267	0,5	-0,691
2179,289	-1,5	-1,475
2181,305	-5,5	-2,187
2183,308	-14,5	-3,066
2185,318	-15,5	-3,499
2187,316	-15,5	-3,485
2189,326	-11	-3,317
2191,33	-5,5	-2,52
2193,376	-3	-1,867
2195,38	0	-1,069
2197,39	4,5	-0,262
2199,399	4,5	-0,002
2201,403	4,5	-0,022
2203,413	2	-0,263
2205,417	-0,5	-1,136
2207,427	-3,5	-1,938
2209,431	-11	-2,789
2211,435	-16	-3,499
2213,469	-16	-3,495
2215,473	-14,5	-3,44
2217,483	-7,5	-2,861
2219,486	-3,5	-2,042
2221,49	-1	-1,179
2223,506	3	-0,482
2225,516	4,5	-0,001
2227,532	4,5	-0,012
2229,554	3,5	-0,114
2231,558	0,5	-0,802
2233,556	-2,5	-1,658
2235,571	-6,5	-2,359
2237,593	-15	-3,122
2239,645	-15,5	-3,499
2241,649	-15,5	-3,489
2243,653	-13	-3,37
2245,669	-6	-2,645
2247,673	-2	-1,707
2249,677	0	-0,871
2251,675	4,5	-0,012
2253,679	5	-0,004
2255,676	4	-0,043
2257,68	1	-0,504
2259,69	-1	-1,326
2261,694	-5	-2,153
2263,704	-12,5	-2,974
2265,702	-15,5	-3,499
2267,712	-15,5	-3,489
2269,733	-13,5	-3,403
2271,749	-6	-2,748
2273,753	-2,5	-1,906
2275,787	-1	-1,226
2277,791	4,5	-0,399
2279,789	4,5	-0,001
2281,799	4,5	-0,014
2283,797	2	-0,241
2285,807	0	-1,075
2287,829	-3	-1,832
2289,832	-10	-2,684
2291,848	-15,5	-3,5
2293,852	-15,5	-3,496
2295,868	-14,5	-3,439
2297,872	-8	-2,944
2299,876	-3,5	-2,156
2301,88	-1	-1,24
2303,884	4	-0,35
2305,894	4,5	-0,002
2307,909	4,5	-0,008
2309,919	4	-0,05
2311,923	1,5	-0,483
2313,933	-0,5	-1,124
2315,931	-3,5	-1,858
2317,983	-7	-2,416
2319,987	-15	-3,175
2321,997	-15,5	-3,499
2324	-16	-3,492
2325,998	-15	-3,434
2328,008	-8,5	-2,976
2330,018	-4	-2,134
2332,028	-1,5	-1,386
2334,026	2,5	-0,536
2336,042	4,5	-0,001
2338,046	4,5	-0,006
2340,049	3,5	-0,086
2342,089	1,5	-0,475
2344,087	-1	-1,342
2346,115	-4,5	-2,048
2348,119	-11	-2,842
2350,135	-15,5	-3,499
2352,139	-15,5	-3,494
2354,143	-14,5	-3,421
2356,147	-7,5	-2,77
2358,156	-3	-1,947
2360,166	-1	-1,173
2362,164	4	-0,315
2364,168	4,5	-0,002
2366,184	4,5	-0,017
2368,188	2,5	-0,205
2370,222	0	-0,9
2372,226	-3	-1,762
2374,235	-8	-2,594
2376,239	-15	-3,5
2378,249	-15,5	-3,496
2380,253	-14,5	-3,443
2382,287	-8,5	-2,929
2384,291	-3	-2,034
2386,295	-1	-1,224
2388,293	4,5	-0,336
2390,309	4,5	-0,001
2392,312	4,5	-0,012
2394,323	3	-0,135
2396,338	0	-0,88
2398,342	-2,5	-1,692
2400,353	-7,5	-2,482
2402,356	-15	-3,279
2404,36	-15,5	-3,498
2406,376	-15,5	-3,48
2408,374	-11	-3,22
2410,384	-5	-2,453
2412,405	-3	-1,84
2414,421	-1	-1,17
2416,425	3,5	-0,414
2418,429	4,5	-0,001
2420,439	4,5	-0,012
2422,443	3,5	-0,112
2424,471	0,5	-0,624
2426,487	-1	-1,325
2428,502	-4,5	-2,029
2430,513	-10	-2,765
2432,522	-15,5	-3,497
2434,538	-15	-3,496
2436,536	-15	-3,452
2438,552	-9,5	-3,06
2440,556	-4	-2,181
2442,566	-1,5	-1,322
2444,588	2,5	-0,57
2446,639	4,5	-0,008
2448,643	4,5	-0,004
2450,641	4	-0,048
2452,663	1	-0,471
2454,667	-1	-1,328
2456,683	-4,5	-2,047
2458,687	-11,5	-2,856
2460,721	-15	-3,499
2462,724	-15	-3,493
2464,735	-14,5	-3,42
2466,75	-8	-2,817
2468,754	-3	-1,934
2470,758	-0,5	-1,081
2472,774	3,5	-0,379
2474,778	4,5	-0,001
2476,788	4,5	-0,017
2478,864	3,5	-0,081
2480,867	0,5	-0,705
2482,878	-1,5	-1,527
2484,881	-6,5	-2,369
2486,897	-15	-3,158
2488,902	-15,5	-3,499
2490,905	-15	-3,478
2492,915	-11	-3,241
2494,913	-4,5	-2,315
2496,917	-1,5	-1,442
2498,932	1,5	-0,617
2500,93	4,5	-0,001
2502,934	4,5	-0,008
2504,95	3,5	-0,124
2506,948	0	-0,862
2508,964	-2	-1,697
2510,968	-8	-2,575
2512,972	-15	-3,446
2514,988	-15,5	-3,498
2516,985	-15	-3,472
2518,989	-10	-3,112
2521,005	-4,5	-2,357
2523,003	-1,5	-1,459
2525,007	1	-0,72
2527,017	4,5	-0,001
2529,063	4,5	-0,004
2531,079	4	-0,046
2533,076	1	-0,534
2535,081	-1	-1,322
2537,102	-4,5	-2,069
2539,106	-11,5	-2,938
2541,122	-15	-3,499
2543,126	-15,5	-3,492
2545,124	-12,5	-3,362
2547,14	-6	-2,73
2549,138	-2,5	-1,821
2551,184	-1	-1,201
2553,211	3,5	-0,521
2555,227	4,5	-0,001
2557,225	4,5	-0,006
2559,235	4	-0,049
2561,239	1	-0,451
2563,243	-0,5	-1,245
2565,247	-4,5	-2,081
2567,251	-13,5	-2,971
2569,248	-15	-3,499
2571,264	-15	-3,49
2573,262	-12,5	-3,35
2575,266	-5,5	-2,507
2577,282	-2,5	-1,826
2579,286	-0,5	-1
2581,284	4,5	-0,191
2583,312	4,5	-0,002
2585,315	4,5	-0,021
2587,326	2	-0,234
2589,323	0	-1,046
2591,333	-3,5	-1,847
2593,337	-10,5	-2,662
2595,335	-15	-3,5
2597,351	-15	-3,496
2599,349	-14,5	-3,445
2601,353	-8	-2,937
2603,357	-3	-2,1
2605,36	-1	-1,248
2607,364	3,5	-0,476
2609,374	4,5	-0,001
2611,378	4,5	-0,01
2613,376	2	-0,175
2615,392	0	-0,964
2617,402	-2,5	-1,766
2619,406	-9,5	-2,656
2621,428	-15	-3,421
2623,443	-15	-3,498
2625,448	-15	-3,468
2627,499	-12	-3,336
2629,509	-5,5	-2,532
2631,531	-2	-1,76
2633,559	-0,5	-1,038
2635,563	4,5	-0,191
2637,566	4,5	-0,002
2639,57	4,5	-0,028
2641,574	1,5	-0,357
2643,578	0	-1,178
2645,636	-3	-1,801
2647,64	-8,5	-2,607
2649,656	-15	-3,384
2651,654	-15	-3,497
2653,658	-14,5	-3,463
2655,667	-9	-3,111
2657,671	-4	-2,28
2659,675	-1,5	-1,471
2661,691	2	-0,673
2663,689	4,5	-0,001
2665,705	4,5	-0,004
2667,805	4,5	-0,012
2669,809	3	-0,135
2671,807	0	-0,876
2673,822	-2	-1,636
2675,874	-5,5	-2,228
2677,908	-12	-2,925
2679,912	-15	-3,499
2681,916	-15	-3,494
2683,932	-13,5	-3,44
2685,936	-8	-2,948
2687,94	-4	-2,233
2689,956	-1,5	-1,452
2691,953	3	-0,617
2693,951	4,5	-0,001
2695,967	4,5	-0,005
2697,965	3,5	-0,093
2699,975	1	-0,652
2701,979	-1	-1,386
2703,977	-5	-2,237
2705,993	-12	-2,886
2707,997	-15	-3,499
2709,994	-15	-3,494
2711,998	-13,5	-3,428
2714,002	-7,5	-2,875
2716,006	-3	-2,161
2718,022	-1,5	-1,449
2720,02	1,5	-0,662
2722,024	4,5	-0,001
2724,04	4,5	-0,005
2726,049	4	-0,05
2728,053	1,5	-0,505
2730,111	0	-0,997
2732,109	-3	-1,848
2734,131	-8	-2,524
2736,135	-15	-3,366
2738,145	-15	-3,498
2740,149	-14,5	-3,481
2742,158	-11	-3,318
2744,168	-5	-2,647
2746,172	-2	-1,896
2748,176	-0,5	-1,065
2750,198	4,5	-0,307
2752,202	5	-0,002
2754,206	4,5	-0,017
2756,204	2	-0,238
2758,214	0	-1,038
2760,223	-2,5	-1,775
2762,233	-7,5	-2,54
2764,231	-15	-3,339
2766,235	-15	-3,498
2768,281	-15	-3,485
2770,285	-10,5	-3,329
2772,289	-5,5	-2,659
2774,287	-2,5	-1,866
2776,309	-0,5	-1,11
2778,324	4,5	-0,332
2780,334	4,5	-0,001
2782,338	4,5	-0,012
2784,354	3,5	-0,128
2786,376	1	-0,706
2788,374	-1	-1,422
2790,39	-4,5	-2,226
2792,388	-13,5	-3,05
2794,392	-14,5	-3,499
2796,408	-14,5	-3,491
2798,411	-13	-3,415
2800,415	-6,5	-2,786
2802,419	-3	-1,986
2804,417	-0,5	-1,162
2806,421	4	-0,428
2808,437	4,5	-0,001
2810,447	4,5	-0,008
2812,451	3,5	-0,101
2814,448	0,5	-0,728
2816,452	-1	-1,532
2818,462	-5,5	-2,306
2820,46	-13,5	-3,079
2822,47	-14,5	-3,499
2824,48	-14,5	-3,488
2826,52	-13	-3,437
2828,524	-6,5	-2,9
2830,539	-3	-2,13
2832,543	-0,5	-1,309
2834,553	3	-0,524
2836,563	4,5	-0,001
2838,561	4,5	-0,009
2840,565	3	-0,126
2842,605	1	-0,707
2844,603	-1,5	-1,535
2846,613	-5,5	-2,342
2848,61	-14	-3,238
2850,632	-14,5	-3,498
2852,648	-14	-3,486
2854,646	-10,5	-3,298
2856,65	-5	-2,548
2858,66	-2,5	-1,864
2860,67	-0,5	-1,089
2862,668	4	-0,291
2864,677	4,5	-0,002
2866,675	4,5	-0,022
2868,679	2	-0,243
2870,689	0	-0,988
2872,687	-2,5	-1,817
2874,691	-7	-2,604
2876,695	-13,5	-3,373
2878,699	-13,5	-3,497
2880,709	-13	-3,466
2882,718	-8	-3,102
2884,729	-4	-2,312
2886,738	-1,5	-1,458
2888,742	0	-0,744
2890,746	4,5	-0,006
2892,744	4,5	-0,004
2894,76	4,5	-0,029
2896,764	1,5	-0,372
2898,768	0	-1,068
2900,795	-1,5	-1,689
2902,799	-5	-2,329
2904,803	-12	-3,103
2906,825	-13,5	-3,499
2908,823	-13,5	-3,49
2910,827	-11,5	-3,398
2912,831	-6	-2,796
2914,835	-2,5	-1,997
2916,839	-0,5	-1,198
2918,854	3	-0,538
2920,858	4,5	-0,001
2922,856	4,5	-0,007
2924,872	4	-0,074
2926,882	1	-0,637
2928,892	0	-1,331
2930,908	-3	-2,059
2932,918	-9,5	-2,855
2934,915	-13,5	-3,499
2936,937	-13,5	-3,494
2938,941	-12	-3,418
2940,945	-5,5	-2,751
2942,955	-2,5	-1,976
2944,965	-1	-1,249
2946,963	3,5	-0,382
2948,979	4,5	-0,001
2950,983	4,5	-0,01
2952,986	3,5	-0,11
2955,008	1	-0,675
2957,012	-0,5	-1,48
2959,035	-3	-2,149
2961,05	-10,5	-2,907
2963,054	-13	-3,499
2965,052	-12,5	-3,49
2967,068	-11,5	-3,418
2969,078	-6,5	-2,848
2971,082	-3	-2,118
2973,097	-1	-1,347
2975,095	3,5	-0,496
2977,105	4,5	-0,001
2979,133	4,5	-0,005
2981,203	4,5	-0,02
2983,213	2,5	-0,221
2985,223	0,5	-0,96
2987,227	-1,5	-1,748
2989,243	-5	-2,53
2991,246	-12,5	-3,348
2993,244	-12,5	-3,498
2995,242	-12,5	-3,475
2997,258	-9	-3,284
2999,28	-5	-2,647
3001,296	-2	-1,93
3003,3	-0,5	-1,177
3005,303	3,5	-0,431
3007,307	5	-0,001
3009,323	4,5	-0,014
3011,327	3	-0,178
3013,337	1	-0,868
3015,353	-1	-1,674
3017,363	-4,5	-2,374
3019,367	-11,5	-3,106
3021,371	-13	-3,499
3023,368	-12,5	-3,488
3025,366	-9	-3,344
3027,394	-5,5	-2,755
3029,398	-2	-1,984
3031,402	0	-1,184
3033,406	4	-0,407
3035,416	4,5	-0,001
3037,432	4,5	-0,01
3039,447	3	-0,133
3041,457	0,5	-0,809
3043,461	-1	-1,544
3045,495	-3	-2,15
3047,499	-10	-2,944
3049,503	-12,5	-3,499
3051,513	-12,5	-3,491
3053,517	-10,5	-3,402
3055,515	-5	-2,75
3057,519	-2	-1,97
3059,523	-0,5	-1,136
3061,526	4,5	-0,365
3063,578	4,5	-0,001
3065,6	4,5	-0,005
3067,616	4	-0,043
3069,638	1,5	-0,37
3071,636	0	-1,184
3073,646	-2,5	-1,994
3075,643	-8	-2,84
3077,707	-11	-3,321
3079,717	-11,5	-3,498
3081,716	-11	-3,474
3083,719	-6,5	-3,186
3085,735	-3	-2,421
3087,733	-1	-1,591
3089,743	0,5	-0,886
3091,741	4,5	-0,014
3093,756	4,5	-0,003
3095,755	4	-0,038
3097,752	1,5	-0,48
3099,762	0	-1,286
3101,766	-3	-2,144
3103,77	-8,5	-2,98
3105,786	-10,5	-3,499
3107,784	-10	-3,49
3109,787	-8	-3,407
3111,803	-4	-2,784
3113,808	-1,5	-1,942
3115,829	-0,5	-1,216
3117,857	3,5	-0,521
3119,885	4,5	-0,001
3121,901	4,5	-0,005
3123,905	4	-0,061
3125,909	1,5	-0,56
3127,925	0	-1,326
3129,923	-2,5	-2,24
3131,926	-9	-3,06
3133,972	-10	-3,499
3135,976	-10	-3,494
3137,974	-7,5	-3,41
3139,984	-4	-2,802
3141,988	-2	-1,992
3143,991	-0,5	-1,273
3146,001	4	-0,445
3148,017	4,5	-0,001
3150,021	4,5	-0,012
3152,025	2	-0,185
3154,035	0,5	-0,981
3156,039	-0,5	-1,733
3158,037	-4,5	-2,534
3160,041	-9,5	-3,354
3162,056	-9,5	-3,498
3164,06	-9,5	-3,472
3166,058	-5	-3,077
3168,068	-2,5	-2,281
3170,078	-1	-1,492
3172,082	2,5	-0,64
3174,098	4,5	-0,001
3176,102	4,5	-0,006
3178,106	3,5	-0,082
3180,139	1	-0,636
3182,137	0	-1,479
3184,141	-3	-2,322
3186,151	-9	-3,109
3188,155	-9,5	-3,499
3190,153	-9,5	-3,485
3192,157	-6	-3,298
3194,185	-3	-2,592
3196,195	-1,5	-1,818
3198,216	0	-1,066
3200,22	4,5	-0,159
3202,218	4,5	-0,003
3204,216	4	-0,038
3206,22	1,5	-0,532
3208,218	0	-1,372
3210,216	-2,5	-2,205
3212,232	-7	-2,956
3214,235	-9	-3,499
3216,233	-9,5	-3,492
3218,243	-8	-3,418
3220,247	-4,5	-2,856
3222,251	-1,5	-2,004
3224,261	-0,5	-1,294
3226,265	3,5	-0,425
3228,263	4,5	-0,001
3230,267	4,5	-0,014
3232,276	2,5	-0,155
3234,286	0,5	-0,914
3236,284	-0,5	-1,727
3238,3	-3	-2,413
3240,31	-9	-3,222
3242,314	-9	-3,498
3244,318	-9	-3,472
3246,334	-5,5	-3,166
3248,338	-3	-2,409
3250,342	-1	-1,652
3252,352	0,5	-0,839
3254,355	4,5	0
3256,359	4,5	-0,004
3256,479	4,5	-0,001