File: Cycling_tests/_30perc/_2gap/entrada/_4.txt
Time (s)	Load (N)	Displacement (mm)
46,914	2	-0,01
47,365	-5	-1,231
47,862	-25	-3,441
48,343	-20,5	-2,712
48,792	-1,5	-0,467
49,217	2	-0,001
49,681	-11,5	-2,146
50,112	-26	-3,49
50,629	-13,5	-1,967
51,138	2	-0,014
51,588	-3,5	-1,09
52,062	-22,5	-3,354
52,549	-24	-3,011
53,005	-3	-0,73
53,46	2,5	-0,001
53,941	-11	-2,095
54,396	-26	-3,494
54,882	-14	-2,022
55,356	1,5	-0,041
55,842	-2,5	-0,86
56,268	-18,5	-2,996
56,718	-26	-3,5
57,21	-5,5	-1,103
57,684	2	-0,002
58,189	-9,5	-1,931
58,656	-25,5	-3,489
59,166	-13,5	-2,022
59,658	2	-0,03
60,144	-4	-1,09
60,654	-23,5	-3,41
61,122	-22	-2,884
61,584	-2	-0,574
62,034	2,5	-0,001
62,448	-9	-2,018
62,928	-25,5	-3,492
63,425	-13	-1,971
63,87	1,5	-0,053
64,278	1	-0,49
64,715	-14,5	-2,684
65,19	-25,5	-3,499
65,652	-9	-1,489
66,095	2,5	-0,012
66,545	-4,5	-1,147
67,014	-22,5	-3,378
67,492	-23,5	-2,951
67,932	-3	-0,766
68,429	2,5	-0,001
68,915	-11,5	-2,285
69,414	-25,5	-3,498
69,827	-13	-1,977
70,301	2	-0,034
70,727	-1	-0,716
71,232	-20,5	-3,237
71,681	-25,5	-3,315
72,143	-4,5	-1,002
72,581	2,5	-0,003
73,007	-6	-1,478
73,494	-24,5	-3,467
73,968	-19	-2,585
74,453	0	-0,184
74,879	2	-0,155
75,317	-12	-2,353
75,755	-25,5	-3,496
76,254	-11,5	-1,807
76,751	2	-0,011
77,201	-4	-1,086
77,657	-22	-3,323
78,047	-25,5	-3,483
78,977	2,5	-0,003
79,433	-7	-1,784
79,889	-25	-3,474
80,339	-18,5	-2,566
80,783	-0,5	-0,346
81,274	2	-0,35
81,695	-12,5	-2,456
82,139	-25	-3,497
82,601	-11	-1,762
83,05	2	-0,034
83,488	-1,5	-0,932
83,956	-20	-3,177
84,352	-25	-3,5
84,79	-7,5	-1,391
85,259	2,5	-0,006
85,708	-5,5	-1,436
86,182	-24,5	-3,454
86,656	-18,5	-2,618
87,106	-0,5	-0,374
87,61	2	-0,349
88,048	-13,5	-2,54
88,505	-25	-3,498
88,96	-9,5	-1,706
89,434	2,5	-0,015
89,848	-2,5	-0,95
90,274	-18	-3,076
133,928	0	-0,179
134,335	2,5	-0,058
134,755	-10	-2,266
135,271	-24,5	-3,498
135,728	-10,5	-1,816
136,171	2,5	-0,033
136,555	0,5	-0,582
136,999	-15	-2,743
137,425	-24,5	-3,498
137,888	-8,5	-1,613
138,32	2,5	-0,021
138,769	-2,5	-1,035
139,219	-19,5	-3,232
139,675	-24,5	-3,294
140,113	-4	-0,954
140,611	3	-0,002
141,043	-6,5	-1,685
141,499	-24	-3,471
141,907	-20	-2,826
142,339	-1,5	-0,666
142,753	2,5	-0,002
143,15	-5	-1,577
143,581	-23,5	-3,444
144,073	-17	-2,527
144,553	0,5	-0,21
144,985	2,5	-0,118
145,405	-10	-2,23
145,819	-24,5	-3,492
146,275	-13,5	-2,141
146,743	1,5	-0,085
147,205	0	-0,581
147,607	-13,5	-2,606
148,069	-24,5	-3,498
148,501	-9,5	-1,75
149,449	-3,5	-1,136
149,881	-20	-3,282
150,361	-23,5	-3,131
150,787	-3,5	-0,995
151,255	2,5	-0,002
151,693	-7	-1,745
152,136	-24	-3,478
152,569	-19	-2,698
153,012	-0,5	-0,478
153,486	3	0
153,96	-11	-2,351
154,41	-24	-3,496
154,848	-12,5	-2,052
155,292	2	-0,058
155,76	0	-0,664
156,187	-14,5	-2,784
156,63	-24,5	-3,499
157,062	-8,5	-1,619
157,506	2,5	-0,018
157,939	-2,5	-0,916
158,389	-18	-3,262
158,82	-24	-3,486
159,258	-5,5	-1,278
159,714	3	-0,005
160,17	-5	-1,443
160,632	-23,5	-3,446
161,076	-19,5	-2,789
161,532	-0,5	-0,369
162,007	2,5	-0,019
162,45	-10	-2,263
162,912	-24	-3,497
163,351	-11,5	-2,069
163,808	2	-0,06
164,238	0	-0,636
164,736	-17,5	-3,066
165,186	-24	-3,496
165,624	-5,5	-1,288
166,056	3	-0,006
166,5	-4	-1,226
166,98	-22,5	-3,421
167,445	-21	-2,911
167,874	-2	-0,661
168,33	2,5	-0,001
168,792	-8,5	-1,984
169,242	-24	-3,488
169,722	-13,5	-2,193
170,166	1	-0,108
170,61	2	-0,382
171,078	-14,5	-2,753
171,527	-24	-3,499
172,002	-6,5	-1,442
172,481	3	-0,006
172,931	-5	-1,442
173,387	-22,5	-3,429
173,844	-21	-2,877
174,293	-1,5	-0,657
174,725	3	-0,001
175,169	-7	-1,89
175,601	-24	-3,479
176,058	-18,5	-2,512
338,894	3	-0,011
339,32	-2,5	-1,006
339,74	-15	-3,106
340,184	-22,5	-3,5
340,61	-5	-1,372
341,018	3	-0,015
341,444	-1,5	-0,902
341,864	-15	-3,083
342,296	-22,5	-3,499
342,716	-7	-1,58
343,148	3	-0,02
343,532	1,5	-0,656
343,958	-12,5	-2,786
344,408	-22,5	-3,499
344,815	-8,5	-1,787
345,23	2,5	-0,048
345,644	1,5	-0,482
346,075	-11,5	-2,643
346,501	-22,5	-3,498
346,951	-9	-1,836
347,365	2	-0,057
347,779	2,5	-0,422
348,205	-11	-2,553
348,613	-23	-3,496
349,081	-9	-1,93
349,465	1,5	-0,121
349,879	3	-0,256
350,311	-10	-2,423
350,695	-22,5	-3,493
351,157	-13	-2,252
351,559	0	-0,25
351,955	3	0
352,404	-7,5	-2,127
352,789	-22,5	-3,478
353,197	-18	-2,712
353,611	-1	-0,642
354,013	3,5	-0,002
354,439	-4,5	-1,58
354,853	-20,5	-3,426
355,267	-21,5	-3,002
355,717	-2	-0,847
356,143	3,5	-0,002
356,527	-3,5	-1,339
356,935	-18	-3,332
357,337	-22,5	-3,492
357,769	-4,5	-1,314
358,207	3	-0,008
358,627	-3	-1,11
359,065	-17,5	-3,282
359,503	-22,5	-3,358
359,941	-3,5	-1,157
360,367	3	-0,006
360,774	-3	-1,175
361,188	-16,5	-3,24
361,572	-22,5	-3,499
361,999	-6	-1,579
362,424	3	-0,022
362,832	-0,5	-0,8
363,259	-14,5	-2,936
363,684	-22,5	-3,499
364,116	-7	-1,608
364,542	3	-0,024
364,962	-0,5	-0,78
365,358	-12	-2,76
365,796	-22,5	-3,499
366,234	-7,5	-1,713
366,63	2,5	-0,052
367,044	1	-0,536
367,458	-11,5	-2,611
367,866	-22,5	-3,497
368,298	-11	-2,043
368,724	1,5	-0,088
369,12	3	-0,357
369,57	-10	-2,458
369,966	-22,5	-3,494
370,398	-12	-2,228
370,795	0	-0,259
371,226	3	-0,16
371,646	-7,5	-2,148
372,108	-22,5	-3,494
372,522	-13	-2,332
372,936	0	-0,266
373,35	3	0
373,782	-8	-2,146
374,215	-22,5	-3,49
374,616	-15,5	-2,553
375,03	-0,5	-0,483
375,45	3	-0,001
375,882	-6,5	-1,935
376,302	-22	-3,478
376,704	-17,5	-2,762
377,118	-1,5	-0,692
377,544	3	-0,002
377,957	-4,5	-1,656
493,757	-21,5	-3,499
494,141	-8	-1,878
494,549	2	-0,071
494,933	3	-0,307
495,347	-8	-2,319
495,755	-21,5	-3,492
496,199	-11	-2,231
496,595	1	-0,257
497,015	3,5	-0,004
497,423	-6,5	-2,066
497,819	-21	-3,478
498,203	-18	-2,888
498,599	-1,5	-0,907
498,995	3,5	-0,004
499,391	-3	-1,232
499,775	-14,5	-3,147
500,189	-21,5	-3,5
500,572	-6	-1,703
500,986	3	-0,038
501,395	1	-0,57
501,79	-10,5	-2,55
502,192	-21,5	-3,496
502,607	-11	-2,186
503,008	0,5	-0,206
503,423	3,5	-0,007
503,836	-7	-2,088
504,22	-21,5	-3,476
504,617	-17,5	-2,833
505,03	-1	-0,763
505,414	3	-0,003
505,84	-4	-1,434
506,224	-18	-3,347
506,638	-22	-3,377
507,034	-4,5	-1,386
507,418	3	-0,023
507,826	0	-0,767
508,21	-11,5	-2,687
508,637	-22	-3,498
509,051	-8,5	-1,976
509,434	1,5	-0,14
509,848	3	-0,136
510,244	-7	-2,124
510,647	-21,5	-3,483
511,042	-16	-2,702
511,462	-0,5	-0,602
511,894	3,5	-0,001
512,29	-5	-1,689
512,686	-19,5	-3,442
513,112	-19	-3,002
513,508	-2,5	-1,022
513,904	3,5	-0,006
514,33	-3	-1,218
514,714	-15	-3,139
515,122	-21,5	-3,5
515,535	-5	-1,546
515,92	3	-0,037
516,316	1,5	-0,467
516,724	-9,5	-2,507
517,114	-21,5	-3,494
517,526	-12	-2,298
517,912	0,5	-0,373
518,325	3,5	-0,001
518,722	-5,5	-1,892
519,147	-21	-3,472
519,573	-16	-2,765
519,981	-1	-0,725
520,383	3	-0,002
520,798	-4	-1,479
521,193	-18,5	-3,367
521,589	-21,5	-3,315
522,003	-4	-1,302
522,399	3	-0,014
522,801	-0,5	-0,813
523,197	-12	-2,793
523,593	-21,5	-3,498
523,989	-9	-2,025
524,409	2	-0,095
524,811	3	-0,259
525,207	-7,5	-2,242
525,621	-21,5	-3,49
526,017	-13,5	-2,492
526,419	0	-0,482
526,833	3	-0,001
527,217	-4,5	-1,726
527,625	-20	-3,439
528,022	-21	-3,148
528,453	-2	-0,987
528,838	3	-0,007
529,257	-3	-1,184
529,641	-15	-3,104
530,055	-21,5	-3,499
530,475	-5	-1,537
530,871	3	-0,03
568,633	-9	-2,06
569,047	2	-0,114
569,443	3	-0,148
569,827	-7	-2,077
570,223	-21	-3,479
570,607	-16,5	-2,849
570,996	-1,5	-0,904
571,399	3,5	-0,004
571,795	-3	-1,252
572,178	-15	-3,172
572,593	-21,5	-3,5
572,989	-5	-1,562
573,385	3	-0,032
573,78	1	-0,576
574,176	-10	-2,556
574,572	-21,5	-3,496
574,957	-12,5	-2,393
575,364	0	-0,352
575,778	3,5	0
576,162	-5	-1,837
576,577	-20,5	-3,467
576,972	-17,5	-2,898
577,368	-1,5	-0,917
577,782	3,5	-0,004
578,19	-3	-1,318
578,574	-15,5	-3,234
578,988	-21,5	-3,5
579,39	-5	-1,525
579,786	3	-0,028
580,2	0	-0,681
580,602	-11	-2,691
581,034	-21,5	-3,498
581,448	-7,5	-1,9
581,832	2	-0,11
582,228	3	-0,154
582,612	-6,5	-2,082
583,002	-21	-3,477
583,392	-16,5	-2,818
583,8	-1	-0,778
584,184	3	-0,004
584,58	-3	-1,316
584,988	-17,5	-3,317
585,39	-21,5	-3,497
585,786	-4,5	-1,507
586,182	3	-0,027
586,578	0,5	-0,641
586,98	-10,5	-2,651
587,382	-21	-3,497
587,778	-10,5	-2,192
588,162	0	-0,278
588,557	3	-0,001
588,941	-5	-1,791
589,343	-20	-3,454
589,733	-19,5	-3,06
590,117	-3	-1,14
590,514	3,5	-0,009
590,904	-2	-1,016
591,293	-13,5	-2,966
591,677	-21,5	-3,499
592,073	-8,5	-1,972
592,457	1,5	-0,138
592,853	3	-0,026
593,249	-6,5	-2,033
593,639	-21	-3,474
594,041	-17	-2,817
594,437	-1,5	-0,838
594,821	3	-0,003
595,235	-3	-1,326
595,667	-18,5	-3,378
596,075	-21,5	-3,298
596,459	-4	-1,372
596,874	3	-0,013
597,257	-0,5	-0,795
597,653	-11,5	-2,776
598,049	-21,5	-3,498
598,439	-10	-2,142
598,823	0,5	-0,235
599,237	3	0
599,621	-5	-1,888
600,035	-21	-3,472
600,431	-17	-2,868
600,833	-1,5	-0,857
601,229	3	-0,004
601,613	-3	-1,247
602,021	-16	-3,273
602,405	-21,5	-3,5
602,801	-6	-1,639
603,215	3	-0,03
603,599	1,5	-0,533
604,013	-10,5	-2,603
604,421	-21,5	-3,497
604,841	-9,5	-2,067
605,237	1,5	-0,152
605,656	3	-0,158
606,055	-7	-2,144
606,461	-21	-3,486
606,844	-15	-2,734
607,24	-1	-0,753
607,642	3	-0,002
608,038	-3,5	-1,42
608,429	-17,5	-3,325
608,824	-21	-3,492
609,22	-5	-1,493
609,622	3	-0,024
610,018	0,5	-0,655
610,402	-9,5	-2,575
610,816	-21	-3,497
611,212	-10	-2,186
611,596	0,5	-0,269
612,023	3,5	-0,018
612,406	-6	-1,957
612,802	-20,5	-3,469
613,198	-18	-2,914
613,594	-1,5	-0,934
614,008	3,5	-0,004
614,426	-3,5	-1,403
614,812	-16,5	-3,296
615,22	-21	-3,445
615,616	-4,5	-1,437
616,03	3,5	-0,016
616,426	-0,5	-0,765
616,822	-11	-2,745
617,206	-21	-3,497
617,632	-8,5	-2,043
618,028	1,5	-0,14
618,424	3,5	-0,096
618,82	-6	-2,091
619,24	-21	-3,486
619,69	-12	-2,38
620,092	0	-0,37
620,488	3,5	-0,001
620,902	-5	-1,808
621,304	-20,5	-3,456
621,7	-19	-2,99
622,084	-2	-1,07
622,498	3	-0,006
622,912	-2,5	-1,231
623,308	-15,5	-3,211
623,697	-21	-3,499
624,081	-6	-1,692
624,477	3	-0,048
624,862	3	-0,379
625,27	-9	-2,425
625,653	-21	-3,491
626,073	-12,5	-2,397
626,487	0,5	-0,327
626,883	3,5	-0,001
627,279	-4,5	-1,779
627,663	-20	-3,437
628,077	-19,5	-3,038
628,461	-2,5	-1,127
628,875	3,5	-0,006
629,289	-3	-1,266
629,673	-15	-3,191
630,069	-21	-3,499
630,471	-5,5	-1,623
630,867	3	-0,039
631,293	0	-0,668
631,695	-10,5	-2,678
632,085	-21	-3,497
632,499	-9,5	-2,107
632,895	1	-0,171
633,291	3	-0,015
633,723	-7,5	-2,196
634,107	-20,5	-3,482
634,521	-15	-2,657
634,905	-0,5	-0,732
635,301	3,5	-0,002
635,727	-3,5	-1,542
636,111	-18	-3,368
636,531	-21	-3,271
636,933	-3	-1,262
637,347	3,5	-0,009
637,755	-2	-0,99
638,139	-12	-2,91
638,553	-21	-3,499
638,937	-7,5	-1,906
639,345	2,5	-0,078
639,729	3	-0,19
640,143	-8	-2,27
640,526	-21	-3,486
640,923	-13,5	-2,598
641,306	-0,5	-0,683
641,714	3,5	-0,002
642,098	-3	-1,392
642,506	-18	-3,356
642,89	-21	-3,456
643,286	-4	-1,444
681,204	-21	-3,498
681,6	-7,5	-1,942
681,984	1,5	-0,126
682,38	3,5	-0,101
682,764	-6	-2,035
683,172	-20,5	-3,48
683,586	-14,5	-2,682
683,982	-0,5	-0,701
684,366	3,5	-0,003
684,78	-3,5	-1,456
685,189	-18	-3,382
685,572	-21	-3,348
685,968	-3,5	-1,358
686,364	3	-0,017
686,76	-0,5	-0,749
687,144	-10,5	-2,67
687,558	-21	-3,498
687,966	-9	-2,063
688,374	1,5	-0,126
688,796	2,5	-0,31
689,196	-7,5	-2,291
689,58	-21	-3,487
690	-13	-2,548
690,384	-0,5	-0,628
690,78	3,5	-0,002
691,212	-4	-1,61
691,596	-18	-3,395
691,992	-20,5	-3,312
692,388	-3,5	-1,326
692,784	3,5	-0,015
693,167	0	-0,71
693,564	-11	-2,69
693,947	-21	-3,497
694,355	-10	-2,15
694,758	1	-0,182
695,154	3	-0,005
695,555	-6	-2,033
695,951	-20	-3,476
696,347	-19,5	-2,797
696,749	-1	-0,787
697,145	3	-0,003
697,541	-3	-1,32
697,961	-18	-3,35
698,345	-21	-3,483
698,729	-5	-1,541
699,149	3	-0,021
699,545	-1	-0,764
699,929	-10,5	-2,685
700,343	-21	-3,498
700,727	-9,5	-2,152
701,117	0,5	-0,22
701,519	3	0
701,915	-5,5	-1,94
702,299	-20,5	-3,462
702,713	-17	-2,865
703,097	-1,5	-0,945
703,505	3	-0,004
703,949	-4	-1,492
704,345	-18	-3,372
704,741	-21	-3,342
705,137	-3	-1,347
705,521	3	-0,02
705,923	0	-0,702
706,325	-11	-2,712
706,721	-21	-3,498
707,105	-9,5	-2,171
707,519	1,5	-0,161
707,903	3	0
708,311	-6	-2,005
708,707	-20,5	-3,474
709,103	-17,5	-2,857
709,487	-1,5	-0,937
709,895	3	-0,004
710,279	-3	-1,169
710,687	-15,5	-3,209
711,077	-21	-3,499
711,473	-5,5	-1,661
711,874	2,5	-0,04
712,27	1,5	-0,47
712,672	-9	-2,48
713,086	-21	-3,496
713,482	-10,5	-2,323
713,866	0	-0,403
714,262	3,5	-0,001
714,646	-4,5	-1,68
715,058	-19,5	-3,44
715,438	-21	-3,173
715,84	-2,5	-1,166
716,236	3,5	-0,009
716,65	-2,5	-1,056
717,034	-13	-2,977
717,442	-21	-3,499
717,844	-6,5	-1,795
718,24	2,5	-0,066
718,624	2,5	-0,307
719,038	-9	-2,379
719,422	-21	-3,49
719,818	-12,5	-2,505
720,202	0	-0,585
720,61	3	-0,001
720,994	-4	-1,521
721,42	-18	-3,426
721,804	-21	-3,198
722,212	-3	-1,221
722,602	3	-0,012
722,986	-1	-0,811
723,37	-11	-2,736
723,766	-21	-3,498
724,18	-8,5	-2,051
724,564	1,5	-0,176
724,96	3	0
725,38	-7	-2,143
725,776	-20,5	-3,479
726,16	-16	-2,838
726,58	-0,5	-0,738
726,976	3	-0,003
727,36	-3	-1,355
727,774	-17	-3,352
728,158	-21	-3,444
728,547	-4	-1,467
728,95	3,5	-0,02
729,471	-3	-1,31
729,856	-15,5	-3,232
730,252	-21	-3,5
730,636	-6	-1,692
731,038	3	-0,044
731,434	1,5	-0,534
731,847	-10	-2,605
732,231	-21	-3,495
732,639	-10	-2,261
733,054	1	-0,21
733,437	3	0
733,845	-6	-1,984
734,229	-20	-3,472
734,637	-18,5	-2,872
735,021	-1,5	-0,952
735,436	3,5	-0,004
735,819	-3	-1,246
736,215	-15	-3,229
736,617	-21	-3,5
737,013	-5	-1,568
737,397	3	-0,039
737,805	0,5	-0,607
738,189	-9,5	-2,528
738,585	-21	-3,495
738,996	-11	-2,3
739,377	0,5	-0,385
739,761	3,5	-0,001
740,169	-4,5	-1,768
740,553	-18	-3,435
740,967	-19	-3,063
741,363	-2	-1,083
741,765	3,5	-0,007
742,161	-2,5	-1,091
742,557	-14,5	-3,071
742,971	-20,5	-3,499
743,355	-6,5	-1,777
743,751	2,5	-0,063
744,153	2	-0,472
744,549	-7,5	-2,392
744,933	-20,5	-3,49
745,347	-12	-2,395
745,754	0	-0,416
746,138	3,5	-0,001
746,552	-4,5	-1,768
746,936	-18,5	-3,434
747,344	-20,5	-3,083
747,76	-1,5	-1,012
748,142	3,5	-0,007
748,526	-1,5	-0,973
748,923	-13	-2,953
749,306	-20,5	-3,499
749,738	-6	-1,762
750,122	2,5	-0,073
750,536	2,5	-0,433
750,92	-8,5	-2,353
751,304	-20,5	-3,489
751,718	-12	-2,44
752,132	0	-0,371
752,516	3	-0,001
752,924	-5	-1,804
753,338	-19,5	-3,463
753,722	-19	-3,012
754,13	-1,5	-0,971
754,514	3,5	-0,006
754,898	-2	-1,026
755,306	-14	-3,066
830,14	-20	-3,388
830,554	-3	-1,303
830,962	3,5	-0,012
831,346	-0,5	-0,866
831,742	-11	-2,841
832,126	-20	-3,498
832,51	-10	-2,15
832,9	1	-0,218
833,283	3,5	0
833,68	-5	-1,952
834,064	-19,5	-3,463
834,471	-17,5	-2,953
834,873	-1,5	-0,938
835,269	3,5	-0,005
835,653	-2	-1,257
836,067	-14,5	-3,238
836,451	-20	-3,499
836,847	-6	-1,683
837,231	3	-0,056
837,615	2,5	-0,461
838,029	-9	-2,532
838,431	-20	-3,496
838,827	-11,5	-2,332
839,229	0,5	-0,266
839,643	3,5	-0,001
840,051	-5,5	-2,047
840,435	-19,5	-3,472
840,831	-16,5	-2,897
841,215	-1,5	-0,977
841,599	3,5	-0,006
842,013	-2,5	-1,206
842,397	-13,5	-3,127
842,793	-20,5	-3,499
843,195	-5,5	-1,656
843,591	3	-0,042
843,976	2,5	-0,469
844,371	-8,5	-2,45
844,767	-20,5	-3,494
845,163	-12	-2,407
845,559	0	-0,427
845,955	3,5	-0,001
846,351	-4,5	-1,727
846,747	-18,5	-3,439
847,149	-19,5	-3,132
847,545	-3	-1,152
847,929	3,5	-0,01
848,325	-1,5	-1,156
848,727	-13	-3,076
849,123	-20	-3,499
849,543	-5,5	-1,655
849,981	3	-0,023
850,389	-0,5	-0,789
850,785	-10,5	-2,769
851,181	-20,5	-3,498
851,564	-9,5	-2,131
851,949	1	-0,187
852,344	3	0
852,734	-5,5	-1,94
853,136	-19,5	-3,471
853,55	-15,5	-2,808
853,934	-1,5	-0,888
854,366	3,5	-0,002
854,75	-2,5	-1,26
855,146	-14,5	-3,236
855,53	-20	-3,499
855,926	-6	-1,612
856,322	3	-0,046
856,706	3	-0,348
857,114	-7,5	-2,329
857,498	-20	-3,488
857,894	-14	-2,598
858,278	-0,5	-0,678
858,674	3,5	-0,002
859,076	-3	-1,384
859,472	-16	-3,322
859,856	-20,5	-3,5
860,24	-5	-1,573
860,648	3	-0,033
861,032	1,5	-0,536
861,428	-9	-2,516
861,812	-20	-3,494
862,22	-11,5	-2,367
862,622	0	-0,357
863,018	3	-0,001
863,402	-4,5	-1,801
863,798	-19,5	-3,451
864,182	-20	-3,121
864,578	-3	-1,145
864,962	3	-0,01
865,364	-1,5	-0,974
865,76	-12	-2,894
866,174	-20,5	-3,499
866,558	-7,5	-1,947
866,942	1,5	-0,128
867,356	3	-0,294
867,74	-6,5	-2,215
868,13	-20	-3,485
868,514	-15	-2,715
868,903	-1	-0,765
869,288	3,5	-0,003
869,695	-3	-1,393
870,08	-15	-3,291
870,476	-20	-3,5
870,86	-5	-1,597
871,297	3	-0,019
871,681	0	-0,781
872,083	-10,5	-2,791
872,485	-20	-3,498
872,893	-7,5	-1,923
873,277	1,5	-0,118
873,673	3	-0,205
874,075	-6,5	-2,219
874,471	-20	-3,486
874,855	-16,5	-2,76
875,252	-1	-0,78
875,635	3	-0,004
876,043	-3	-1,421
876,427	-16	-3,341
876,835	-20,5	-3,467
877,219	-4,5	-1,518
877,603	3	-0,034
877,999	1	-0,616
878,401	-9,5	-2,681
878,797	-20	-3,496
879,181	-11	-2,327
879,577	0,5	-0,348
879,961	3,5	-0,001
880,357	-4,5	-1,832
880,759	-19,5	-3,46
881,173	-16,5	-2,873
881,575	-1	-0,862
881,971	3,5	-0,004
882,355	-2,5	-1,242
882,769	-15	-3,29
883,153	-20	-3,5
883,543	-5,5	-1,649
883,945	3	-0,038
884,371	0	-0,684
884,785	-10	-2,755
885,199	-20	-3,498
885,582	-8,5	-2,062
885,985	1,5	-0,138
886,381	3,5	-0,208
886,782	-6,5	-2,223
887,179	-20	-3,486
887,563	-15,5	-2,737
887,958	-1	-0,756
888,342	3	-0,002
888,768	-3,5	-1,498
889,164	-16,5	-3,375
889,579	-20	-3,272
889,962	-3,5	-1,277
890,376	3	-0,012
890,79	-2	-1,045
891,174	-12	-2,964
891,558	-20,5	-3,499
891,954	-7,5	-1,973
892,338	1,5	-0,138
892,734	3	-0,18
893,136	-6,5	-2,195
893,55	-20	-3,488
893,934	-14	-2,631
894,33	-0,5	-0,651
894,714	3	-0,002
895,104	-3,5	-1,513
895,5	-17	-3,382
895,884	-20	-3,462
896,292	-3,5	-1,394
896,677	3	-0,023
897,072	-0,5	-0,758
897,474	-10,5	-2,768
897,87	-20	-3,498
898,254	-9,5	-2,196
898,662	1	-0,19
899,058	3	-0,015
899,454	-5,5	-2,014
899,838	-19,5	-3,47
900,234	-16,5	-2,897
900,618	-1,5	-0,977
901,044	3,5	-0,004
901,44	-3	-1,343
901,836	-15	-3,297
902,22	-20	-3,5
902,616	-5,5	-1,653
903	2,5	-0,051
903,414	1,5	-0,531
903,809	-8,5	-2,506
904,205	-20	-3,494
904,59	-11,5	-2,431
904,986	0	-0,451
905,369	3	-0,001
905,753	-3,5	-1,6
906,179	-19	-3,441
906,575	-19,5	-3,114
906,978	-2,5	-1,102
907,373	3	-0,008
907,757	-1,5	-1,008
908,171	-13,5	-3,078
908,567	-20,5	-3,499
908,963	-6,5	-1,799
909,365	2,5	-0,061
909,761	3	-0,346
910,145	-7	-2,267
910,529	-20	-3,486
910,937	-13,5	-2,546
911,321	-0,5	-0,627
911,717	3,5	-0,002
912,101	-3	-1,446
912,515	-17	-3,388
912,911	-20	-3,353
913,307	-3	-1,362
913,691	3	-0,021
914,117	-0,5	-0,855
914,531	-12	-2,925
914,915	-20	-3,498
915,305	-7,5	-2,042
915,701	1,5	-0,14
916,085	3	-0,009
916,493	-5,5	-2,066
916,877	-19,5	-3,474
917,285	-15,5	-2,828
917,669	-1	-0,908
918,065	3	-0,004
918,449	-2,5	-1,175
918,857	-14,5	-3,214
919,265	-20	-3,5
919,661	-5	-1,612
920,045	3	-0,046
920,429	2	-0,458
920,824	-8,5	-2,438
921,226	-20	-3,494
921,634	-11,5	-2,387
922,018	0	-0,466
922,415	3,5	-0,001
922,798	-4	-1,681
923,194	-18,5	-3,429
923,578	-20	-3,261
923,962	-3,5	-1,338
924,358	3	-0,016
924,785	-1,5	-0,994
925,186	-13	-2,999
925,582	-20	-3,499
925,984	-6	-1,833
926,38	2,5	-0,074
926,764	3,5	-0,234
927,172	-7	-2,276
927,568	-20	-3,488
927,952	-14	-2,626
928,348	0	-0,646
928,732	3,5	-0,002
929,128	-3	-1,426
929,512	-15	-3,314
929,908	-20	-3,5
930,31	-4	-1,495
930,695	3	-0,032
931,114	0	-0,739
931,498	-9,5	-2,659
931,894	-20	-3,497
932,278	-10,5	-2,272
932,686	0,5	-0,242
933,07	3,5	-0,001
933,466	-5	-1,893
933,868	-19,5	-3,466
934,264	-17	-2,97
934,654	-1,5	-1,015
935,05	3	-0,006
935,434	-2	-1,063
935,842	-12	-3,103
936,226	-20	-3,499
936,61	-7	-1,915
937,006	2	-0,095
937,39	3,5	-0,166
937,786	-6	-2,153
938,187	-19,5	-3,485
938,584	-14,5	-2,726
938,967	-0,5	-0,805
939,363	3,5	-0,003
939,747	-2,5	-1,277
940,143	-14,5	-3,25
940,539	-20	-3,5
940,923	-5	-1,712
941,337	3	-0,039
1052,499	-19,5	-3,499
1052,907	-6	-1,783
1053,291	2	-0,077
1053,687	2,5	-0,359
1054,071	-7	-2,28
1054,455	-19,5	-3,486
1054,845	-14	-2,667
1055,229	-1	-0,747
1055,613	3,5	-0,003
1056,009	-3	-1,39
1056,393	-15	-3,29
1056,789	-20	-3,5
1057,173	-5	-1,617
1057,557	3	-0,046
1057,953	2	-0,476
1058,355	-9	-2,497
1058,751	-19,5	-3,494
1059,153	-11,5	-2,392
1059,549	0	-0,412
1059,933	3	-0,001
1060,317	-4	-1,725
1060,725	-18,5	-3,438
1061,132	-19	-3,084
1061,516	-2	-1,163
1061,901	3,5	-0,011
1062,296	-2	-0,984
1062,681	-12	-2,899
1063,076	-20	-3,498
1063,461	-7,5	-2,017
1063,844	1,5	-0,158
1064,252	3	-0,126
1064,636	-5,5	-2,057
1065,044	-19,5	-3,482
1065,428	-15	-2,778
1065,812	-1	-0,858
1066,226	3,5	-0,003
1066,61	-3	-1,438
1067,006	-16	-3,349
1067,39	-19,5	-3,5
1067,792	-4,5	-1,501
1068,176	3	-0,032
1068,56	1	-0,532
1068,956	-9	-2,513
1069,34	-20	-3,493
1069,736	-11	-2,456
1070,138	0	-0,446
1070,534	3,5	-0,001
1070,918	-4	-1,685
1071,32	-18,5	-3,447
1071,728	-19,5	-3,162
1072,112	-3	-1,241
1072,52	3,5	-0,01
1072,904	-1,5	-0,956
1073,312	-12	-2,997
1073,696	-19,5	-3,499
1074,092	-7,5	-1,963
1074,476	2	-0,134
1074,878	3	-0,192
1075,262	-6	-2,118
1075,646	-19,5	-3,478
1076,042	-15	-2,852
1076,444	-1	-0,842
1076,84	3,5	-0,004
1077,224	-2,5	-1,29
1077,608	-14	-3,21
1078,022	-19,5	-3,5
1078,405	-5	-1,617
1078,801	3	-0,038
1079,185	2	-0,445
1079,569	-7,5	-2,366
1079,959	-19,5	-3,49
1080,343	-13,5	-2,623
1080,74	0	-0,643
1081,135	3	-0,002
1081,531	-3,5	-1,612
1081,927	-17,5	-3,412
1082,311	-19,5	-3,37
1082,708	-3,5	-1,378
1083,103	3	-0,015
1083,499	-0,5	-0,797
1083,883	-10	-2,717
1084,279	-19,5	-3,498
1084,681	-8	-2,088
1085,065	1	-0,198
1085,461	3	0
1085,846	-5	-1,91
1086,235	-19	-3,461
1086,619	-18	-3,053
1087,003	-2,5	-1,132
1087,399	3,5	-0,008
1087,801	-1,5	-0,967
1088,203	-12	-2,977
1088,588	-19,5	-3,499
1088,983	-7	-1,976
1089,367	1,5	-0,139
1089,751	3,5	-0,114
1090,153	-5,5	-2,137
1090,537	-19,5	-3,479
1090,921	-15	-2,814
1091,329	-0,5	-0,773
1091,713	3,5	-0,004
1092,109	-3	-1,364
1092,511	-15	-3,327
1092,907	-19,5	-3,471
1093,291	-4,5	-1,526
1093,675	3	-0,034
1094,071	1	-0,615
1094,485	-9,5	-2,686
1094,869	-19,5	-3,496
1095,253	-10,5	-2,318
1095,66	0,5	-0,279
1096,044	3	0
1096,44	-5	-1,912
1096,836	-19	-3,465
1097,22	-16,5	-2,978
1097,622	-1	-0,968
1098,006	3,5	-0,006
1098,39	-2,5	-1,169
1098,786	-13	-3,089
1099,176	-19,5	-3,499
1099,572	-5	-1,782
1099,956	2,5	-0,076
1100,34	3	-0,293
1100,736	-6,5	-2,275
1101,12	-19,5	-3,486
1101,528	-13	-2,592
1101,912	0	-0,672
1102,296	3,5	-0,003
1102,686	-3	-1,452
1103,088	-16	-3,368
1103,484	-19,5	-3,433
1103,868	-4	-1,488
1104,252	3	-0,031
1104,648	1	-0,591
1105,032	-9	-2,517
1105,44	-19,5	-3,496
1105,824	-10,5	-2,357
1106,208	0	-0,437
1106,604	3,5	-0,001
1106,988	-4	-1,722
1107,402	-18,5	-3,452
1107,786	-18,5	-3,058
1108,182	-2	-1,078
1108,578	3,5	-0,007
1108,962	-1,5	-1
1109,352	-12,5	-2,95
1109,736	-19,5	-3,498
1110,132	-6,5	-1,97
1110,534	2	-0,103
1110,918	3,5	-0,232
1111,314	-6	-2,155
1111,716	-19,5	-3,485
1112,112	-13	-2,667
1112,514	0	-0,656
1112,91	3,5	-0,002
1113,305	-3,5	-1,566
1113,701	-17	-3,398
1114,085	-19,5	-3,342
1114,499	-2,5	-1,263
1114,895	3,5	-0,012
1115,28	-1	-0,9
1115,688	-10,5	-2,866
1116,095	-19,5	-3,499
1116,479	-7	-2,002
1116,863	1,5	-0,151
1117,259	3	-0,136
1117,643	-5,5	-2,066
1118,039	-19,5	-3,478
1118,423	-15,5	-2,873
1118,825	-1	-0,862
1119,221	3,5	-0,004
1119,605	-2,5	-1,211
1120,013	-15	-3,245
1120,397	-19,5	-3,499
1120,817	-4	-1,545
1121,201	3	-0,037
1121,585	2	-0,575
1121,999	-8,5	-2,555
1122,407	-19,5	-3,496
1122,791	-10	-2,367
1123,175	0	-0,452
1123,571	3,5	-0,001
1123,955	-3,5	-1,617
1124,339	-17	-3,396
1124,735	-19,5	-3,295
1125,119	-3	-1,37
1125,533	3,5	-0,013
1125,917	-1	-0,872
1126,314	-11,5	-2,852
1126,715	-19,5	-3,498
1127,099	-7	-2,013
1127,495	2	-0,13
1127,879	3,5	-0,052
1128,275	-5,5	-2,056
1128,659	-19	-3,473
1129,075	-14,5	-2,762
1129,499	0	-0,657
1129,889	3	-0,002
1130,285	-3	-1,436
1130,68	-16	-3,348
1131,088	-19,5	-3,394
1131,473	-3	-1,457
1131,887	3	-0,018
1132,289	-0,5	-0,817
1132,684	-10,5	-2,797
1133,068	-19,5	-3,498
1133,452	-8	-2,146
1133,848	1	-0,197
1134,232	3,5	-0,001
1134,616	-4,5	-1,809
1135,012	-19	-3,456
1135,396	-18	-3,092
1135,78	-2	-1,166
1136,17	3,5	-0,01
1136,554	-1	-0,877
1136,938	-10,5	-2,797
1137,334	-19,5	-3,498
1137,73	-8	-2,055
1138,126	1,5	-0,15
1138,51	3	0
1138,894	-5	-1,911
1139,308	-19,5	-3,474
1139,692	-15,5	-2,931
1140,088	-1,5	-0,951
1140,472	3	-0,006
1140,856	-2	-1,072
1141,246	-12,5	-3,022
1141,63	-19,5	-3,499
1142,014	-6,5	-1,933
1142,41	2	-0,102
1142,806	3,5	-0,25
1143,214	-7	-2,293
1143,598	-19,5	-3,487
1144,012	-12	-2,57
1144,396	0	-0,649
1144,78	3,5	-0,002
1145,194	-3,5	-1,56
1145,578	-16,5	-3,375
1145,974	-19,5	-3,387
1146,376	-3	-1,362
1146,772	3	-0,017
1147,156	0	-0,722
1147,558	-10	-2,742
1147,966	-19,5	-3,498
1148,35	-8	-2,152
1148,746	1	-0,164
1149,142	3,5	0
1149,55	-5,5	-2,011
1149,934	-18	-3,468
1150,347	-18	-2,848
1150,731	-1	-0,928
1151,115	3,5	-0,005
1151,511	-2	-1,14
1151,895	-13	-3,06
1152,309	-19,5	-3,499
1152,699	-5	-1,731
1153,113	3	-0,041
1153,497	2	-0,432
1153,881	-7,5	-2,357
1154,295	-19,5	-3,493
1154,691	-10	-2,373
1155,081	0	-0,423
1155,465	3,5	-0,001
1155,861	-3,5	-1,614
1156,245	-15	-3,394
1156,629	-19,5	-3,394
1157,025	-3,5	-1,409
1157,409	3,5	-0,018
1157,823	-0,5	-0,812
1158,207	-9	-2,732
1158,591	-19,5	-3,497
1158,987	-9	-2,194
1159,371	1	-0,281
1159,767	3	-0,001
1160,169	-5	-1,915
1160,553	-19	-3,458
1160,949	-17,5	-3,06
1161,333	-1,5	-1,14
1161,729	3,5	-0,008
1162,113	-1,5	-0,991
1162,497	-11,5	-2,916
1162,893	-19,5	-3,499
1163,289	-6	-1,967
1163,673	1,5	-0,138
1164,069	3,5	-0,144
1164,483	-6	-2,223
1164,867	-19,5	-3,484
1165,281	-13	-2,608
1165,665	-0,5	-0,683
1166,067	3,5	-0,002
1166,463	-3	-1,582
1166,859	-16,5	-3,383
1167,255	-19,5	-3,348
1167,65	-3	-1,359
1168,035	3	-0,017
1168,431	-0,5	-0,73
1168,832	-10,5	-2,74
1169,247	-19,5	-3,498
1169,63	-8	-2,144
1170,032	1,5	-0,178
1170,416	3	0
1170,8	-5	-1,948
1171,196	-19	-3,462
1171,58	-17,5	-3,018
1171,976	-1,5	-1,043
1172,378	3	-0,006
1172,762	-2	-1,102
1173,17	-14	-3,142
1173,554	-19,5	-3,499
1173,968	-4,5	-1,663
1174,352	3	-0,053
1174,748	1	-0,49
1175,132	-7,5	-2,41
1175,516	-19,5	-3,491
1175,918	-12	-2,535
1176,302	-0,5	-0,62
1176,698	3	-0,002
1177,082	-3	-1,474
1177,484	-16,5	-3,373
1177,88	-19,5	-3,332
1178,264	-3,5	-1,406
1178,66	3	-0,02
1179,044	0	-0,762
1179,452	-10,5	-2,802
1179,836	-19,5	-3,498
1180,22	-9	-2,222
1180,628	1	-0,213
1181,012	3,5	0
1181,396	-5	-1,906
1181,804	-19	-3,471
1182,188	-16	-2,988
1182,584	-1,5	-1,008
1182,968	3,5	-0,007
1183,364	-2	-1,169
1183,766	-13,5	-3,179
1184,149	-19,5	-3,499
1184,545	-5,5	-1,688
1184,947	3	-0,044
1185,343	1,5	-0,529
1185,727	-8,5	-2,449
1186,141	-19,5	-3,495
1186,525	-11	-2,393
1186,909	0	-0,468
1187,311	3,5	-0,001
1187,695	-3,5	-1,612
1188,103	-17,5	-3,427
1188,499	-19	-3,184
1188,901	-2,5	-1,172
1189,315	3,5	-0,007
1189,729	-2,5	-1,208
1190,131	-14,5	-3,217
1190,527	-19,5	-3,5
1190,911	-4,5	-1,692
1191,325	3	-0,036
1191,709	0,5	-0,524
1192,093	-8	-2,444
1192,49	-19,5	-3,493
1192,873	-11,5	-2,404
1193,287	0	-0,419
1193,671	3,5	-0,001
1194,055	-3,5	-1,605
1194,451	-17,5	-3,41
1194,835	-19,5	-3,336
1195,219	-3,5	-1,408
1195,615	3	-0,02
1195,999	0	-0,729
1196,413	-10,5	-2,8
1196,815	-19,5	-3,498
1197,211	-7	-2,043
1197,595	1,5	-0,172
1197,979	3,5	-0,04
1198,375	-5,5	-2,046
1198,771	-19	-3,477
1199,167	-14	-2,768
1199,551	-0,5	-0,848
3167,078	-2,5	-2,252
3167,462	-9	-3,485
3167,846	-4,5	-2,734
3168,23	0,5	-0,814
3168,62	3,5	-0,004
3169,004	-1	-1,19
3169,388	-5	-3,11
3169,784	-9	-3,499
3170,168	-1	-1,742
3170,552	2,5	-0,068
3170,936	3,5	-0,232
3171,332	-2	-2,214
3171,716	-9	-3,483
3172,1	-5	-2,757
3172,484	0	-0,837
3172,88	3	-0,004
3173,264	-0,5	-1,181
3173,648	-5	-3,101
3174,032	-9	-3,499
3174,428	-1	-1,846
3174,812	2	-0,093
3175,196	3	-0,084
3175,58	-1,5	-2,023
3175,976	-9	-3,475
3176,36	-6	-2,867
3176,744	0	-0,947
3177,128	3,5	-0,006
3177,518	-0,5	-1,033
3177,902	-4,5	-2,952
3178,286	-9	-3,498
3178,682	-1,5	-1,996
3179,065	1,5	-0,15
3179,45	3	0
3179,833	-1,5	-1,82
3180,217	-8	-3,444
3180,613	-8,5	-3,124
3180,997	0	-1,203
3181,382	3	-0,012
3181,777	0	-0,842
3182,161	-4	-2,763
3182,545	-9,5	-3,497
3182,929	-2	-2,192
3183,325	1,5	-0,227
3183,709	3,5	-0,001
3184,093	-1,5	-1,737
3184,477	-8	-3,428
3184,873	-9	-3,212
3185,257	0	-1,285
3185,659	3	-0,012
3186,043	0	-0,737
3186,439	-3,5	-2,718
3186,823	-9,5	-3,497
3187,207	-2,5	-2,291
3187,603	0,5	-0,316
3187,987	3	-0,001
3188,371	-1,5	-1,665
3188,755	-8	-3,41
3189,163	-8,5	-3,205
3189,547	0	-1,282
3189,931	3	-0,016
3190,315	0,5	-0,676
3190,711	-3	-2,656
3191,095	-9	-3,496
3191,479	-3	-2,362
3191,863	1	-0,437
3192,253	3	-0,001
3192,637	-1	-1,538
3193,021	-7,5	-3,366
3193,405	-9	-3,495
3193,795	-0,5	-1,531
3194,179	3	-0,035
3194,563	2	-0,347
3194,953	-3	-2,358
3195,349	-9	-3,489
3195,733	-4	-2,586
3196,116	0	-0,671
3196,5	3,5	-0,003
3196,609	3,5	0