File: ensaios_Ciclicos/_newS/_2G60/entrada/_2.txt
Time (s)	Load (N)	Displacement (mm)
0	-0,2	-0,031
2,219	-0,1	-0,467
4,354	-0,24	-0,43
6,49	0,24	-0,428
8,632	0,24	-0,548
10,768	-0,36	-0,596
12,916	-1,06	-0,714
15,052	-1,54	-0,767
17,2	-1,12	-0,8
19,336	-1,4	-0,845
21,477	-1,38	-0,838
23,619	-1,82	-0,963
25,755	-2,4	-1,032
27,897	-2,42	-1,093
30,033	-3,22	-1,208
32,169	-2,82	-1,23
34,311	-3,08	-1,27
36,459	-3,86	-1,466
38,6	-4,12	-1,581
40,743	-4,68	-1,706
42,884	-4,46	-1,703
45,026	-4,44	-1,69
47,174	-4,2	-1,707
49,31	-5,2	-1,776
51,452	-4,96	-1,778
53,594	-4,88	-1,86
55,736	-5,36	-1,926
57,877	-5,98	-2,041
60,025	-5,66	-2,078
62,167	-6	-2,108
64,303	-6,36	-2,193
66,439	-6,82	-2,229
68,587	-7,3	-2,421
70,723	-7,76	-2,462
72,871	-8,7	-2,612
75,006	-7,62	-2,648
77,142	-8,62	-2,665
79,278	-9,38	-2,747
81,42	-9,54	-2,831
83,562	-9,76	-2,873
85,71	-9,88	-2,85
87,846	-8,98	-2,833
89,993	-10,3	-2,898
92,129	-10,14	-2,907
94,271	-10,02	-2,958
96,419	-10,98	-3,113
98,561	-11,5	-3,175
100,709	-12,42	-3,284
102,845	-12,3	-3,303
104,987	-12,58	-3,299
107,122	-12,54	-3,32
109,276	-13,9	-3,395
111,424	-14,22	-3,433
113,572	-14,74	-3,44
115,714	-14,62	-3,445
117,856	-14,44	-3,449
120,01	-14,76	-3,463
122,152	-15,08	-3,468
124,305	-15,1	-3,474
126,447	-15,14	-3,474
128,589	-15,18	-3,483
130,731	-15,02	-3,485
132,873	-15,18	-3,486
135,027	-15,22	-3,49
137,181	-15,2	-3,492
139,329	-15,24	-3,494
141,476	-15,24	-3,494
143,618	-15,24	-3,495
145,761	-15,24	-3,496
147,896	-15,2	-3,497
150,038	-15,18	-3,497
152,18	-15,16	-3,498
154,328	-15,14	-3,498
156,482	-15,1	-3,499
158,624	-15,08	-3,499
160,766	-15,06	-3,499
162,901	-15,04	-3,499
165,055	-15,02	-3,498
167,203	-14,9	-3,3
169,345	-14,56	-3,182
171,487	-13,52	-3,039
173,623	-11,98	-2,88
175,771	-11,58	-2,752
177,918	-10,98	-2,66
180,072	-10,34	-2,54
182,226	-8,76	-2,36
184,374	-7,6	-2,151
186,516	-7,52	-2,085
188,676	-5,94	-1,844
190,83	-4,54	-1,553
192,984	-3,44	-1,388
195,138	-3,5	-1,279
197,285	-2,7	-1,187
199,439	-1,9	-1,034
201,587	-1,78	-0,98
203,741	-1,22	-0,822
205,895	-1,08	-0,734
208,049	-0,52	-0,553
210,203	0,32	-0,368
212,344	0,48	-0,344
214,492	0,66	-0,226
216,646	1,38	-0,143
218,794	1,62	-0,081
220,948	2,18	-0,046
223,096	2,18	-0,035
225,244	2,36	-0,027
227,392	2,4	-0,022
229,546	2,42	-0,018
231,699	2,46	-0,013
233,841	2,48	-0,012
235,995	2,48	-0,012
238,143	2,5	-0,008
240,291	2,5	-0,005
242,439	2,52	-0,005
244,593	2,52	-0,002
246,747	2,5	-0,002
248,9	2,52	-0,002
251,048	2,52	-0,001
253,208	2,52	-0,001
255,356	2,48	-0,001
257,504	2,48	0
259,652	2,5	-0,003
261,8	2,48	-0,102
263,941	2,48	-0,052
266,095	2,48	-0,169
268,243	2,48	-0,198
270,391	2,5	-0,249
272,533	2,5	-0,257
274,681	2,12	-0,31
276,841	1,96	-0,376
278,989	1,84	-0,545
281,142	0,72	-0,698
283,284	0,56	-0,786
285,426	0,22	-0,805
287,568	-0,18	-0,893
289,716	-1,08	-1,052
291,864	-1,66	-1,218
294,006	-1,74	-1,302
296,16	-2,44	-1,459
298,314	-3,14	-1,665
300,461	-3,52	-1,772
302,609	-3,54	-1,879
304,763	-4,3	-1,984
306,911	-4,6	-2,106
309,071	-5,24	-2,302
311,219	-6,54	-2,472
313,373	-7,44	-2,599
315,515	-7,54	-2,714
317,668	-8,46	-2,898
319,81	-8,9	-2,948
321,964	-10,14	-3,176
324,118	-10,62	-3,28
326,272	-12,18	-3,361
328,42	-12,8	-3,405
330,562	-12,84	-3,425
332,722	-13,54	-3,452
334,869	-13,56	-3,466
337,018	-13,98	-3,476
339,171	-14,16	-3,487
341,325	-14,16	-3,492
343,473	-14,2	-3,494
345,627	-14,2	-3,496
347,781	-14,2	-3,498
349,923	-14,18	-3,498
352,064	-14,16	-3,499
354,212	-14,14	-3,499
356,372	-14,12	-3,5
358,52	-14,12	-3,479
360,686	-14,1	-3,23
362,84	-13,26	-3,113
365	-11,1	-2,823
367,148	-10,74	-2,705
369,296	-9,18	-2,556
371,443	-7,74	-2,235
373,603	-6	-1,963
375,751	-5,26	-1,813
377,899	-4,02	-1,578
380,047	-3,74	-1,407
382,201	-2,22	-1,121
384,349	-1,28	-0,96
386,502	-0,86	-0,718
388,65	0,32	-0,45
390,792	0,7	-0,266
392,946	1,22	-0,164
395,094	2,24	-0,072
397,254	2,6	-0,028
399,396	2,72	-0,015
401,55	2,76	-0,009
403,698	2,76	-0,004
405,852	2,74	-0,002
408,005	2,76	-0,001
410,159	2,72	-0,2
412,301	2,4	-0,401
414,449	1,42	-0,58
416,591	0,42	-0,742
418,739	0,54	-0,865
420,893	-0,74	-1,066
423,041	-1,56	-1,316
425,206	-2,9	-1,656
427,354	-3,48	-1,844
429,508	-3,98	-2,087
431,656	-5,22	-2,295
433,804	-6,18	-2,503
435,964	-7,78	-2,787
438,118	-9,1	-3,052
440,265	-10,78	-3,24
442,413	-11,48	-3,364
444,567	-12,92	-3,432
446,715	-13,16	-3,462
448,875	-13,68	-3,482
451,023	-13,8	-3,492
453,171	-13,86	-3,496
455,325	-13,86	-3,498
457,478	-13,84	-3,499
459,626	-13,8	-3,486
461,768	-13,78	-3,321
463,923	-13,26	-3,168
466,07	-12,44	-2,932
468,224	-9,72	-2,709
470,366	-8,94	-2,536
472,52	-7,78	-2,314
474,673	-6,04	-2,065
476,821	-4,68	-1,804
478,975	-3,48	-1,513
481,123	-2,78	-1,359
483,277	-1,78	-1,061
485,425	-0,68	-0,831
487,585	-0,14	-0,622
489,739	0,32	-0,443
491,892	1,02	-0,233
494,046	2,08	-0,099
496,194	2,58	-0,045
498,348	2,78	-0,022
500,514	2,86	-0,01
502,662	2,88	-0,004
504,804	2,88	-0,003
506,958	2,86	-0,001
509,105	2,84	0
511,265	2,8	-0,223
513,413	2,3	-0,425
515,561	1,24	-0,627
517,721	0,32	-0,853
519,869	0,18	-0,881
522,017	-0,5	-1,051
524,165	-1,2	-1,25
526,324	-1,7	-1,373
528,472	-2,42	-1,613
530,632	-2,84	-1,781
532,792	-3,94	-2,058
534,94	-5,02	-2,235
537,094	-5,42	-2,427
539,242	-7	-2,661
541,396	-7,66	-2,835
543,55	-8,78	-3,047
545,697	-10,2	-3,196
547,845	-10,38	-3,316
549,999	-11,8	-3,378
552,153	-12,5	-3,43
554,307	-12,86	-3,451
556,461	-13,32	-3,472
558,609	-13,44	-3,485
560,769	-13,5	-3,489
562,916	-13,54	-3,491
565,076	-13,58	-3,495
567,236	-13,56	-3,496
569,384	-13,58	-3,497
571,538	-13,56	-3,498
573,692	-13,54	-3,499
575,852	-13,54	-3,499
578,012	-13,52	-3,5
580,171	-13,5	-3,5
582,325	-13,5	-3,5
584,491	-13,48	-3,5
586,645	-13,48	-3,433
588,805	-13,32	-3,184
590,965	-11,64	-2,94
593,125	-10,84	-2,762
595,273	-9,96	-2,672
597,426	-9,66	-2,589
599,586	-8,08	-2,4
601,734	-6,98	-2,303
603,882	-6,44	-2,206
606,036	-6,08	-2,031
608,184	-5,5	-1,914
610,332	-4,8	-1,79
612,492	-3,72	-1,592
614,639	-3,14	-1,544
616,799	-3,06	-1,483
618,953	-2,34	-1,356
621,095	-2,52	-1,343
623,243	-2,26	-1,267
625,403	-1,7	-1,133
627,551	-1,68	-1,03
629,693	-0,92	-0,933
631,852	-0,5	-0,825
634,012	-0,1	-0,657
636,16	0,28	-0,528
638,308	0,68	-0,394
640,462	1,36	-0,204
642,61	1,46	-0,184
644,758	1,76	-0,138
646,912	1,92	-0,144
649,077	2,5	-0,07
651,249	2,56	-0,045
653,403	2,78	-0,033
655,557	2,88	-0,026
657,711	2,94	-0,018
659,859	2,92	-0,016
662,007	2,94	-0,015
664,161	2,98	-0,01
666,314	3	-0,006
668,468	3	-0,004
670,622	2,98	-0,002
672,782	2,98	-0,001
674,93	2,98	-0,001
677,084	2,96	-0,001
679,238	2,96	0
681,392	2,96	-0,184
683,545	2,64	-0,373
685,687	2,52	-0,391
687,841	1,64	-0,598
689,989	0,96	-0,783
692,143	0,42	-0,87
694,291	-0,48	-1,041
696,439	-0,82	-1,206
698,587	-1,3	-1,393
700,741	-2,2	-1,6
702,888	-2,58	-1,722
705,048	-3,48	-1,925
707,196	-3,5	-2,001
709,344	-4,12	-2,188
711,504	-5,16	-2,408
713,658	-6,04	-2,593
715,806	-6,36	-2,679
717,954	-7,58	-2,893
720,101	-8,18	-3,022
722,255	-9,06	-3,116
724,409	-9,88	-3,263
726,557	-10,02	-3,283
728,711	-10,76	-3,322
730,859	-11,06	-3,384
733,019	-11,92	-3,422
735,167	-12,14	-3,45
737,326	-12,88	-3,471
739,474	-13,02	-3,481
741,622	-13,06	-3,488
743,776	-13,14	-3,492
745,936	-13,18	-3,496
748,078	-13,16	-3,497
750,226	-13,16	-3,498
752,374	-13,14	-3,499
754,527	-13,14	-3,499
756,669	-13,12	-3,5
758,817	-13,1	-3,421
760,965	-13,08	-3,402
763,119	-12,78	-3,181
765,267	-11,18	-2,999
767,415	-10,52	-2,827
769,569	-8,66	-2,631
771,728	-7,6	-2,416
773,876	-7,26	-2,361
776,03	-6,78	-2,257
778,184	-5,66	-2,114
780,338	-5,04	-1,956
782,486	-4,22	-1,796
784,64	-3,72	-1,648
786,794	-2,88	-1,506
788,941	-2,3	-1,337
791,089	-1,52	-1,138
793,237	-1,26	-0,972
795,397	-0,36	-0,72
797,545	0,42	-0,555
799,699	1,06	-0,296
801,841	1,48	-0,152
804,001	2,26	-0,08
806,161	2,82	-0,048
808,314	2,88	-0,027
810,462	3,04	-0,014
812,61	3,06	-0,01
814,77	3,08	-0,006
816,918	3,08	-0,004
819,072	3,06	-0,002
821,232	3,06	-0,001
823,392	3,04	-0,006
825,545	3,02	-0,194
827,699	2,5	-0,442
829,847	1,72	-0,581
831,995	0,84	-0,81
834,137	0,38	-0,967
836,285	-0,78	-1,149
838,433	-1,12	-1,341
840,581	-1,54	-1,401
842,728	-2	-1,545
844,876	-2,18	-1,684
847,024	-3	-1,855
849,178	-4,14	-2,125
851,332	-4,12	-2,252
853,486	-5,2	-2,436
855,628	-5,84	-2,534
857,782	-6,68	-2,73
859,941	-8,14	-2,961
862,083	-8,44	-3,07
864,231	-9,6	-3,269
866,379	-10,92	-3,351
868,533	-11,24	-3,413
870,681	-11,9	-3,425
872,829	-12,28	-3,452
874,983	-12,52	-3,47
877,136	-12,8	-3,484
879,278	-12,86	-3,486
881,432	-12,84	-3,49
883,58	-12,86	-3,492
885,734	-12,86	-3,492
887,894	-12,88	-3,493
890,048	-12,92	-3,495
892,202	-12,9	-3,496
894,349	-12,88	-3,496
896,503	-12,9	-3,497
898,639	-12,9	-3,498
900,799	-12,88	-3,498
902,941	-12,88	-3,498
905,101	-12,88	-3,498
907,255	-12,88	-3,499
909,409	-12,84	-3,499
911,562	-12,82	-3,497
913,722	-12,8	-3,32
915,87	-12,8	-3,191
918,012	-12,66	-3,086
920,16	-12,28	-3,112
922,314	-10,58	-2,943
924,456	-9,52	-2,818
926,604	-9,88	-2,759
928,745	-8,76	-2,613
930,893	-7,12	-2,441
933,053	-6,66	-2,28
935,207	-5,62	-2,068
937,361	-4,62	-1,936
939,509	-4,18	-1,824
941,657	-3,78	-1,719
943,817	-2,9	-1,566
945,959	-2,6	-1,44
948,112	-1,9	-1,304
950,26	-1,56	-1,186
952,408	-1,38	-1,036
954,556	-0,74	-0,93
956,704	-0,48	-0,828
958,852	-0,2	-0,684
961	0,66	-0,449
963,154	1,28	-0,316
965,307	1,8	-0,165
967,455	2,68	-0,062
969,603	2,94	-0,034
971,751	3,06	-0,02
973,905	3,12	-0,012
976,065	3,14	-0,006
978,209	3,16	-0,003
980,349	3,14	-0,002
982,502	3,14	-0,001
984,656	3,12	0
986,81	3,08	-0,138
988,964	3,08	-0,341
991,112	2,04	-0,536
993,254	1,38	-0,655
995,408	0,84	-0,866
997,556	0,08	-0,958
999,715	-0,24	-1,056
1001,863	-0,42	-1,173
1004,023	-1,12	-1,382
1006,177	-1,7	-1,563
1008,319	-2,2	-1,725
1010,479	-3,16	-1,982
1012,633	-3,54	-2,102
1014,787	-3,9	-2,234
1016,94	-4,28	-2,266
1019,088	-4,88	-2,394
1021,236	-5,48	-2,548
1023,378	-5,86	-2,61
1025,538	-6,88	-2,857
1027,686	-7,82	-3,038
1029,828	-8,94	-3,195
1031,988	-10,9	-3,375
1034,135	-11,6	-3,427
1036,289	-11,92	-3,455
1038,437	-12,12	-3,463
1040,591	-12,3	-3,477
1042,757	-12,48	-3,486
1044,923	-12,54	-3,49
1047,065	-12,6	-3,494
1049,207	-12,6	-3,495
1051,36	-12,58	-3,496
1053,508	-12,6	-3,498
1055,662	-12,58	-3,499
1057,816	-12,56	-3,499
1059,97	-12,56	-3,499
1062,124	-12,54	-3,5
1064,278	-12,54	-3,5
1066,426	-12,52	-3,471
1068,574	-12,5	-3,337
1070,721	-12,5	-3,197
1072,875	-12,44	-3,154
1075,023	-12,14	-3,121
1077,171	-11,9	-3,164
1079,313	-11,94	-3,096
1081,473	-10,56	-2,93
1083,627	-11,16	-2,866
1085,775	-9,88	-2,811
1087,922	-9,44	-2,742
1090,07	-8,8	-2,645
1092,218	-8,8	-2,613
1094,366	-7,9	-2,585
1096,532	-6,94	-2,425
1098,686	-7,2	-2,41
1100,828	-6,34	-2,36
1102,976	-6,9	-2,375
1105,135	-6,52	-2,341
1107,289	-6,82	-2,343
1109,437	-6,88	-2,364
1111,585	-6,32	-2,357
1113,733	-6,48	-2,265
1115,893	-5,4	-2,109
1118,053	-4,24	-1,894
1120,207	-3,7	-1,843
1122,354	-3,74	-1,756
1124,496	-3,64	-1,699
1126,65	-3,04	-1,67
1128,81	-3,38	-1,71
1130,952	-2,88	-1,605
1133,112	-2,38	-1,493
1135,266	-2	-1,371
1137,414	-2,48	-1,493
1139,567	-2,06	-1,435
1141,721	-2,02	-1,399
1143,869	-1,86	-1,334
1146,011	-1,8	-1,333
1148,165	-1,78	-1,312
1150,307	-1,56	-1,26
1152,461	-0,96	-1,124
1154,609	-1,14	-1,155
1156,763	-1,24	-1,179
1158,916	-0,98	-1,046
1161,07	-0,7	-0,934
1163,224	-0,94	-0,968
1165,378	-0,26	-0,895
1167,52	-0,18	-0,87
1169,668	-0,28	-0,818
1171,822	-0,04	-0,793
1173,975	0,1	-0,693
1176,129	0,32	-0,598
1178,271	0,62	-0,516
1180,419	0,78	-0,441
1182,573	0,88	-0,378
1184,727	1,5	-0,248
1186,869	1,62	-0,23
1189,017	2,14	-0,173
1191,17	2	-0,134
1193,324	2,4	-0,103
1195,478	2,68	-0,085
1197,626	2,28	-0,1
1199,78	2,82	-0,058
1201,934	2,94	-0,038
1204,088	3,08	-0,028
1206,242	3,06	-0,025
1208,383	3,12	-0,024
1210,531	3,12	-0,022
1212,685	3,14	-0,019
1214,839	3,2	-0,013
1216,981	3,18	-0,015
1219,129	3,2	-0,012
1221,283	3,2	-0,011
1223,437	3,24	-0,008
1225,591	3,22	-0,009
1227,744	3,22	-0,007
1229,886	3,22	-0,006
1232,04	3,22	-0,003
1234,194	3,22	-0,002
1236,354	3,22	-0,002
1238,49	3,22	-0,002
1240,644	3,22	-0,003
1242,792	3,22	-0,002
1244,939	3,22	-0,002
1247,087	3,22	-0,001
1249,235	3,2	-0,001
1251,389	3,2	0
1253,537	3,18	-0,011
1255,691	3,18	-0,114
1257,839	3,16	-0,138
1259,993	3,16	-0,218
1262,152	2,76	-0,26
1264,306	2,82	-0,345
1266,448	2,78	-0,337
1268,614	2,84	-0,354
1270,762	2,6	-0,406
1272,916	2,68	-0,422
1275,064	2,18	-0,605
1277,212	1,7	-0,637
1279,359	1,06	-0,771
1281,519	0,82	-0,842
1283,673	0,22	-0,958
1285,821	0,24	-1,017
1287,969	0,48	-0,981
1290,117	0,46	-0,912
1292,265	0,66	-0,923
1294,413	0,14	-0,967
1296,566	0,32	-1,014
1298,72	0	-1,082
1300,868	0,16	-1,077
1303,01	-0,14	-1,074
1305,158	-0,18	-1,112
1307,312	-0,38	-1,111
1309,46	-0,4	-1,155
1311,614	-0,78	-1,266
1313,773	-0,76	-1,299
1315,945	-0,96	-1,452
1318,093	-1,14	-1,506
1320,241	-1,14	-1,517
1322,395	-1,34	-1,542
1324,549	-1,58	-1,606
1326,697	-1,26	-1,564
1328,839	-1,2	-1,513
1330,998	-1,44	-1,605
1333,158	-1,52	-1,667
1335,312	-1,62	-1,681
1337,448	-1,52	-1,606
1339,602	-1,22	-1,546
1341,756	-1,48	-1,646
1343,916	-1,72	-1,712
1346,064	-1,58	-1,729
1348,212	-1,96	-1,793
1350,359	-1,82	-1,779
1352,519	-2,06	-1,903
1354,667	-2,56	-2,042
1356,815	-2,58	-2,053
1358,957	-2,58	-2,093
1361,117	-2,72	-2,143
1363,271	-3,4	-2,334
1365,413	-3,36	-2,336
1367,572	-3,52	-2,376
1369,726	-4,04	-2,518
1371,88	-4,02	-2,581
1374,028	-4,36	-2,623
1376,176	-4,34	-2,652
1378,324	-3,98	-2,61
1380,478	-4,58	-2,742
1382,626	-5,02	-2,791
1384,767	-4,64	-2,713
1386,921	-4,64	-2,798
1389,075	-5,18	-2,902
1391,223	-4,66	-2,912
1393,383	-5,32	-2,975
1395,531	-5,98	-3,077
1397,691	-6,72	-3,238
1399,839	-6,4	-3,287
1401,998	-7,04	-3,351
1404,14	-7,04	-3,35
1406,288	-7,7	-3,39
1408,43	-7,56	-3,378
1410,578	-7,36	-3,41
1412,726	-8,5	-3,446
1414,868	-8,54	-3,452
1417,016	-8,62	-3,461
1419,164	-8,8	-3,47
1421,317	-8,78	-3,477
1423,471	-8,9	-3,486
1425,613	-8,88	-3,483
1427,761	-8,86	-3,485
1429,909	-8,9	-3,485
1432,057	-8,86	-3,486
1434,205	-8,88	-3,486
1436,364	-8,88	-3,487
1438,518	-8,82	-3,49
1440,666	-8,88	-3,491
1442,814	-8,84	-3,492
1444,968	-8,86	-3,494
1447,122	-8,86	-3,495
1449,264	-8,84	-3,494
1451,412	-8,84	-3,495
1453,572	-8,82	-3,496
1455,719	-8,82	-3,497
1457,867	-8,78	-3,498
1460,009	-8,78	-3,497
1462,163	-8,76	-3,498
1464,317	-8,74	-3,499
1466,459	-8,7	-3,499
1468,607	-8,64	-3,499
1470,761	-8,6	-3,5
1472,903	-8,58	-3,36
1475,056	-8,56	-3,295
1477,204	-8,56	-3,196
1479,346	-8,1	-3,106
1481,494	-7,42	-2,936
1483,648	-6,08	-2,783
1485,804	-5,72	-2,752
1487,944	-5,54	-2,717
1490,097	-5,46	-2,639
1492,245	-5,12	-2,626
1494,399	-4,54	-2,549
1496,541	-4,34	-2,498
1498,689	-4,4	-2,47
1500,849	-3,64	-2,308
1502,991	-3,6	-2,295
1505,139	-2,82	-2,168
1507,293	-3	-2,152
1509,44	-2,38	-2,047
1511,582	-2,46	-2,058
1513,754	-2,18	-1,917
1515,914	-1,78	-1,797
1518,056	-1,4	-1,757
1520,204	-1,48	-1,756
1522,364	-1,24	-1,668
1524,511	-1,1	-1,563
1526,659	-0,8	-1,462
1528,807	-0,7	-1,418
1530,961	-0,46	-1,343
1533,103	-0,5	-1,346
1535,251	-0,4	-1,256
1537,399	-0,02	-1,127
1539,559	0,26	-0,976
1541,706	0,42	-0,848
1543,869	0,7	-0,697
1546,02	0,84	-0,656
1548,168	0,82	-0,624
1550,316	1,24	-0,483
1552,47	0,8	-0,441
1554,612	1,22	-0,403
1556,772	1,14	-0,28
1558,925	1,6	-0,226
1561,073	1,94	-0,18
1563,221	1,84	-0,154
1565,369	1,88	-0,153
1567,523	2,2	-0,11
1569,671	2,2	-0,096
1571,819	2,22	-0,114
1573,973	2,24	-0,121
1576,127	2,16	-0,11
1578,274	2,5	-0,07
1580,44	2,7	-0,054
1582,594	2,84	-0,041
1584,754	2,94	-0,027
1586,896	2,96	-0,023
1589,044	2,92	-0,026
1591,198	2,9	-0,029
1593,346	2,86	-0,033
1595,499	2,8	-0,041
1597,653	2,78	-0,049
1599,801	2,74	-0,048
1601,943	2,7	-0,052
1604,091	2,86	-0,04
1606,245	2,86	-0,031
1608,393	2,9	-0,031
1610,541	2,88	-0,032
1612,694	2,88	-0,036
1614,842	2,8	-0,04
1616,996	2,94	-0,026
1619,15	2,96	-0,022
1621,304	2,92	-0,024
1623,458	2,96	-0,021
1625,612	3	-0,015
1627,774	3,02	-0,012
1629,919	3	-0,013
1632,079	3,02	-0,009
1634,239	3,04	-0,006
1636,387	3,02	-0,004
1638,541	3,02	-0,004
1640,701	3,04	-0,002
1642,849	3,02	-0,001
1644,997	3,04	-0,001
1647,15	3	0
1649,298	3	0
1651,446	3,02	0
1653,6	3	-0,022
1655,754	2,98	-0,052
1657,908	2,98	-0,12
1660,056	2,98	-0,084
1662,204	2,98	-0,058
1664,357	2,98	-0,219
1666,493	2,96	-0,218
1668,641	2,98	-0,285
1670,789	2,72	-0,285
1672,937	2,96	-0,192
1675,079	2,96	-0,132
1677,233	2,96	-0,149
1679,387	2,96	-0,181
1681,534	2,98	-0,255
1683,682	2,96	-0,233
1685,836	2,98	-0,259
1687,984	2,96	-0,26
1690,138	2,76	-0,325
1692,286	2,66	-0,32
1694,428	2,32	-0,392
1696,582	2,18	-0,503
1698,736	1,92	-0,524
1700,883	2,1	-0,541
1703,031	1,28	-0,642
1705,191	0,66	-0,798
1707,339	0,74	-0,863
1709,505	0,14	-0,981
1711,647	0,32	-0,978
1713,801	0,56	-1,015
1715,961	-0,2	-1,133
1718,102	-0,02	-1,125
1720,262	-0,1	-1,17
1722,41	-0,3	-1,25
1724,552	-0,14	-1,195
1726,712	-0,32	-1,287
1728,854	-0,76	-1,447
1731,002	-0,56	-1,429
1733,168	-1,18	-1,626
1735,321	-1,16	-1,694
1737,469	-1,28	-1,749
1739,623	-1,44	-1,81
1741,771	-1,46	-1,843
1743,919	-1,34	-1,844
1746,061	-1,52	-1,884
1748,209	-1,58	-1,895
1750,363	-1,68	-1,878
1752,516	-1,52	-1,888
1754,676	-1,66	-1,937
1756,836	-1,86	-2,041
1758,978	-2,02	-2,156
1761,138	-2,34	-2,312
1763,286	-2,74	-2,419
1765,44	-2,58	-2,429
1767,594	-2,92	-2,539
1769,747	-3,34	-2,649
1771,895	-3	-2,666
1774,055	-3,48	-2,742
1776,209	-3,78	-2,8
1778,363	-4,14	-2,878
1780,505	-4,38	-2,956
1782,647	-4,8	-3,082
1784,801	-5,52	-3,226
1786,948	-5,86	-3,315
1789,096	-5,76	-3,369
1791,25	-6,88	-3,421
1793,392	-7,06	-3,437
1795,552	-7,28	-3,464
1797,706	-7,46	-3,474
1799,848	-7,46	-3,474
1802,008	-7,56	-3,482
1804,168	-7,64	-3,491
1806,315	-7,68	-3,495
1808,475	-7,68	-3,498
1810,629	-7,66	-3,498
1812,771	-7,66	-3,498
1814,925	-7,62	-3,499
1817,067	-7,62	-3,499
1819,221	-7,58	-3,497
1821,362	-7,58	-3,433
1823,51	-7,58	-3,238
1825,664	-6,56	-3,05
1827,812	-6,5	-2,896
1829,966	-4,42	-2,689
1832,114	-5,68	-2,577
1834,256	-3,5	-2,536
1836,404	-3,62	-2,52
1838,558	-3,16	-2,34
1840,705	-2,84	-2,312
1842,853	-2,56	-2,196
1845,007	-2,08	-2,059
1847,149	-1,98	-2,025
1849,303	-1,82	-2,004
1851,457	-1,54	-1,899
1853,611	-1,26	-1,724
1855,771	-1,04	-1,626
1857,918	-0,92	-1,55
1860,072	-0,76	-1,399
1862,22	-0,58	-1,36
1864,368	-0,44	-1,258
1866,516	-0,16	-1,151
1868,658	-0,04	-1,085
1870,806	0,04	-0,973
1872,966	0,32	-0,811
1875,107	0,28	-0,828
1877,255	0,48	-0,769
1879,397	0,34	-0,842
1881,557	0,6	-0,685
1883,711	0,68	-0,564
1885,853	0,82	-0,583
1888,001	0,74	-0,603
1890,149	0,9	-0,459
1892,29	1	-0,404
1894,438	1,22	-0,36
1896,592	1,34	-0,329
1898,74	1,44	-0,259
1900,888	1,54	-0,195
1903,042	1,88	-0,136
1905,19	2,1	-0,089
1907,338	2,36	-0,075
1909,491	2,64	-0,044
1911,639	2,68	-0,033
1913,793	2,78	-0,024
1915,947	2,8	-0,017
1918,089	2,84	-0,012
1920,243	2,86	-0,008
1922,397	2,88	-0,007
1924,545	2,88	-0,005
1926,699	2,88	-0,003
1928,858	2,88	-0,002
1931,006	2,88	-0,001
1933,154	2,88	-0,001
1935,308	2,88	-0,001
1937,456	2,86	0
1939,61	2,86	0
1941,758	2,86	-0,136
1943,899	2,86	-0,189
1946,053	2,64	-0,292
1948,201	2,24	-0,411
1950,349	1,6	-0,561
1952,491	1,36	-0,606
1954,645	1,18	-0,712
1956,787	1,04	-0,788
1958,935	0,28	-0,981
1961,083	0,04	-1,046
1963,23	-0,2	-1,162
1965,384	-0,42	-1,29
1967,538	-0,54	-1,39
1969,692	-0,7	-1,42
1971,834	-0,8	-1,519
1973,982	-0,92	-1,588
1976,136	-1,04	-1,683
1978,29	-1,32	-1,772
1980,449	-1,48	-1,928
1982,603	-1,56	-2,023
1984,751	-1,94	-2,162
1986,905	-2,06	-2,288
1989,059	-2,22	-2,378
1991,207	-2,56	-2,458
1993,373	-2,92	-2,714
1995,515	-3,06	-2,748
1997,662	-3,16	-2,83
1999,816	-3,98	-3,072
2001,958	-4,12	-3,127
2004,112	-5,06	-3,308
2006,272	-5,78	-3,391
2008,414	-6,18	-3,426
2010,562	-6,34	-3,445
2012,722	-6,52	-3,456
2014,869	-6,78	-3,469
2017,023	-6,8	-3,478
2019,177	-6,92	-3,487
2021,325	-7	-3,49
2023,479	-7	-3,493
2025,627	-7	-3,495
2027,775	-7	-3,496
2029,923	-7	-3,497
2032,064	-6,96	-3,498
2034,218	-6,96	-3,498
2036,366	-6,94	-3,499
2038,508	-6,94	-3,499
2040,662	-6,92	-3,499
2042,816	-6,9	-3,5
2044,964	-6,88	-3,494
2047,118	-6,86	-3,498
2049,277	-6,86	-3,366
2051,419	-6,84	-3,349
2053,573	-6,82	-3,37
2055,733	-6,58	-3,214
2057,875	-6,82	-3,196
2060,023	-6,82	-3,173
2062,183	-5,42	-3,026
2064,325	-6,18	-2,974
2066,484	-4,28	-2,814
2068,632	-4,3	-2,77
2070,78	-4,54	-2,721
2072,934	-3,36	-2,483
2075,076	-2,88	-2,424
2077,23	-2,86	-2,38
2079,384	-2,38	-2,27
2081,532	-2,66	-2,215
2083,679	-2,26	-2,146
2085,827	-1,88	-2,07
2087,969	-1,94	-2,084
2090,117	-1,8	-1,978
2092,277	-1,4	-1,82
2094,419	-1,38	-1,803
2096,573	-1,04	-1,664
2098,727	-0,76	-1,539
2100,874	-0,84	-1,544
2103,028	-0,58	-1,444
2105,176	-0,42	-1,31
2107,324	-0,22	-1,234
2109,484	-0,18	-1,105
2111,644	0,18	-0,97
2113,786	0,18	-0,956
2115,952	0,24	-0,882
2118,094	0,28	-0,847
2120,241	0,46	-0,783
2122,395	0,44	-0,736
2124,537	0,54	-0,748
2126,691	0,6	-0,66
2128,833	0,56	-0,668
2130,981	0,68	-0,656
2133,129	0,6	-0,655
2135,271	0,64	-0,626
2137,424	0,7	-0,617
2139,578	0,84	-0,554
2141,726	0,7	-0,506
2143,868	0,72	-0,412
2146,016	0,96	-0,423
2148,158	0,92	-0,435
2150,318	1,02	-0,386
2152,466	0,92	-0,416
2154,607	0,86	-0,44
2156,755	1,08	-0,37
2158,909	0,98	-0,361
2161,057	1,18	-0,313
2163,211	1,24	-0,228
2165,365	1,52	-0,167
2167,507	1,36	-0,205
2169,661	1,38	-0,22
2171,808	1,4	-0,19
2173,962	1,64	-0,153
2176,11	1,62	-0,139
2178,246	1,74	-0,121
2180,4	1,82	-0,12
2182,554	2,12	-0,088
2184,708	1,92	-0,091
2186,856	2,2	-0,074
2189,003	2,22	-0,065
2191,145	2,3	-0,054
2193,299	2,4	-0,046
2195,447	2,36	-0,043
2197,595	2,54	-0,033
2199,749	2,52	-0,028
2201,891	2,6	-0,019
2204,039	2,66	-0,015
2206,199	2,68	-0,009
2208,346	2,68	-0,009
2210,506	2,7	-0,006
2212,654	2,7	-0,005
2214,808	2,7	-0,004
2216,956	2,7	-0,003
2219,11	2,7	-0,002
2221,258	2,7	-0,001
2223,411	2,7	-0,001
2225,565	2,68	0
2227,713	2,68	-0,018
2229,867	2,68	-0,021
2232,021	2,68	-0,119
2234,163	2,68	-0,102
2236,317	2,66	-0,234
2238,471	2,18	-0,416
2240,613	2,44	-0,429
2242,766	1,62	-0,604
2244,92	0,78	-0,806
2247,068	0,56	-0,944
2249,216	0,16	-1,067
2251,364	-0,34	-1,366
2253,506	-0,38	-1,458
2255,672	-0,66	-1,582
2257,814	-0,66	-1,691
2259,967	-1,02	-1,838
2262,115	-1,06	-1,892
2264,263	-1,16	-1,903
2266,411	-1,42	-2,033
2268,571	-1,66	-2,184
2270,713	-1,62	-2,212
2272,867	-1,72	-2,317
2275,015	-2,06	-2,446
2277,156	-2,26	-2,555
2279,304	-2,52	-2,688
2281,452	-2,98	-2,827
2283,612	-3,28	-2,942
2285,76	-3,74	-3,133
2287,908	-4,4	-3,254
2290,062	-4,42	-3,359
2292,222	-5,66	-3,444
2294,363	-5,86	-3,464
2296,517	-6,04	-3,476
2298,665	-6,04	-3,481
2300,813	-6,12	-3,488
2302,967	-6,04	-3,487
2305,121	-6,12	-3,489
2307,263	-6,14	-3,492
2309,423	-6,16	-3,494
2311,564	-6,16	-3,495
2313,712	-6,14	-3,497
2315,872	-6,14	-3,498
2318,02	-6,14	-3,499
2320,168	-6,14	-3,499
2322,322	-6,12	-3,499
2324,47	-6,12	-3,5
2326,624	-6,1	-3,45
2328,783	-6,1	-3,187
2330,925	-5,54	-3,131
2333,091	-4,12	-2,81
2335,239	-3,56	-2,639
2337,405	-2,52	-2,4
2339,559	-2,26	-2,241
2341,701	-2	-2,143
2343,861	-1,46	-1,907
2346,015	-1,28	-1,843
2348,168	-0,96	-1,712
2350,322	-0,74	-1,5
2352,476	-0,42	-1,332
2354,63	-0,18	-1,205
2356,784	-0,02	-1,111
2358,938	0,12	-0,916
2361,08	0,26	-0,807
2363,228	0,56	-0,641
2365,369	0,7	-0,521
2367,517	0,9	-0,366
2369,671	1,4	-0,175
2371,819	1,6	-0,113
2373,967	2,04	-0,074
2376,121	2,16	-0,048
2378,263	2,38	-0,037
2380,423	2,46	-0,024
2382,564	2,5	-0,021
2384,718	2,52	-0,015
2386,872	2,56	-0,012
2389,02	2,54	-0,011
2391,174	2,58	-0,008
2393,328	2,58	-0,008
2395,476	2,56	-0,009
2397,63	2,58	-0,006
2399,789	2,6	-0,002
2401,937	2,6	-0,002
2404,091	2,58	-0,001
2406,233	2,58	0
2408,399	2,58	0
2410,553	2,58	-0,026
2412,695	2,58	-0,133
2414,849	2,56	-0,253
2417,008	2,38	-0,346
2419,156	2,34	-0,391
2421,304	2,08	-0,471
2423,458	1,8	-0,592
2425,606	1,18	-0,631
2427,76	1,08	-0,651
2429,908	1,04	-0,689
2432,062	0,52	-0,81
2434,209	0,52	-0,848
2436,357	0,32	-1,02
2438,505	0,02	-1,025
2440,659	-0,02	-1,115
2442,801	-0,04	-1,138
2444,961	-0,08	-1,178
2447,109	-0,14	-1,226
2449,263	-0,22	-1,246
2451,416	-0,1	-1,357
2453,576	-0,36	-1,44
2455,724	-0,6	-1,588
2457,872	-0,74	-1,648
2460,026	-1,02	-1,881
2462,18	-1,18	-2,008
2464,334	-1,44	-2,213
2466,476	-1,32	-2,104
2468,623	-1,5	-2,228
2470,771	-1,7	-2,366
2472,925	-1,68	-2,296
2475,079	-1,62	-2,29
2477,233	-1,76	-2,385
2479,375	-1,84	-2,441
2481,529	-2,38	-2,7
2483,683	-2,56	-2,762
2485,831	-2,82	-2,908
2487,978	-3,1	-2,95
2490,12	-3,26	-3,022
2492,28	-3,78	-3,255
2494,434	-4,62	-3,378
2496,582	-4,64	-3,394
2498,736	-4,72	-3,39
2500,884	-4,36	-3,37
2503,038	-4,6	-3,379
2505,191	-4,64	-3,407
2507,333	-5,18	-3,433
2509,493	-5,22	-3,454
2511,635	-5,36	-3,452
2513,783	-5,34	-3,458
2515,937	-5,46	-3,465
2518,079	-5,5	-3,472
2520,239	-5,6	-3,481
2522,392	-5,62	-3,484
2524,54	-5,64	-3,487
2526,694	-5,68	-3,489
2528,842	-5,62	-3,491
2530,984	-5,68	-3,492
2533,15	-5,68	-3,494
2535,303	-5,68	-3,494
2537,446	-5,68	-3,494
2539,599	-5,68	-3,495
2541,747	-5,68	-3,495
2543,901	-5,68	-3,496
2546,055	-5,68	-3,496
2548,197	-5,68	-3,496
2550,351	-5,66	-3,496
2552,499	-5,66	-3,497
2554,653	-5,66	-3,497
2556,812	-5,66	-3,498
2558,954	-5,66	-3,498
2561,102	-5,64	-3,498
2563,262	-5,64	-3,499
2565,41	-5,62	-3,499
2567,558	-5,62	-3,499
2569,7	-5,62	-3,499
2571,854	-5,6	-3,5
2574,002	-5,6	-3,5
2576,143	-5,6	-3,5
2578,297	-5,58	-3,42
2580,451	-5,58	-3,321
2582,593	-5,58	-3,323
2584,747	-5,58	-3,202
2586,895	-4,68	-3,056
2589,049	-4,04	-2,888
2591,196	-3,42	-2,727
2593,338	-3,18	-2,639
2595,504	-3	-2,559
2597,652	-2,7	-2,521
2599,794	-2,6	-2,475
2601,942	-2,72	-2,48
2604,09	-2,12	-2,326
2606,256	-1,82	-2,17
2608,404	-1,74	-2,101
2610,545	-1,64	-2,029
2612,705	-1,42	-1,926
2614,859	-1,22	-1,859
2617,013	-1,24	-1,903
2619,167	-0,98	-1,78
2621,315	-1	-1,759
2623,463	-1,1	-1,769
2625,611	-0,9	-1,735
2627,758	-0,96	-1,719
2629,906	-0,8	-1,692
2632,054	-0,84	-1,629
2634,208	-0,68	-1,603
2636,362	-0,8	-1,614
2638,516	-0,52	-1,454
2640,676	-0,42	-1,404
2642,83	-0,28	-1,315
2644,971	-0,32	-1,351
2647,119	-0,32	-1,308
2649,285	0	-1,115
2651,427	0	-1,103
2653,581	0	-1,035
2655,729	0,06	-1,039
2657,877	0	-1,064
2660,031	0	-1,076
2662,178	-0,04	-0,996
2664,332	0,16	-0,934
2666,474	0,16	-0,93
2668,622	0,14	-0,913
2670,776	0,24	-0,85
2672,918	0,2	-0,859
2675,072	0,34	-0,78
2677,214	0,34	-0,783
2679,361	0,26	-0,809
2681,509	0,3	-0,824
2683,657	0,22	-0,85
2685,805	0,38	-0,769
2687,959	0,4	-0,702
2690,107	0,42	-0,654
2692,273	0,68	-0,425
2694,421	0,72	-0,354
2696,581	1	-0,193
2698,728	1,28	-0,153
2700,87	1,36	-0,133
2703,024	1,56	-0,108
2705,166	1,64	-0,09
2707,314	1,48	-0,104
2709,468	1,8	-0,072
2711,616	1,88	-0,056
2713,763	2,04	-0,052
2715,905	2,18	-0,036
2718,059	2,3	-0,018
2720,219	2,4	-0,008
2722,361	2,42	-0,008
2724,521	2,44	-0,003
2726,669	2,44	-0,002
2728,811	2,44	-0,003
2730,959	2,44	-0,002
2733,1	2,44	-0,002
2735,248	2,44	-0,002
2737,402	2,44	-0,001
2739,556	2,44	-0,001
2741,704	2,42	0
2743,852	2,42	0
2746,006	2,42	-0,003
2748,166	2,42	-0,12
2750,319	1,92	-0,352
2752,467	1,66	-0,454
2754,615	1,86	-0,438
2756,769	1,68	-0,494
2758,923	1,24	-0,564
2761,071	0,94	-0,698
2763,225	0,74	-0,723
2765,367	0,8	-0,801
2767,526	0,34	-0,93
2769,662	0,32	-0,908
2771,81	0,24	-0,983
2773,97	0,26	-1,023
2776,118	0,12	-1,018
2778,272	0,16	-1,112
2780,414	0,1	-1,047
2782,574	0,08	-1,107
2784,733	-0,14	-1,253
2786,875	0,16	-1,234
2789,029	-0,28	-1,323
2791,171	-0,32	-1,38
2793,319	-0,42	-1,417
2795,479	-0,52	-1,467
2797,621	-0,46	-1,512
2799,775	-0,54	-1,598
2801,934	-0,52	-1,59
2804,076	-0,76	-1,703
2806,23	-0,68	-1,749
2808,384	-0,76	-1,77
2810,532	-0,64	-1,798
2812,674	-0,8	-1,827
2814,822	-0,86	-1,816
2816,97	-0,78	-1,876
2819,117	-0,92	-1,882
2821,265	-0,84	-1,898
2823,407	-0,88	-1,96
2825,555	-1,3	-2,12
2827,703	-1,06	-2,083
2829,857	-1,22	-2,152
2832,005	-1,14	-2,137
2834,153	-1,24	-2,137
2836,294	-1,32	-2,193
2838,442	-1,4	-2,251
2840,584	-1,34	-2,207
2842,732	-1,38	-2,229
2844,886	-1,48	-2,351
2847,028	-1,36	-2,3
2849,182	-1,54	-2,357
2851,324	-1,54	-2,36
2853,472	-1,54	-2,328
2855,613	-1,7	-2,406
2857,767	-1,54	-2,372
2859,921	-1,6	-2,426
2862,063	-1,66	-2,442
2864,211	-1,76	-2,465
2866,359	-1,74	-2,47
2868,507	-1,56	-2,376
2870,655	-1,72	-2,451
2872,796	-1,82	-2,512
2874,944	-1,52	-2,46
2877,086	-1,54	-2,478
2879,24	-1,8	-2,578
2881,382	-1,82	-2,608
2883,536	-1,96	-2,655
2885,684	-2,02	-2,741
2887,832	-2,36	-2,826
2889,979	-2,36	-2,847
2892,127	-2,42	-2,933
2894,275	-2,7	-2,988
2896,447	-3,12	-3,209
2898,589	-3,22	-3,158
2900,737	-3,08	-3,144
2902,879	-3	-3,121
2905,027	-2,88	-3,111
2907,18	-2,84	-3,072
2909,328	-3,04	-3,078
2911,476	-3,02	-3,11
2913,618	-2,7	-3,002
2915,772	-2,86	-3,027
2917,926	-2,68	-3,021
2920,068	-2,92	-3,022
2922,216	-2,56	-2,922
2924,357	-2,44	-2,888
2926,511	-2,56	-2,882
2928,683	-2,74	-3,029
2930,831	-3,04	-3,093
2932,979	-3,1	-3,158
2935,121	-3,28	-3,218
2937,269	-3,58	-3,258
2939,423	-3,68	-3,326
2941,564	-3,8	-3,346
2943,712	-4,44	-3,409
2945,854	-4,44	-3,412
2948,008	-4,68	-3,429
2950,15	-4,82	-3,452
2952,31	-4,9	-3,458
2954,464	-4,74	-3,45
2956,606	-4,88	-3,45
2958,753	-4,9	-3,458
2960,895	-4,74	-3,459
2963,043	-4,88	-3,464
2965,191	-4,96	-3,464
2967,333	-4,64	-3,433
2969,487	-4,58	-3,441
2971,629	-4,7	-3,434
2973,777	-4,6	-3,433
2975,936	-4,72	-3,445
2978,084	-4,74	-3,454
2980,232	-4,96	-3,468
2982,386	-4,98	-3,473
2984,528	-4,94	-3,472
2986,676	-4,98	-3,478
2988,824	-5,04	-3,48
2990,99	-5,04	-3,482
2993,132	-5,06	-3,484
2995,291	-5,08	-3,487
2997,439	-5,12	-3,492
2999,581	-5,1	-3,492
3001,735	-5,14	-3,493
3003,889	-5,14	-3,495
3006,037	-5,12	-3,496
3008,185	-5,16	-3,496
3010,333	-5,14	-3,497
3012,48	-5,14	-3,498
3014,622	-5,14	-3,498
3016,782	-5,12	-3,499
3018,924	-5,12	-3,499
3021,072	-5,12	-3,5
3023,226	-5,1	-3,358
3025,374	-5,1	-3,259
3027,522	-4,62	-3,188
3029,675	-4,82	-3,162
3031,823	-4,32	-3,09
3033,983	-3,48	-2,881
3036,131	-3,3	-2,778
3038,279	-2,98	-2,646
3040,421	-2,54	-2,584
3042,581	-2,28	-2,503
3044,723	-2,14	-2,447
3046,876	-1,82	-2,234
3049,03	-1,52	-2,098
3051,172	-1,4	-2,038
3053,326	-1,04	-1,858
3055,48	-0,72	-1,673
3057,622	-0,56	-1,553
3059,782	-0,26	-1,323
3061,924	-0,16	-1,213
3064,071	-0,44	-1,319
3066,213	-0,38	-1,353
3068,373	-0,16	-1,18
3070,527	0	-1,028
3072,669	0,04	-0,978
3074,829	0,24	-0,794
3076,971	0,34	-0,679
3079,119	0,46	-0,648
3081,278	0,64	-0,464
3083,432	0,64	-0,418
3085,58	0,76	-0,379
3087,728	0,86	-0,266
3089,876	0,8	-0,27
3092,024	1,16	-0,174
3094,178	1,46	-0,114
3096,35	1,82	-0,056
3098,492	1,92	-0,044
3100,639	2,02	-0,038
3102,781	2,14	-0,024
3104,935	2,18	-0,015
3107,083	2,26	-0,009
3109,225	2,26	-0,006
3111,379	2,28	-0,003
3113,527	2,28	-0,001
3115,675	2,28	-0,001
3117,816	2,28	-0,001
3119,97	2,26	-0,012
3122,124	2,26	-0,121
3124,284	2,06	-0,34
3126,432	1,82	-0,517
3128,58	1,04	-0,592
3130,734	0,58	-0,809
3132,876	0,26	-0,907
3135,023	0,26	-0,988
3137,177	-0,1	-1,21
3139,313	-0,12	-1,326
3141,467	-0,38	-1,581
3143,621	-0,52	-1,712
3145,775	-0,84	-1,908
3147,917	-0,88	-2,038
3150,071	-1	-2,138
3152,218	-1,36	-2,374
3154,372	-1,44	-2,467
3156,526	-1,82	-2,678
3158,674	-2,26	-2,888
3160,828	-2,54	-3,034
3162,976	-3,26	-3,242
3165,124	-3,64	-3,349
3167,278	-4,36	-3,432
3169,425	-4,56	-3,459
3171,573	-4,8	-3,479
3173,715	-4,82	-3,484
3175,875	-4,88	-3,491
3178,017	-4,9	-3,494
3180,171	-4,9	-3,496
3182,319	-4,9	-3,498
3184,461	-4,9	-3,498
3186,62	-4,88	-3,499
3188,774	-4,88	-3,499
3190,928	-4,86	-3,494
3193,082	-4,84	-3,244
3195,224	-4,6	-3,112
3196,172	2,24	-0,001