File: ensaios_Ciclicos/_newS/_2G60/entrada/_4.txt
Time (s)	Load (N)	Displacement (mm)
0	-0,1	-0,031
2,23	-1,04	-0,622
4,348	-0,34	-0,509
6,544	-2,38	-0,974
8,806	-4,9	-1,71
10,942	-6,12	-1,815
13,228	-10,1	-2,581
15,43	-11,96	-2,978
17,547	-11,6	-2,984
19,725	-13,94	-3,281
21,939	-16,04	-3,439
24,057	-15,66	-3,429
26,277	-16,74	-3,488
28,515	-16,8	-3,498
30,699	-16,72	-3,499
32,919	-16,6	-3,222
35,042	-16,34	-3,233
37,316	-12,06	-2,488
39,446	-10,92	-2,43
41,762	-5,28	-1,444
43,958	-3,92	-1,139
46,088	-3,48	-1,06
48,302	-1,14	-0,594
50,426	-1,16	-0,535
52,627	0,5	-0,182
54,757	0,44	-0,146
56,893	0,8	-0,13
59,101	1,8	-0,036
61,321	2,04	-0,007
63,439	2,06	-0,007
65,563	2,08	-0,008
67,681	2,08	-0,008
69,81	2,1	-0,008
71,928	2,12	-0,008
74,155	2,12	-0,002
76,476	1,1	-0,543
78,594	1,46	-0,5
80,712	1,6	-0,462
82,831	1,82	-0,434
84,948	1,92	-0,306
87,071	1,78	-0,342
89,201	1,62	-0,365
91,32	1,6	-0,391
93,443	1,62	-0,372
95,561	1,84	-0,372
97,685	1,78	-0,434
99,815	1,84	-0,398
101,933	1,86	-0,306
104,051	2,26	-0,234
106,174	2,28	-0,17
108,298	2,28	-0,175
110,41	2,3	-0,118
112,522	2,32	-0,006
114,646	2,34	0
116,77	2,36	0
118,894	2,36	0
121,006	2,38	-0,001
123,135	2,38	0
125,277	2,38	-0,012
127,407	2,38	-0,042
129,531	2,4	-0,012
131,655	2,42	0
133,779	2,44	0
135,903	2,44	0
138,014	2,44	0
140,132	2,46	0
142,256	2,46	0
144,38	2,48	0
146,504	2,48	0
148,622	2,52	-0,001
150,758	2,5	0
152,876	2,52	-0,001
155,012	2,52	0
157,123	2,54	0
159,264	2,54	-0,004
161,401	2,54	-0,007
163,531	2,54	-0,053
165,655	2,54	-0,078
167,785	2,56	-0,121
169,909	2,56	-0,154
172,033	2,56	-0,175
174,168	2,56	-0,284
176,298	2,58	-0,314
178,434	2,26	-0,306
180,564	2,28	-0,394
182,694	1,9	-0,449
184,824	2,6	-0,417
186,948	2,4	-0,356
189,072	1,94	-0,371
191,207	2,16	-0,426
193,337	1,78	-0,526
195,467	2,16	-0,494
197,603	1,62	-0,665
199,733	0,32	-0,73
201,869	0,82	-0,74
203,993	0,08	-0,8
206,117	0,24	-0,82
208,241	0	-0,849
210,376	0,16	-0,859
212,506	0,14	-0,876
214,63	0,16	-0,82
216,76	0,42	-0,795
218,878	0,92	-0,736
221,008	1,18	-0,716
223,132	0,92	-0,687
225,256	0,94	-0,691
227,373	1,44	-0,562
229,491	1,64	-0,508
231,625	1,7	-0,486
233,757	1,62	-0,556
235,881	1,64	-0,532
238,017	1,72	-0,58
240,141	1,64	-0,546
242,265	2,02	-0,522
244,388	1,92	-0,493
246,518	2,04	-0,501
248,648	1,94	-0,474
250,778	2,14	-0,48
252,908	1,78	-0,54
255,05	1,42	-0,58
257,18	2,1	-0,528
259,31	1,22	-0,604
261,439	1,3	-0,653
263,563	1,26	-0,698
265,699	0,86	-0,74
267,829	0,76	-0,762
269,965	0,78	-0,81
272,095	0,46	-0,801
274,231	0,1	-0,901
276,361	0,08	-0,928
278,49	-0,54	-0,983
280,614	-0,14	-0,991
282,738	-0,42	-1,037
284,868	-0,54	-1,043
286,986	-0,74	-1,042
289,116	-0,82	-1,092
291,246	-1,26	-1,193
293,37	-1,26	-1,187
295,505	-1,8	-1,271
297,647	-2,38	-1,471
299,777	-2,54	-1,54
301,907	-2,52	-1,627
304,037	-2,88	-1,649
306,173	-3,12	-1,712
308,297	-3,26	-1,731
310,439	-2,88	-1,798
312,563	-3,88	-1,843
314,698	-4,24	-1,98
316,834	-4,76	-2,082
318,958	-4,52	-2,105
321,094	-5,2	-2,206
323,218	-5,12	-2,293
325,354	-6,18	-2,436
327,484	-7,08	-2,537
329,607	-6,76	-2,52
331,737	-6,82	-2,649
333,867	-7,82	-2,746
336,003	-8,8	-2,867
338,139	-8,82	-2,92
340,263	-9,48	-2,997
342,399	-9,04	-3,072
344,523	-10,08	-3,052
346,659	-10,02	-3,173
348,788	-10,36	-3,24
350,918	-10,86	-3,295
353,042	-11,24	-3,264
355,172	-11,88	-3,337
357,308	-12,06	-3,361
359,438	-11,06	-3,345
361,562	-11,58	-3,322
363,692	-11,98	-3,376
365,815	-11,84	-3,358
367,945	-11,72	-3,336
370,075	-11,08	-3,346
372,199	-11,94	-3,318
374,329	-11,9	-3,361
376,459	-12,38	-3,364
378,583	-11,32	-3,333
380,707	-12,42	-3,394
382,848	-13,28	-3,435
384,966	-13,1	-3,436
387,102	-13,68	-3,458
389,238	-13,92	-3,468
391,356	-13,58	-3,466
393,492	-13,84	-3,473
395,622	-14,06	-3,482
397,758	-14,12	-3,487
399,881	-14,1	-3,486
402,017	-14,14	-3,489
404,135	-14,06	-3,488
406,277	-14,1	-3,493
408,401	-14,16	-3,495
410,525	-14,12	-3,495
412,655	-14,14	-3,496
414,785	-14,14	-3,497
416,921	-14,12	-3,498
419,051	-14,1	-3,498
421,174	-14,1	-3,498
423,304	-14,08	-3,499
425,44	-14,06	-3,499
427,576	-14,02	-3,47
429,712	-14,02	-3,305
431,836	-13,48	-3,16
433,966	-13,02	-3,077
436,089	-13,14	-3,02
438,219	-11,26	-2,854
440,355	-9,76	-2,685
442,485	-10,68	-2,61
444,615	-8,68	-2,49
446,757	-7,42	-2,308
448,881	-7,74	-2,289
451,017	-6,46	-2,119
453,146	-6,84	-2,069
455,276	-5,58	-1,953
457,406	-5,32	-1,888
459,542	-5,12	-1,824
461,672	-4,56	-1,695
463,802	-3,54	-1,556
465,932	-3,38	-1,422
468,056	-2,66	-1,365
470,185	-2,78	-1,302
472,309	-2,26	-1,186
474,457	-1,22	-0,999
476,587	-1,3	-0,909
478,717	-0,7	-0,833
480,841	-0,22	-0,707
482,971	-0,28	-0,605
485,095	0,38	-0,524
487,218	0,52	-0,514
489,348	0,22	-0,506
491,49	1,24	-0,251
493,614	1,54	-0,211
495,738	1,7	-0,192
497,868	1,82	-0,17
499,998	2,36	-0,094
502,134	2,94	-0,056
504,258	2,84	-0,055
506,387	2,98	-0,04
508,517	3,02	-0,036
510,653	3,16	-0,026
512,777	3,22	-0,019
514,913	3,28	-0,013
517,037	3,28	-0,011
519,167	3,28	-0,009
521,297	3,28	-0,008
523,42	3,3	-0,008
525,55	3,3	-0,007
527,674	3,3	-0,006
529,798	3,3	-0,005
531,928	3,3	-0,004
534,058	3,3	-0,004
536,182	3,32	-0,004
538,312	3,3	-0,004
540,442	3,3	-0,003
542,571	3,32	-0,004
544,701	3,32	-0,004
546,825	3,32	-0,005
548,949	3,32	-0,006
551,085	3,32	-0,005
553,215	3,32	-0,005
555,351	3,32	-0,007
557,475	3,32	-0,008
559,61	3,32	-0,006
561,746	3,32	-0,005
563,87	3,34	-0,005
566,006	3,34	-0,004
568,13	3,34	-0,004
570,248	3,34	-0,004
572,372	3,34	-0,004
574,514	3,34	-0,003
576,649	3,32	-0,002
578,773	3,32	-0,002
580,903	3,34	-0,002
583,033	3,34	-0,002
585,169	3,32	-0,001
587,293	3,34	-0,001
589,411	3,34	-0,001
591,535	3,34	-0,001
593,658	3,34	-0,001
595,788	3,32	-0,001
597,924	3,32	0
600,048	3,32	-0,047
602,172	3,32	-0,036
604,29	3,32	-0,139
606,42	3,3	-0,231
608,55	2,96	-0,292
610,679	2,96	-0,379
612,809	2,82	-0,349
614,939	2,7	-0,413
617,063	3,32	-0,357
619,211	2,7	-0,438
621,353	1,96	-0,558
623,483	2,8	-0,426
625,613	2,78	-0,476
627,742	3	-0,407
629,878	2,84	-0,395
632,002	2,72	-0,447
634,12	3,02	-0,382
636,256	3,3	-0,318
638,386	3,08	-0,291
640,516	3,14	-0,304
642,646	3,32	-0,316
644,775	3,1	-0,333
646,905	2,9	-0,296
649,029	3,32	-0,283
651,159	3,34	-0,246
653,289	2,94	-0,258
655,413	3,34	-0,305
657,537	3,34	-0,281
659,673	2,84	-0,323
661,809	3,12	-0,328
663,938	3,04	-0,343
666,08	2,98	-0,353
668,204	2,96	-0,308
670,34	2,88	-0,371
672,464	3,02	-0,364
674,588	2,72	-0,415
676,718	2,56	-0,501
678,842	2,18	-0,562
680,965	2,04	-0,571
683,113	1,56	-0,742
685,237	1,94	-0,772
687,367	1,04	-0,757
689,497	1,3	-0,769
691,621	1,24	-0,746
693,751	1,36	-0,746
695,881	0,66	-0,871
698,01	0,72	-0,882
700,134	0,62	-0,912
702,264	0,44	-0,939
704,388	0,46	-0,932
706,512	0,4	-0,956
708,642	0,4	-0,956
710,766	0,4	-0,933
712,896	0,64	-0,977
715,025	0,2	-1,006
717,149	0,1	-1,018
719,273	0,2	-1,074
721,403	-0,2	-1,081
723,539	-0,7	-1,229
725,669	-1,1	-1,342
727,787	-1,2	-1,336
729,917	-1,4	-1,386
732,041	-1,68	-1,441
734,182	-1,84	-1,551
736,306	-2,16	-1,633
738,424	-2,36	-1,69
740,56	-2,66	-1,792
742,696	-3,32	-1,918
744,82	-3,46	-1,988
746,944	-3,26	-1,973
749,074	-3,36	-2,011
751,197	-3,9	-2,041
753,327	-3,86	-2,127
755,463	-4,1	-2,142
757,599	-4,12	-2,108
759,723	-3,48	-2,027
761,859	-3,62	-2,01
763,989	-3,82	-2,086
766,119	-3,78	-2,172
768,242	-4,08	-2,132
770,372	-3,6	-2,054
772,496	-3,22	-1,929
774,632	-3	-1,913
776,762	-2,64	-1,834
778,892	-2,44	-1,782
781,016	-2,8	-1,775
783,146	-2,82	-1,818
785,269	-2,48	-1,805
787,393	-2,96	-1,809
789,517	-2,84	-1,785
791,647	-2,7	-1,855
793,777	-3,18	-1,898
795,901	-3,04	-1,938
798,031	-2,94	-1,925
800,161	-3,14	-1,898
802,297	-3,3	-1,977
804,426	-3,2	-1,978
806,55	-3,16	-1,955
808,68	-3,38	-2,02
810,822	-3,92	-2,118
812,952	-3,74	-2,216
815,082	-4,24	-2,243
817,212	-4,32	-2,186
819,336	-4,04	-2,108
821,465	-3,44	-2,015
823,589	-3,14	-2,013
825,719	-3,38	-2,003
827,843	-3,34	-1,974
829,967	-2,96	-1,945
832,098	-3,12	-1,908
834,221	-2,92	-1,852
836,345	-2,78	-1,882
838,468	-3,06	-1,94
840,598	-3,52	-2,057
842,722	-3,62	-2,071
844,846	-3,34	-2,01
846,982	-3,74	-2,078
849,118	-4,14	-2,19
851,254	-4,56	-2,242
853,384	-4,18	-2,264
855,513	-4,64	-2,297
857,631	-4,96	-2,353
859,761	-5,4	-2,463
861,891	-5,46	-2,642
864,021	-6,46	-2,71
866,145	-6,24	-2,767
868,275	-7,56	-2,852
870,399	-7,48	-2,903
872,535	-8,36	-3,014
874,664	-7,92	-3,074
876,794	-9,54	-3,241
878,93	-10,66	-3,328
881,054	-10,3	-3,346
883,184	-10,64	-3,366
885,32	-11,56	-3,404
887,444	-11,68	-3,428
889,58	-12,56	-3,461
891,71	-12,8	-3,476
893,833	-12,9	-3,481
895,963	-12,88	-3,486
898,099	-13	-3,49
900,223	-13,04	-3,493
902,353	-13,06	-3,495
904,483	-13,06	-3,497
906,619	-13,04	-3,498
908,742	-13,04	-3,498
910,872	-13,04	-3,499
913,002	-13,02	-3,499
915,126	-12,98	-3,496
917,262	-12,98	-3,29
919,38	-12,98	-3,28
921,516	-12,64	-3,16
923,64	-12,92	-3,11
925,775	-12,02	-3,04
927,899	-11,06	-2,915
930,029	-9,96	-2,83
932,153	-9,98	-2,763
934,277	-10,36	-2,834
936,401	-9,74	-2,75
938,537	-9,54	-2,694
940,661	-9,54	-2,7
942,79	-8,24	-2,583
944,914	-7,96	-2,468
947,05	-7,54	-2,448
949,18	-7,74	-2,457
951,31	-7,16	-2,37
953,44	-8,52	-2,32
955,564	-7,58	-2,445
957,694	-7,5	-2,408
959,824	-7,96	-2,37
961,959	-7,02	-2,274
964,083	-6,6	-2,319
966,213	-7,04	-2,371
968,34	-8,18	-2,485
970,467	-8,3	-2,58
972,597	-9,46	-2,739
974,727	-9,98	-2,801
976,857	-11,12	-2,934
978,998	-11,72	-2,914
981,134	-11,92	-3,005
983,264	-11,24	-2,999
985,4	-11,44	-2,968
987,524	-11,52	-3,018
989,642	-11,64	-3,077
991,772	-11,68	-3,055
993,902	-12,08	-3,129
996,025	-12,42	-3,212
998,161	-12,66	-3,262
1000,285	-12,66	-3,31
1002,403	-12,64	-3,388
1004,527	-12,66	-3,445
1006,657	-12,66	-3,421
1008,781	-12,64	-3,343
1010,905	-12,64	-3,338
1013,034	-12,62	-3,361
1015,158	-12,62	-3,387
1017,294	-12,62	-3,311
1019,424	-12,62	-3,322
1021,548	-12,6	-3,326
1023,666	-12,62	-3,377
1025,796	-12,62	-3,328
1027,926	-12,62	-3,261
1030,055	-12,6	-3,31
1032,185	-12,58	-3,258
1034,309	-12,58	-3,233
1036,427	-12,54	-3,216
1038,563	-12,54	-3,218
1040,693	-12,54	-3,221
1042,829	-12,24	-3,206
1044,959	-11,98	-3,217
1047,1	-12,24	-3,207
1049,23	-12,46	-3,301
1051,348	-12,46	-3,475
1053,478	-12,44	-3,492
1055,596	-12,42	-3,496
1057,732	-12,4	-3,5
1059,856	-12,38	-3,499
1061,974	-12,4	-3,499
1064,098	-12,36	-3,499
1066,227	-12,36	-3,499
1068,357	-12,32	-3,499
1070,487	-12,34	-3,499
1072,611	-12,32	-3,499
1074,741	-12,3	-3,499
1076,871	-12,3	-3,499
1079,001	-12,3	-3,499
1081,131	-12,28	-3,499
1083,254	-12,28	-3,499
1085,39	-12,28	-3,499
1087,526	-12,26	-3,5
1089,662	-12,24	-3,489
1091,786	-12,24	-3,499
1093,916	-12,22	-3,499
1096,046	-12,22	-3,5
1098,17	-12,22	-3,5
1100,293	-12,2	-3,5
1102,417	-12,2	-3,499
1104,541	-12,2	-3,499
1106,671	-12,2	-3,499
1108,801	-12,2	-3,499
1110,937	-12,18	-3,499
1113,061	-12,18	-3,5
1115,197	-12,18	-3,499
1117,32	-12,16	-3,499
1119,45	-12,16	-3,499
1121,586	-12,14	-3,499
1123,704	-12,12	-3,499
1125,84	-12,12	-3,499
1127,964	-12,12	-3,499
1130,094	-12,1	-3,499
1132,23	-12,08	-3,499
1134,353	-12,08	-3,499
1136,477	-12,06	-3,499
1138,607	-12,06	-3,499
1140,737	-12,04	-3,499
1142,861	-12	-3,499
1144,991	-12	-3,499
1147,127	-11,96	-3,499
1149,251	-11,94	-3,499
1151,375	-11,86	-3,499
1153,498	-11,84	-3,499
1155,622	-11,82	-3,499
1157,746	-11,76	-3,499
1159,876	-11,74	-3,499
1162,006	-11,72	-3,5
1164,31	-7,8	-2,707
1166,494	-6,4	-2,394
1168,612	-6,16	-2,394
1170,927	-2,08	-1,458
1173,261	1,24	-0,356
1175,553	3,48	-0,03
1177,683	3,56	-0,018
1179,801	3,54	-0,022
1181,925	3,52	-0,021
1184,055	3,58	-0,017
1186,185	3,62	-0,011
1188,303	3,6	-0,013
1190,432	3,62	-0,012
1192,7	3,64	-0,001
1194,836	3,62	-0,001
1196,954	3,6	0
1199,084	3,62	0
1201,544	-1,52	-1,696
1203,674	-1,96	-1,738
1205,803	-1,94	-1,746
1207,939	-1,96	-1,792
1210,069	-1,96	-1,736
1212,205	-2,12	-1,852
1214,341	-2,46	-1,909
1216,465	-2,1	-1,88
1218,595	-2,86	-2,018
1220,713	-3,04	-2,046
1222,848	-3,28	-2,151
1224,984	-3,18	-2,183
1227,108	-3,62	-2,212
1229,232	-3,66	-2,322
1231,356	-3,98	-2,382
1233,486	-4,46	-2,432
1235,61	-4,52	-2,43
1237,734	-4,36	-2,464
1239,857	-4,16	-2,515
1241,981	-4,88	-2,592
1244,111	-5,36	-2,636
1246,235	-5,34	-2,713
1248,365	-6,02	-2,8
1250,495	-5,76	-2,871
1252,625	-6,74	-2,983
1254,766	-7	-3,017
1256,885	-5,9	-2,953
1259,026	-7,22	-3,099
1261,162	-7,56	-3,219
1263,293	-7,94	-3,225
1265,416	-7,54	-3,15
1267,546	-7,82	-3,204
1269,67	-7,38	-3,123
1271,788	-7,5	-3,177
1273,93	-7,34	-3,153
1276,053	-7,42	-3,171
1278,183	-7,86	-3,178
1280,307	-7,7	-3,158
1282,425	-7,04	-3,062
1284,555	-6,76	-3,042
1286,685	-6,86	-3,092
1288,803	-6,9	-3,054
1290,927	-7,68	-3,212
1293,074	-8,62	-3,344
1295,204	-8,74	-3,372
1297,334	-9,02	-3,398
1299,458	-9,28	-3,413
1301,588	-10,08	-3,447
1303,712	-9,8	-3,448
1305,854	-10,16	-3,464
1307,972	-10,24	-3,466
1310,102	-10,38	-3,475
1312,231	-10,34	-3,482
1314,367	-10,44	-3,488
1316,491	-10,46	-3,491
1318,615	-10,42	-3,493
1320,751	-10,4	-3,495
1322,881	-10,36	-3,496
1324,999	-10,36	-3,496
1327,117	-10,34	-3,495
1329,252	-10,34	-3,496
1331,376	-10,32	-3,497
1333,5	-10,3	-3,496
1335,63	-10,28	-3,497
1337,754	-10,26	-3,498
1339,884	-10,22	-3,499
1342,014	-10,2	-3,499
1344,132	-10,18	-3,499
1346,261	-10,16	-3,5
1348,385	-10,12	-3,494
1350,527	-10,1	-3,248
1352,651	-10,08	-3,111
1354,781	-8,42	-3,013
1356,911	-8,42	-2,968
1359,041	-8,32	-2,946
1361,159	-7,98	-2,93
1363,288	-7,32	-2,796
1365,424	-6,02	-2,622
1367,548	-6,2	-2,576
1369,69	-4,74	-2,313
1371,82	-3,32	-2,072
1373,95	-2,8	-1,912
1376,068	-2,4	-1,828
1378,198	-1,54	-1,644
1380,327	-1,36	-1,469
1382,451	-0,96	-1,333
1384,581	-0,42	-1,205
1386,717	-0,04	-1,072
1388,847	0,36	-0,858
1390,971	0,78	-0,68
1393,107	1,18	-0,532
1395,231	1,38	-0,432
1397,366	1,98	-0,245
1399,484	2,12	-0,218
1401,62	2,68	-0,126
1403,75	2,98	-0,075
1405,88	3,28	-0,056
1408,004	3,44	-0,035
1410,14	3,56	-0,021
1412,264	3,58	-0,014
1414,399	3,62	-0,009
1416,517	3,62	-0,006
1418,653	3,62	-0,003
1420,777	3,62	-0,002
1422,913	3,6	-0,001
1425,037	3,6	-0,004
1427,173	3,58	-0,149
1429,309	2,96	-0,412
1431,433	2,22	-0,515
1433,562	1,78	-0,671
1435,692	0,9	-0,812
1437,822	0,92	-0,891
1439,94	0,88	-0,982
1442,07	0,22	-1,1
1444,2	-0,24	-1,212
1446,324	-0,54	-1,328
1448,454	-0,66	-1,418
1450,577	-0,98	-1,538
1452,701	-1,18	-1,616
1454,825	-1,44	-1,748
1456,961	-1,86	-1,9
1459,097	-2,56	-2,155
1461,221	-2,84	-2,263
1463,351	-3,5	-2,43
1465,487	-3,88	-2,61
1467,604	-4,28	-2,766
1469,728	-4,74	-2,868
1471,858	-5,32	-2,964
1473,988	-5,76	-3,11
1476,106	-6,18	-3,194
1478,242	-6,94	-3,306
1480,366	-6,96	-3,32
1482,484	-7,34	-3,35
1484,626	-8,26	-3,424
1486,755	-8,76	-3,45
1488,879	-8,94	-3,468
1491,003	-8,98	-3,48
1493,145	-9,1	-3,489
1495,269	-9,12	-3,492
1497,393	-9,1	-3,494
1499,517	-9,08	-3,495
1501,647	-9,08	-3,497
1503,77	-9,04	-3,497
1505,9	-9,04	-3,498
1508,018	-9,04	-3,498
1510,154	-8,98	-3,499
1512,272	-8,96	-3,499
1514,402	-8,96	-3,499
1516,538	-8,9	-3,486
1518,656	-8,88	-3,432
1520,785	-8,86	-3,264
1522,927	-7,96	-3,052
1525,057	-7,5	-2,944
1527,175	-6,86	-2,879
1529,293	-6,58	-2,86
1531,423	-5,84	-2,683
1533,553	-4,78	-2,544
1535,671	-3,9	-2,379
1537,8	-3,58	-2,261
1539,93	-2,68	-2,089
1542,06	-2,32	-1,949
1544,178	-1,88	-1,844
1546,32	-1,26	-1,635
1548,45	-0,94	-1,575
1550,568	-0,62	-1,463
1552,698	-0,36	-1,323
1554,827	0,04	-1,19
1556,957	0,02	-1,06
1559,087	0,6	-0,938
1561,211	0,84	-0,808
1563,335	1,08	-0,615
1565,465	1,36	-0,586
1567,595	1,44	-0,509
1569,731	1,66	-0,419
1571,861	1,76	-0,323
1573,99	2,14	-0,241
1576,126	2,6	-0,149
1578,25	2,76	-0,114
1580,374	2,96	-0,086
1582,504	3,2	-0,064
1584,622	3,14	-0,057
1586,752	3,38	-0,036
1588,876	3,42	-0,03
1590,993	3,44	-0,028
1593,129	3,54	-0,014
1595,259	3,52	-0,01
1597,389	3,56	-0,008
1599,513	3,56	-0,005
1601,655	3,56	-0,002
1603,785	3,56	-0,001
1605,915	3,56	-0,001
1608,044	3,54	-0,001
1610,174	3,56	0
1612,304	3,54	-0,072
1614,428	3,54	-0,152
1616,558	3,5	-0,334
1618,694	2,66	-0,563
1620,812	2,22	-0,648
1622,942	1,16	-0,84
1625,083	0,26	-1,082
1627,201	0,06	-1,113
1629,337	-0,36	-1,368
1631,467	-0,84	-1,48
1633,597	-0,96	-1,605
1635,727	-1,36	-1,733
1637,857	-1,66	-1,92
1639,981	-2	-2,003
1642,117	-2,14	-2,14
1644,252	-2,46	-2,251
1646,37	-2,7	-2,336
1648,494	-2,7	-2,456
1650,63	-3,66	-2,668
1652,754	-3,92	-2,767
1654,884	-4,64	-2,922
1657,014	-4,94	-3,051
1659,156	-5,32	-3,249
1661,279	-6,58	-3,319
1663,409	-6,84	-3,372
1665,539	-7,42	-3,431
1667,663	-7,88	-3,451
1669,793	-8,04	-3,471
1671,923	-8,14	-3,482
1674,047	-8,22	-3,488
1676,183	-8,24	-3,493
1678,313	-8,24	-3,496
1680,43	-8,22	-3,498
1682,566	-8,18	-3,499
1684,69	-8,16	-3,499
1686,826	-8,12	-3,413
1688,95	-8,1	-3,322
1691,086	-7,82	-3,165
1693,222	-6,48	-2,94
1695,345	-5,34	-2,751
1697,481	-4,04	-2,519
1699,611	-3,78	-2,41
1701,735	-3,42	-2,318
1703,865	-2,96	-2,253
1705,995	-2,76	-2,16
1708,113	-2,52	-2,103
1710,243	-1,64	-1,889
1712,378	-0,92	-1,656
1714,514	-0,64	-1,465
1716,638	-0,08	-1,286
1718,768	0,1	-1,147
1720,892	0,44	-0,953
1723,016	0,88	-0,789
1725,146	1,08	-0,65
1727,276	1,58	-0,453
1729,406	1,58	-0,394
1731,535	1,92	-0,312
1733,665	1,94	-0,191
1735,783	2,46	-0,144
1737,913	2,94	-0,091
1740,043	2,92	-0,081
1742,161	3,02	-0,072
1744,303	3,32	-0,035
1746,439	3,44	-0,019
1748,556	3,44	-0,019
1750,692	3,5	-0,012
1752,822	3,5	-0,008
1754,94	3,52	-0,006
1757,076	3,52	-0,003
1759,2	3,5	-0,002
1761,324	3,5	-0,001
1763,448	3,48	0
1765,584	3,48	-0,065
1767,701	3,46	-0,115
1769,837	3,02	-0,332
1771,967	2,84	-0,472
1774,091	2,22	-0,598
1776,227	1,54	-0,815
1778,561	-1,6	-1,954
1780,679	-1,66	-1,991
1782,982	-4,34	-3,01
1785,118	-5,32	-3,239
1787,242	-5,66	-3,312
1789,468	-7,6	-3,476
1791,904	-6,98	-3,065
1794,022	-6,7	-3,002
1796,152	-5,46	-2,868
1798,288	-4,64	-2,65
1800,405	-3,78	-2,49
1802,541	-3,06	-2,337
1804,671	-2,48	-2,245
1806,801	-2,1	-2,08
1808,931	-1,52	-1,945
1811,067	-1,22	-1,76
1813,185	-1,08	-1,719
1815,321	-0,4	-1,453
1817,45	-0,06	-1,332
1819,568	0,16	-1,213
1821,704	0,34	-1,034
1823,834	0,64	-0,914
1825,958	0,88	-0,758
1828,088	1,16	-0,66
1830,212	1,44	-0,499
1832,33	1,56	-0,445
1834,466	1,7	-0,308
1836,595	2,26	-0,179
1838,713	2,34	-0,168
1840,837	2,46	-0,134
1842,967	2,76	-0,106
1845,091	3,08	-0,064
1847,215	3,2	-0,046
1849,339	3,18	-0,045
1851,469	3,2	-0,038
1853,604	3,24	-0,027
1855,728	3,3	-0,026
1857,858	3,36	-0,017
1859,994	3,44	-0,008
1862,118	3,46	-0,006
1864,248	3,46	-0,004
1866,378	3,46	-0,002
1868,502	3,46	-0,002
1870,637	3,44	-0,001
1872,755	3,44	0
1874,885	3,42	-0,028
1877,021	3,42	-0,199
1879,139	3,06	-0,325
1881,275	2,36	-0,531
1883,399	2,2	-0,631
1885,523	1,48	-0,787
1887,658	1,04	-0,888
1889,782	1,12	-0,891
1891,9	1,12	-0,88
1894,03	0,92	-0,876
1896,166	0,42	-0,982
1898,29	0,4	-1,022
1900,42	0,2	-1,113
1902,544	-0,08	-1,158
1904,674	-0,16	-1,239
1906,797	-0,28	-1,28
1908,927	-0,52	-1,372
1911,051	-0,6	-1,423
1913,187	-0,78	-1,506
1915,323	-0,98	-1,597
1917,453	-1,08	-1,662
1919,583	-1,42	-1,812
1921,719	-1,5	-1,966
1923,842	-1,68	-1,978
1925,978	-1,74	-2,073
1928,108	-2,12	-2,223
1930,238	-2,24	-2,32
1932,374	-2,58	-2,458
1934,51	-2,82	-2,532
1936,628	-3,24	-2,676
1938,764	-3,82	-2,838
1940,899	-4,2	-3,041
1943,023	-4,62	-3,149
1945,147	-4,4	-3,099
1947,277	-4,18	-3,085
1949,407	-4,76	-3,192
1951,543	-5,24	-3,28
1953,673	-5,54	-3,345
1955,797	-5,72	-3,372
1957,926	-6,38	-3,417
1960,05	-6,62	-3,437
1962,198	-6,98	-3,466
1964,328	-7,16	-3,476
1966,458	-7,22	-3,484
1968,576	-7,2	-3,483
1970,712	-7,28	-3,49
1972,836	-7,3	-3,492
1974,971	-7,3	-3,496
1977,101	-7,3	-3,496
1979,219	-7,3	-3,498
1981,349	-7,28	-3,498
1983,479	-7,26	-3,499
1985,603	-7,26	-3,499
1987,733	-7,24	-3,499
1989,863	-7,22	-3,499
1991,98	-7,22	-3,499
1994,11	-7,22	-3,499
1996,24	-7,2	-3,5
1998,37	-7,2	-3,5
2000,5	-7,18	-3,5
2002,636	-7,18	-3,496
2004,76	-7,18	-3,5
2006,884	-7,18	-3,5
2009,014	-7,16	-3,5
2011,137	-7,16	-3,5
2013,267	-7,16	-3,5
2015,397	-7,16	-3,5
2017,521	-7,16	-3,5
2019,645	-7,14	-3,5
2021,775	-7,16	-3,5
2023,893	-7,14	-3,5
2026,035	-7,12	-3,432
2028,158	-7,1	-3,307
2030,276	-7,1	-3,349
2032,412	-7,1	-3,236
2034,536	-6,44	-3,131
2036,66	-6,62	-3,165
2038,79	-6,36	-3,057
2040,908	-6,02	-2,983
2043,044	-4,62	-2,775
2045,179	-3,74	-2,623
2047,297	-3,86	-2,654
2049,433	-3,66	-2,539
2051,563	-3,1	-2,457
2053,693	-2,46	-2,339
2055,823	-2,28	-2,243
2057,953	-2,14	-2,162
2060,077	-2	-2,19
2062,213	-1,86	-2,075
2064,336	-1,58	-2,061
2066,466	-1,72	-2,054
2068,596	-1,4	-1,984
2070,72	-1,54	-2,014
2072,844	-1,2	-1,872
2074,968	-1,3	-1,885
2077,098	-0,96	-1,804
2079,228	-0,82	-1,685
2081,357	-0,56	-1,614
2083,475	-0,7	-1,696
2085,611	-0,4	-1,559
2087,735	-0,6	-1,645
2089,859	-0,52	-1,578
2091,995	-0,34	-1,504
2094,125	-0,38	-1,488
2096,243	-0,54	-1,515
2098,372	-0,26	-1,403
2100,712	1,62	-0,298
2102,83	1,66	-0,294
2104,96	1,74	-0,227
2107,102	2,1	-0,146
2109,31	3,18	-0,03
2111,446	3,28	-0,014
2113,582	3,32	-0,009
2115,699	3,32	-0,008
2117,841	3,34	-0,004
2120,151	2,76	-0,395
2122,287	2,52	-0,537
2124,417	1,8	-0,629
2126,559	0,86	-0,878
2128,773	-0,52	-1,405
2131,119	-2,52	-2,566
2133,254	-2,9	-2,692
2135,378	-3,08	-2,786
2137,502	-3,2	-2,837
2139,626	-3,12	-2,839
2141,75	-3,36	-2,847
2143,874	-3,48	-2,909
2145,998	-3,6	-2,956
2148,122	-3,6	-2,978
2150,252	-4,28	-3,123
2152,375	-4,02	-3,074
2154,517	-4,42	-3,187
2156,641	-4,12	-3,122
2158,771	-4,44	-3,166
2160,901	-4,52	-3,232
2163,019	-4,54	-3,252
2165,155	-4,84	-3,28
2167,284	-4,84	-3,311
2169,414	-4,96	-3,348
2171,544	-5,46	-3,408
2173,668	-5,98	-3,424
2175,786	-5,94	-3,418
2177,91	-6,04	-3,429
2180,028	-6,14	-3,442
2182,164	-6,22	-3,454
2184,294	-6,46	-3,465
2186,429	-6,64	-3,478
2188,547	-6,72	-3,486
2190,683	-6,74	-3,491
2192,819	-6,78	-3,494
2194,943	-6,78	-3,495
2197,073	-6,8	-3,496
2199,197	-6,78	-3,497
2201,321	-6,76	-3,498
2203,444	-6,76	-3,498
2205,568	-6,76	-3,498
2207,692	-6,76	-3,498
2209,822	-6,76	-3,499
2211,946	-6,76	-3,499
2214,076	-6,72	-3,499
2216,2	-6,74	-3,499
2218,342	-6,72	-3,5
2220,465	-6,7	-3,497
2222,589	-6,7	-3,456
2224,719	-6,7	-3,482
2226,855	-6,68	-3,371
2228,979	-6,68	-3,387
2231,109	-6,66	-3,349
2233,239	-6,68	-3,284
2235,363	-6,32	-3,243
2237,498	-6,64	-3,244
2239,616	-6,66	-3,277
2241,746	-6,64	-3,222
2243,882	-5,78	-3,13
2246,006	-5,74	-3,127
2248,13	-6,12	-3,124
2250,266	-5,82	-3,066
2252,384	-5,88	-3,098
2254,52	-5,82	-2,998
2256,637	-5,58	-2,955
2258,767	-4,5	-2,826
2260,903	-3,48	-2,641
2263,035	-3,18	-2,534
2265,151	-3,14	-2,539
2267,275	-2,76	-2,398
2269,405	-2,22	-2,295
2271,535	-2,18	-2,241
2273,664	-1,82	-2,171
2275,788	-1,56	-2,057
2277,924	-1,08	-1,893
2280,042	-1,06	-1,894
2282,166	-0,98	-1,826
2284,29	-0,84	-1,738
2286,408	-0,74	-1,701
2288,538	-0,64	-1,6
2290,667	-0,3	-1,47
2292,785	-0,1	-1,344
2294,915	-0,1	-1,305
2297,039	0,12	-1,228
2299,157	0	-1,223
2301,287	0,2	-1,13
2303,417	0,22	-1,077
2305,541	0,52	-0,93
2307,676	0,6	-0,788
2309,806	0,88	-0,658
2311,93	0,8	-0,698
2314,06	0,8	-0,735
2316,19	0,8	-0,685
2318,314	0,68	-0,756
2320,438	0,8	-0,754
2322,556	0,56	-0,834
2324,686	0,66	-0,806
2326,809	0,54	-0,804
2328,945	0,64	-0,751
2331,075	0,58	-0,75
2333,205	0,68	-0,738
2335,341	0,7	-0,738
2337,471	0,78	-0,647
2339,595	0,58	-0,66
2341,731	0,82	-0,614
2343,848	0,76	-0,677
2345,984	0,84	-0,634
2348,114	0,88	-0,555
2350,238	1,08	-0,51
2352,368	1	-0,508
2354,504	1,16	-0,434
2356,628	1,08	-0,464
2358,752	0,98	-0,412
2360,887	1,32	-0,338
2363,017	1,48	-0,31
2365,147	1,36	-0,32
2367,265	1,42	-0,3
2369,389	1,42	-0,29
2371,513	1,3	-0,32
2373,643	1,42	-0,28
2375,779	1,78	-0,206
2377,914	2,02	-0,164
2380,032	1,66	-0,19
2382,162	1,76	-0,198
2384,28	1,82	-0,19
2386,422	2,04	-0,144
2388,546	1,92	-0,155
2390,67	1,74	-0,182
2392,8	1,94	-0,167
2394,929	1,68	-0,195
2397,059	1,82	-0,195
2399,189	1,74	-0,179
2401,319	2,06	-0,141
2403,437	1,96	-0,17
2405,579	2,08	-0,138
2407,703	1,86	-0,17
2409,845	1,96	-0,148
2411,981	2,22	-0,112
2414,104	2,02	-0,108
2416,234	2,26	-0,095
2418,37	2,5	-0,072
2420,488	2,22	-0,08
2422,624	2,5	-0,059
2424,742	2,34	-0,075
2426,884	2,4	-0,067
2429,02	2,68	-0,047
2431,143	2,66	-0,046
2433,285	2,7	-0,042
2435,409	2,58	-0,049
2437,533	2,7	-0,051
2439,663	2,72	-0,042
2441,787	2,64	-0,045
2443,917	2,78	-0,039
2446,053	2,82	-0,038
2448,17	2,84	-0,036
2450,294	2,86	-0,033
2452,412	2,68	-0,04
2454,548	2,74	-0,037
2456,678	2,86	-0,029
2458,808	2,9	-0,028
2460,938	2,9	-0,024
2463,056	2,92	-0,025
2465,185	2,9	-0,022
2467,309	2,96	-0,021
2469,433	2,94	-0,021
2471,557	2,9	-0,022
2473,681	2,94	-0,019
2475,799	2,94	-0,019
2477,929	3	-0,012
2480,053	3	-0,012
2482,188	3,02	-0,01
2484,516	3,02	-0,018
2486,64	3,02	-0,012
2488,764	3,02	-0,059
2490,894	3	-0,072
2493,192	0,34	-0,946
2495,316	0,6	-0,933
2497,542	-0,42	-1,512
2499,672	-0,46	-1,518
2501,807	-0,66	-1,64
2503,931	-0,58	-1,615
2506,061	-0,56	-1,67
2508,185	-0,66	-1,63
2510,321	-0,54	-1,623
2512,445	-0,58	-1,59
2514,569	-0,64	-1,619
2516,699	-0,5	-1,572
2518,828	-0,54	-1,531
2520,946	-0,46	-1,483
2523,076	-0,38	-1,478
2525,206	-0,4	-1,442
2527,33	-0,36	-1,419
2529,46	-0,36	-1,436
2531,578	-0,4	-1,479
2533,708	-0,54	-1,549
2535,831	-0,44	-1,503
2537,961	-0,42	-1,516
2540,091	-0,66	-1,623
2542,215	-0,66	-1,664
2544,339	-0,82	-1,766
2546,481	-0,92	-1,871
2548,599	-0,98	-1,918
2550,735	-1,1	-1,987
2552,853	-1,16	-2,054
2554,976	-1,08	-1,981
2557,112	-1,16	-2,015
2559,236	-1,1	-2,018
2561,372	-1,22	-2,067
2563,49	-1,14	-2,017
2565,62	-1,04	-1,987
2567,75	-1,12	-1,988
2569,873	-1,14	-2,033
2571,997	-1,16	-2,067
2574,121	-1,34	-2,097
2576,245	-1,38	-2,154
2578,375	-1,38	-2,213
2580,499	-1,34	-2,287
2582,629	-1,68	-2,441
2584,753	-1,74	-2,477
2586,87	-1,8	-2,497
2589	-2,02	-2,557
2591,124	-2,08	-2,618
2593,254	-2,18	-2,72
2595,378	-2,4	-2,841
2597,496	-2,58	-2,904
2599,626	-3,08	-3,043
2601,75	-3,22	-3,11
2603,88	-3,72	-3,216
2606,009	-3,88	-3,284
2608,127	-3,8	-3,261
2610,257	-4,02	-3,332
2612,381	-4,46	-3,35
2614,517	-4,5	-3,389
2616,647	-4,98	-3,418
2618,771	-5,2	-3,44
2620,895	-5,4	-3,457
2623,012	-5,4	-3,456
2625,142	-5,7	-3,476
2627,272	-5,74	-3,483
2629,396	-5,76	-3,485
2631,526	-5,82	-3,488
2633,656	-5,82	-3,492
2635,78	-5,84	-3,494
2637,916	-5,84	-3,496
2640,039	-5,84	-3,498
2642,175	-5,82	-3,499
2644,293	-5,8	-3,499
2646,423	-5,8	-3,488
2648,541	-5,78	-3,45
2650,671	-5,76	-3,364
2652,795	-5,76	-3,236
2654,919	-5,48	-3,151
2657,054	-4,44	-2,949
2659,184	-3,64	-2,831
2661,308	-2,86	-2,62
2663,432	-2,08	-2,362
2665,55	-2,08	-2,368
2667,674	-2,12	-2,29
2669,798	-1,54	-2,068
2671,928	-1,32	-1,989
2674,058	-0,96	-1,86
2676,175	-0,78	-1,77
2678,299	-0,6	-1,624
2680,435	-0,3	-1,448
2682,565	-0,24	-1,368
2684,695	0,02	-1,209
2686,819	-0,04	-1,146
2688,949	0,18	-0,985
2691,079	0,42	-0,846
2693,22	0,62	-0,668
2695,35	0,72	-0,534
2697,474	0,94	-0,46
2699,598	0,96	-0,416
2701,728	1,14	-0,273
2703,852	1,48	-0,154
2705,994	2,26	-0,072
2708,118	2,44	-0,052
2710,253	2,7	-0,024
2712,389	2,68	-0,015
2714,507	2,8	-0,008
2716,631	2,82	-0,006
2718,755	2,82	-0,004
2720,885	2,82	-0,003
2723,021	2,82	-0,002
2725,139	2,82	-0,001
2727,262	2,82	-0,001
2729,392	2,82	-0,001
2731,516	2,8	0
2733,658	2,8	-0,138
2735,776	2,8	-0,196
2737,906	2,34	-0,42
2740,024	2,12	-0,504
2742,148	1,5	-0,598
2744,278	1,18	-0,759
2746,407	0,66	-0,845
2748,537	0,4	-0,93
2750,655	0,06	-1,074
2752,779	0,02	-1,142
2754,903	0,06	-1,264
2757,033	-0,22	-1,347
2759,163	-0,32	-1,486
2761,299	-0,52	-1,624
2763,422	-0,62	-1,738
2765,558	-0,78	-1,86
2767,676	-0,86	-1,945
2769,812	-1,1	-2,109
2771,936	-1,3	-2,26
2774,072	-1,6	-2,435
2776,202	-1,68	-2,548
2778,332	-2,04	-2,693
2780,455	-2,22	-2,792
2782,585	-2,46	-2,941
2784,709	-2,92	-3,036
2786,833	-3,02	-3,146
2788,969	-3,6	-3,276
2791,105	-3,52	-3,293
2793,229	-4,06	-3,33
2795,353	-4,3	-3,374
2797,482	-4,4	-3,402
2799,612	-4,9	-3,434
2801,742	-5,02	-3,451
2803,866	-5,04	-3,455
2805,996	-5,38	-3,476
2808,114	-5,48	-3,484
2810,244	-5,5	-3,49
2812,368	-5,58	-3,494
2814,498	-5,58	-3,496
2816,633	-5,56	-3,498
2818,757	-5,56	-3,498
2820,881	-5,54	-3,499
2823,017	-5,54	-3,5
2825,141	-5,54	-3,383
2827,271	-5,2	-3,242
2829,395	-4,82	-3,115
2831,519	-4,5	-2,989
2833,648	-3,6	-2,87
2835,772	-3,08	-2,745
2837,908	-2,56	-2,613
2840,026	-2,28	-2,523
2842,156	-2,02	-2,358
2844,286	-1,52	-2,213
2846,41	-1,48	-2,173
2848,534	-1,28	-2,063
2850,663	-0,84	-1,865
2852,787	-0,76	-1,793
2854,923	-0,62	-1,666
2857,047	-0,44	-1,535
2859,177	-0,32	-1,38
2861,307	0	-1,171
2863,437	0,08	-1,038
2865,561	0,24	-0,88
2867,684	0,42	-0,793
2869,814	0,56	-0,626
2871,932	0,58	-0,61
2874,062	0,82	-0,466
2876,204	1,26	-0,217
2878,352	1,8	-0,091
2880,482	2,38	-0,044
2882,6	2,4	-0,031
2884,724	2,56	-0,022
2886,847	2,62	-0,016
2888,977	2,68	-0,008
2891,113	2,7	-0,005
2893,237	2,7	-0,004
2895,367	2,72	-0,002
2897,485	2,72	-0,002
2899,615	2,7	-0,001
2901,745	2,7	-0,001
2903,868	2,7	-0,001
2906,004	2,68	-0,142
2908,128	2,68	-0,236
2910,258	2,34	-0,34
2912,382	2,2	-0,434
2914,506	1,62	-0,56
2916,63	1,28	-0,738
2918,76	0,38	-0,888
2920,896	0,2	-1,063
2923,025	-0,04	-1,246
2925,155	-0,14	-1,38
2927,279	-0,38	-1,494
2929,403	-0,56	-1,657
2931,533	-0,56	-1,807
2933,651	-0,78	-1,886
2935,793	-1,02	-2,102
2937,922	-1,28	-2,286
2940,046	-1,42	-2,377
2942,17	-1,64	-2,518
2944,288	-1,74	-2,572
2946,418	-2,12	-2,72
2948,542	-2,46	-2,894
2950,678	-3,08	-3,106
2952,802	-3,42	-3,232
2954,925	-3,92	-3,334
2957,067	-4,64	-3,422
2959,191	-4,92	-3,45
2961,321	-5,14	-3,463
2963,439	-5	-3,477
2965,575	-5,22	-3,484
2967,699	-5,4	-3,488
2969,823	-5,4	-3,493
2971,959	-5,42	-3,496
2974,082	-5,42	-3,497
2976,218	-5,42	-3,498
2978,36	-5,42	-3,5
2980,49	-5,42	-3,486
2982,62	-5,4	-3,268
2984,738	-5,3	-3,218
2986,868	-4,96	-3,076
2988,992	-4,42	-2,86
2991,121	-3,4	-2,79
2993,251	-2,9	-2,614
2995,375	-2,08	-2,419
2997,505	-1,82	-2,249
2999,623	-1,7	-2,212
3001,759	-1,48	-2,133
3003,877	-1,18	-1,999
3006,007	-1	-1,855
3008,136	-0,68	-1,716
3010,254	-0,48	-1,583
3012,384	-0,34	-1,423
3014,508	-0,16	-1,26
3016,632	-0,1	-1,194
3018,756	0,12	-1,064
3020,886	0,16	-0,987
3023,022	0,36	-0,818
3025,145	0,48	-0,672
3027,275	0,7	-0,537
3029,399	0,88	-0,37
3031,535	1,08	-0,201
3033,659	1,62	-0,121
3035,789	1,82	-0,078
3037,931	2,18	-0,045
3040,055	2,42	-0,03
3042,184	2,52	-0,016
3044,308	2,56	-0,011
3046,444	2,6	-0,005
3048,568	2,62	-0,004
3050,686	2,62	-0,002
3052,816	2,64	-0,001
3054,934	2,62	-0,001
3057,076	2,62	-0,058
3059,2	2,62	-0,203
3061,323	2,4	-0,326
3063,459	1,4	-0,561
3065,589	1,2	-0,701
3067,713	0,48	-0,852
3069,843	0,26	-0,992
3071,973	0,08	-1,099
3074,097	-0,14	-1,293
3076,233	-0,38	-1,473
3078,356	-0,5	-1,598
3080,474	-0,58	-1,7
3082,61	-0,82	-1,895
3084,728	-0,78	-1,97
3086,858	-1,12	-2,189
3088,982	-1,3	-2,314
3091,112	-1,48	-2,48
3093,242	-1,48	-2,523
3095,365	-1,7	-2,655
3097,507	-1,9	-2,789
3099,631	-2,26	-2,883
3101,773	-2,62	-3,04
3103,891	-2,7	-3,056
3106,027	-2,78	-3,162
3108,145	-3,3	-3,296
3110,281	-3,96	-3,383
3112,404	-4,22	-3,414
3114,522	-4,6	-3,439
3116,658	-4,92	-3,462
3118,782	-5,06	-3,474
3120,912	-5,24	-3,484
3123,03	-5,28	-3,488
3125,25	-5,34	-3,498
3127,374	-5,34	-3,498
3129,498	-5,34	-3,499
3131,621	-5,34	-3,499
3133,949	-2,2	-2,438
3136,073	-1,82	-2,326
3138,209	-1,42	-2,157
3140,333	-1,28	-2,064
3142,469	-0,86	-1,856
3144,587	-0,6	-1,703
3146,729	-0,34	-1,494
3148,852	-0,14	-1,324
3150,994	0,1	-1,058
3153,112	0,16	-1,01
3155,248	0,4	-0,798
3157,366	0,5	-0,671
3159,49	0,64	-0,556
3161,62	0,82	-0,368
3163,738	1,06	-0,24
3165,879	1,6	-0,108
3168,009	2,12	-0,06
3170,133	2,28	-0,038
3170,397	2,56	0