File: Cycling_tests/sem_TC/entrada/_2.txt
Time (s)	Load (N)	Displacement (mm)
0	0	-0,035
2,232	-0,5	-0,435
4,397	0	-0,472
6,557	0	-0,48
8,717	0	-0,493
10,877	-0,5	-0,522
13,043	-1,5	-0,624
15,203	-0,5	-0,577
17,363	0	-0,548
19,529	-1	-0,628
21,694	-1,5	-0,623
23,866	-1	-0,637
26,026	-1	-0,619
28,192	-1,5	-0,608
30,352	-1	-0,563
32,518	-0,5	-0,585
34,678	-1	-0,609
36,843	-2,5	-0,768
39,003	-2,5	-0,749
41,163	-1,5	-0,705
43,329	-3	-0,774
45,489	-3,5	-0,78
47,649	-3,5	-0,816
49,821	-5	-0,978
51,999	-7,5	-1,209
54,165	-6,5	-1,257
56,33	-9	-1,443
58,496	-8	-1,423
60,662	-8	-1,438
62,822	-8	-1,441
65,006	-9	-1,59
67,166	-9	-1,608
69,332	-10,5	-1,672
71,492	-10,5	-1,728
73,657	-11	-1,802
75,817	-11	-1,835
77,983	-11,5	-1,874
80,143	-11,5	-1,856
82,303	-11	-1,842
84,463	-11,5	-1,871
86,635	-13	-1,965
88,807	-14,5	-2,054
90,966	-15	-2,108
93,126	-15	-2,16
95,286	-15	-2,178
97,452	-15	-2,178
99,618	-15	-2,21
101,784	-15	-2,274
103,95	-16,5	-2,327
106,116	-16	-2,344
108,293	-19,5	-2,585
110,459	-19,5	-2,655
112,625	-21	-2,74
114,791	-22,5	-2,89
116,951	-23,5	-3,015
119,111	-24,5	-3,165
121,277	-27	-3,332
123,437	-27	-3,386
125,603	-30	-3,43
127,762	-30,5	-3,441
129,928	-31,5	-3,458
132,1	-32	-3,477
134,26	-32	-3,48
136,426	-32,5	-3,489
138,586	-32,5	-3,492
140,746	-32,5	-3,494
142,905	-32,5	-3,495
145,077	-32,5	-3,497
147,237	-32,5	-3,498
149,409	-32,5	-3,498
151,581	-32,5	-3,499
153,747	-32,5	-3,499
155,913	-32,5	-3,499
158,079	-32,5	-3,5
160,238	-32	-3,461
162,398	-32,5	-3,348
164,57	-31,5	-3,161
166,736	-30,5	-3,031
168,914	-27	-2,822
171,086	-24,5	-2,69
173,258	-23,5	-2,505
175,424	-21,5	-2,361
177,595	-20	-2,177
179,767	-17,5	-2,004
181,933	-16	-1,86
184,099	-14,5	-1,796
186,259	-15	-1,735
188,431	-12	-1,55
190,597	-11	-1,411
192,769	-9	-1,279
194,928	-8	-1,166
197,094	-6,5	-1,001
199,26	-5	-0,926
201,438	-5	-0,817
203,61	-3,5	-0,697
205,776	-3	-0,612
207,942	-2,5	-0,563
210,114	-2	-0,443
212,279	-1	-0,394
214,451	-0,5	-0,237
216,623	0,5	-0,176
218,795	0	-0,156
220,967	1,5	-0,11
223,139	2,5	-0,068
225,305	3	-0,048
227,477	3,5	-0,027
229,654	3,5	-0,018
231,826	3,5	-0,013
233,992	3,5	-0,006
236,164	3,5	-0,005
238,33	3,5	-0,004
240,502	3,5	-0,003
242,668	3,5	-0,002
244,84	3,5	-0,002
247,006	3,5	-0,001
249,177	3,5	-0,001
251,343	3,5	-0,001
253,521	3,5	-0,022
255,693	3,5	-0,152
257,865	3,5	-0,268
260,043	2	-0,42
262,209	2	-0,486
264,38	0	-0,578
266,546	-0,5	-0,716
268,718	-2	-0,789
270,89	-3	-0,97
273,068	-4,5	-1,114
275,24	-5,5	-1,261
277,418	-5,5	-1,311
279,584	-5,5	-1,29
281,755	-5,5	-1,209
283,927	-5	-1,24
286,093	-5,5	-1,18
288,271	-4,5	-1,182
290,437	-5	-1,12
292,615	-6	-1,281
294,793	-6	-1,309
296,971	-6,5	-1,498
299,148	-7,5	-1,595
301,32	-8,5	-1,7
303,498	-9,5	-1,854
305,676	-10,5	-1,89
307,836	-11,5	-1,999
310,002	-12	-2,079
312,186	-14,5	-2,318
314,358	-16,5	-2,466
316,542	-19,5	-2,746
318,707	-20	-2,849
320,879	-22	-3,001
323,045	-23,5	-3,161
325,217	-25	-3,28
327,383	-25,5	-3,338
329,555	-28,5	-3,424
331,739	-29,5	-3,464
333,904	-30	-3,48
336,082	-30,5	-3,49
338,248	-30,5	-3,494
340,42	-31	-3,497
342,58	-30,5	-3,497
344,758	-31	-3,498
346,924	-31	-3,499
349,102	-31	-3,5
351,267	-30,5	-3,413
353,439	-30,5	-3,231
355,611	-26,5	-2,964
357,771	-25	-2,881
359,949	-23	-2,683
362,121	-21	-2,439
364,305	-18,5	-2,19
366,477	-16,5	-2,085
368,655	-14	-1,897
370,82	-12,5	-1,737
372,998	-9,5	-1,469
375,164	-9	-1,368
377,342	-7	-1,206
379,515	-5	-0,984
381,698	-3	-0,73
383,876	-2	-0,563
386,053	-0,5	-0,391
388,231	0	-0,22
390,403	0,5	-0,172
392,569	1,5	-0,126
394,741	3	-0,068
396,907	3	-0,044
399,073	3,5	-0,031
401,239	3,5	-0,022
403,411	3,5	-0,012
405,588	3,5	-0,008
407,76	4	-0,005
409,938	4	-0,004
412,11	4	-0,003
414,282	3,5	-0,002
416,454	3,5	-0,001
418,626	4	-0,001
420,804	3,5	-0,001
422,981	3,5	0
425,147	3,5	0
427,325	3,5	-0,108
429,497	3,5	-0,253
431,669	2,5	-0,374
433,847	0	-0,568
436,031	-2	-0,807
438,203	-2,5	-0,927
440,374	-3,5	-1,012
442,546	-5	-1,217
444,724	-6	-1,416
446,89	-6	-1,443
449,062	-6	-1,52
451,234	-7,5	-1,61
453,412	-9	-1,846
455,572	-10	-1,912
457,749	-12	-2,121
459,927	-14,5	-2,346
462,093	-15	-2,457
464,259	-15,5	-2,628
466,431	-18,5	-2,738
468,609	-20,5	-2,911
470,781	-20,5	-3,037
472,958	-23	-3,188
475,124	-25	-3,309
477,296	-26,5	-3,395
479,462	-26	-3,424
481,628	-28,5	-3,451
483,794	-29	-3,472
485,966	-28,5	-3,48
488,138	-29,5	-3,49
490,304	-29,5	-3,491
492,481	-29,5	-3,495
494,647	-29,5	-3,497
496,825	-29,5	-3,498
498,997	-29,5	-3,498
501,169	-29,5	-3,499
503,347	-29,5	-3,499
505,507	-29,5	-3,5
507,679	-29,5	-3,486
509,856	-29,5	-3,274
512,034	-26,5	-2,999
514,206	-24	-2,866
516,384	-22	-2,674
518,562	-22,5	-2,479
520,734	-18,5	-2,306
522,9	-16,5	-2,215
525,072	-18	-2,094
527,244	-12,5	-1,867
529,421	-10,5	-1,728
531,593	-10,5	-1,639
533,765	-8,5	-1,502
535,943	-7,5	-1,404
538,121	-6	-1,275
540,299	-5	-1,088
542,465	-4,5	-1,06
544,642	-3	-0,856
546,82	-2,5	-0,742
548,992	-2,5	-0,654
551,158	-1,5	-0,53
553,33	-1,5	-0,479
555,49	-1,5	-0,44
557,662	0	-0,227
559,84	1,5	-0,114
562,011	2,5	-0,058
564,183	3,5	-0,033
566,361	3,5	-0,023
568,539	3,5	-0,013
570,711	3,5	-0,007
572,883	3,5	-0,004
575,055	4	-0,003
577,233	3,5	-0,001
579,398	4	-0,001
581,564	4	-0,001
583,742	3,5	-0,064
585,92	3,5	-0,292
588,098	2,5	-0,455
590,27	2	-0,561
592,436	-0,5	-0,73
594,608	-1	-0,825
596,78	-3	-1,004
598,945	-3,5	-1,095
601,117	-4,5	-1,262
603,283	-5	-1,376
605,461	-6	-1,59
607,627	-7,5	-1,751
609,799	-8,5	-1,871
611,983	-10,5	-2,089
614,154	-12	-2,22
616,326	-13	-2,383
618,498	-14,5	-2,606
620,67	-16,5	-2,731
622,848	-18	-2,855
625,02	-20	-2,982
627,192	-22	-3,14
629,37	-23	-3,286
631,536	-25	-3,354
633,701	-26	-3,402
635,867	-26,5	-3,429
638,033	-27,5	-3,448
640,211	-28	-3,466
642,377	-28	-3,473
644,543	-28,5	-3,479
646,715	-28,5	-3,489
648,893	-28,5	-3,494
651,052	-28,5	-3,496
653,224	-28,5	-3,497
655,396	-28,5	-3,498
657,568	-28,5	-3,498
659,734	-28,5	-3,499
661,918	-28,5	-3,499
664,096	-28,5	-3,499
666,267	-28,5	-3,307
668,439	-28,5	-3,182
670,611	-26,5	-3,055
672,789	-24	-2,883
674,961	-24	-2,82
677,139	-22	-2,664
679,311	-20,5	-2,554
681,477	-21,5	-2,49
683,642	-20	-2,453
685,82	-17,5	-2,28
687,998	-15,5	-2,134
690,176	-14	-1,988
692,348	-11	-1,795
694,508	-10	-1,674
696,692	-8	-1,478
698,864	-7,5	-1,347
701,047	-4,5	-1,102
703,219	-4,5	-0,998
705,385	-3	-0,833
707,551	-2	-0,693
709,723	-1	-0,514
711,901	0	-0,276
714,067	1,5	-0,139
716,239	2,5	-0,072
718,411	3,5	-0,055
720,588	3,5	-0,033
722,76	3,5	-0,026
724,938	4	-0,013
727,104	4	-0,007
729,27	4	-0,006
731,436	4	-0,003
733,614	4	-0,002
735,79	4	-0,001
737,957	4	-0,001
740,129	4	-0,001
742,301	4	0
744,479	4	-0,088
746,657	3,5	-0,313
748,823	3	-0,425
751,001	2,5	-0,576
753,179	-0,5	-0,749
755,344	-1,5	-0,771
757,517	-2	-0,886
759,694	-3	-1,051
761,866	-4	-1,172
764,044	-5,5	-1,409
766,216	-5,5	-1,529
768,388	-7	-1,692
770,56	-7,5	-1,866
772,738	-9	-2,034
774,909	-11	-2,218
777,075	-12,5	-2,333
779,247	-13,5	-2,456
781,419	-15	-2,651
783,591	-16,5	-2,746
785,763	-18,5	-2,893
787,935	-19,5	-3,003
790,1	-20,5	-3,106
792,278	-22	-3,236
794,438	-23	-3,332
796,616	-25,5	-3,407
798,782	-27	-3,428
800,954	-27,5	-3,461
803,12	-28	-3,475
805,298	-28	-3,484
807,469	-28,5	-3,492
809,647	-28,5	-3,496
811,819	-28,5	-3,497
813,985	-28,5	-3,498
816,157	-28,5	-3,499
818,323	-28,5	-3,499
820,495	-28,5	-3,48
822,667	-28,5	-3,36
824,838	-28	-3,15
827,01	-24,5	-2,961
829,176	-24	-2,869
831,342	-22	-2,756
833,526	-19,5	-2,518
835,692	-20	-2,432
837,864	-16,5	-2,278
840,036	-15,5	-2,174
842,207	-13,5	-2,027
844,367	-12	-1,904
846,533	-13	-1,859
848,711	-10	-1,703
850,883	-8	-1,529
853,055	-7,5	-1,414
855,221	-6	-1,37
857,399	-5,5	-1,194
859,564	-3,5	-0,991
861,73	-3	-0,889
863,902	-2	-0,754
866,074	-1,5	-0,573
868,24	0	-0,399
870,4	0	-0,305
872,578	1,5	-0,152
874,75	2	-0,112
876,928	3	-0,068
879,099	3,5	-0,041
881,289	4	-0,021
883,467	4	-0,012
885,633	4	-0,006
887,811	4	-0,003
889,977	4	-0,002
892,149	4	-0,001
894,32	4	-0,001
896,498	4	-0,006
898,664	4	-0,217
900,836	2,5	-0,399
903,002	0	-0,644
905,168	-1,5	-0,836
907,34	-3	-1,089
909,512	-4,5	-1,322
911,677	-6	-1,562
913,849	-6,5	-1,72
916,027	-8,5	-1,966
918,199	-10,5	-2,146
920,365	-11,5	-2,32
922,537	-13,5	-2,474
924,709	-15,5	-2,732
926,887	-17,5	-2,889
929,058	-17	-3,105
931,23	-21,5	-3,251
933,402	-24	-3,363
935,568	-24	-3,439
937,74	-26,5	-3,47
939,918	-27,5	-3,484
942,09	-27,5	-3,494
944,256	-27,5	-3,497
946,422	-27,5	-3,497
948,599	-27,5	-3,499
950,765	-27,5	-3,483
952,937	-27,5	-3,157
955,103	-24	-2,959
957,269	-23,5	-2,719
959,441	-20	-2,493
961,607	-16,5	-2,311
963,778	-13,5	-2,105
965,956	-10,5	-1,838
968,128	-9	-1,626
970,288	-6,5	-1,412
972,46	-4,5	-1,142
974,626	-3,5	-1,004
976,804	-2	-0,789
978,97	-0,5	-0,592
981,142	0	-0,419
983,319	1	-0,224
985,491	2	-0,133
987,663	3	-0,064
989,835	3,5	-0,032
992,007	4	-0,016
994,179	4	-0,007
996,345	4	-0,004
998,516	4	-0,002
1000,688	4,5	-0,001
1002,854	4	-0,001
1005,026	4	-0,012
1007,192	4	-0,12
1009,364	3,5	-0,295
1011,53	1,5	-0,461
1013,696	1,5	-0,514
1015,868	-1	-0,71
1018,039	-1,5	-0,831
1020,211	-3,5	-1,068
1022,383	-3,5	-1,162
1024,549	-4	-1,264
1026,715	-5	-1,44
1028,887	-6	-1,64
1031,059	-7,5	-1,842
1033,23	-9	-2,015
1035,402	-10	-2,179
1037,568	-11	-2,332
1039,734	-12,5	-2,461
1041,906	-14,5	-2,635
1044,072	-16,5	-2,847
1046,244	-18,5	-3,091
1048,416	-22	-3,297
1050,588	-22,5	-3,363
1052,753	-24,5	-3,418
1054,925	-26	-3,457
1057,091	-26,5	-3,47
1059,263	-27	-3,483
1061,435	-27	-3,489
1063,607	-27,5	-3,495
1065,773	-27	-3,496
1067,945	-27	-3,497
1070,116	-27	-3,498
1072,288	-27	-3,499
1074,472	-27	-3,5
1076,638	-27	-3,472
1078,804	-27	-3,343
1080,982	-27	-3,116
1083,148	-25	-3,024
1085,326	-22,5	-2,783
1087,491	-21,5	-2,692
1089,669	-19	-2,514
1091,853	-15,5	-2,264
1094,019	-14	-2,088
1096,197	-10,5	-1,816
1098,363	-8,5	-1,655
1100,535	-7,5	-1,493
1102,701	-6	-1,279
1104,872	-4,5	-1,143
1107,044	-3	-0,954
1109,222	-1,5	-0,69
1111,388	-1	-0,621
1113,566	0	-0,38
1115,732	0	-0,29
1117,91	1	-0,163
1120,082	3	-0,082
1122,247	3,5	-0,043
1124,419	4	-0,022
1126,585	4	-0,013
1128,751	4	-0,006
1130,923	4	-0,003
1133,095	4,5	-0,002
1135,267	4	-0,002
1137,427	4	-0,001
1139,598	4	-0,001
1141,776	4	-0,088
1143,942	3,5	-0,272
1146,114	2,5	-0,516
1148,286	0	-0,701
1150,458	-1	-0,897
1152,636	-3	-1,106
1154,802	-3,5	-1,262
1156,979	-4,5	-1,432
1159,139	-5,5	-1,669
1161,305	-7,5	-1,914
1163,471	-8	-2,027
1165,643	-10,5	-2,259
1167,815	-12,5	-2,544
1169,987	-15,5	-2,835
1172,153	-16,5	-2,915
1174,324	-19,5	-3,1
1176,496	-20,5	-3,259
1178,668	-23,5	-3,377
1180,846	-25	-3,436
1183,018	-26	-3,459
1185,19	-26,5	-3,48
1187,356	-27	-3,486
1189,534	-26,5	-3,494
1191,699	-27	-3,495
1193,877	-27	-3,498
1196,043	-27	-3,498
1198,215	-27	-3,499
1200,393	-27	-3,5
1202,559	-27	-3,395
1204,737	-26,5	-3,201
1206,903	-24	-2,965
1209,08	-21	-2,745
1211,246	-19,5	-2,59
1213,424	-18	-2,472
1215,596	-14,5	-2,218
1217,762	-13,5	-2,128
1219,934	-12	-2,023
1222,1	-10	-1,825
1224,278	-7,5	-1,626
1226,443	-7	-1,519
1228,627	-5	-1,206
1230,793	-3	-1,04
1232,965	-2,5	-0,813
1235,137	-1,5	-0,694
1237,303	-0,5	-0,57
1239,475	0	-0,444
1241,647	0	-0,298
1243,824	1,5	-0,149
1245,99	1,5	-0,12
1248,168	3	-0,072
1250,334	3,5	-0,052
1252,506	3,5	-0,03
1254,672	3,5	-0,022
1256,844	4	-0,017
1259,016	4	-0,012
1261,187	4	-0,006
1263,359	4	-0,003
1265,531	4	-0,003
1267,697	4	-0,002
1269,875	4	-0,001
1272,041	4	-0,001
1274,213	4	-0,001
1276,385	4	0
1278,551	4	-0,064
1280,722	4	-0,26
1282,9	1,5	-0,54
1285,072	-0,5	-0,726
1287,244	-1,5	-0,867
1289,416	-3	-1,03
1291,588	-3	-1,14
1293,754	-3,5	-1,216
1295,926	-4	-1,389
1298,097	-5	-1,515
1300,269	-5,5	-1,673
1302,435	-6,5	-1,817
1304,601	-7	-1,951
1306,773	-10	-2,248
1308,951	-12,5	-2,466
1311,123	-13,5	-2,615
1313,289	-15,5	-2,784
1315,46	-16,5	-2,921
1317,626	-18	-3,028
1319,804	-19,5	-3,195
1321,964	-20	-3,222
1324,142	-22	-3,322
1326,308	-23	-3,348
1328,48	-24	-3,418
1330,646	-24,5	-3,447
1332,817	-25,5	-3,467
1334,989	-26,5	-3,479
1337,155	-26,5	-3,486
1339,327	-26,5	-3,492
1341,487	-26,5	-3,495
1343,659	-26,5	-3,498
1345,825	-26,5	-3,498
1348,003	-26,5	-3,499
1350,168	-26,5	-3,499
1352,346	-26,5	-3,466
1354,512	-26,5	-3,327
1356,69	-26	-3,208
1358,856	-25	-3,127
1361,028	-22,5	-2,948
1363,2	-22,5	-2,869
1365,366	-19,5	-2,719
1367,531	-18	-2,555
1369,703	-16,5	-2,37
1371,881	-13,5	-2,13
1374,047	-11	-2,006
1376,213	-10,5	-1,91
1378,385	-8,5	-1,746
1380,557	-7,5	-1,584
1382,729	-6	-1,441
1384,9	-5	-1,283
1387,072	-4	-1,147
1389,232	-3	-1,049
1391,404	-2,5	-0,918
1393,576	-2	-0,78
1395,753	-1	-0,629
1397,92	0	-0,53
1400,092	0	-0,397
1402,257	0	-0,323
1404,435	1,5	-0,18
1406,607	2,5	-0,126
1408,773	3	-0,079
1410,945	3,5	-0,035
1413,117	4	-0,023
1415,289	4	-0,014
1417,461	4	-0,007
1419,632	4	-0,004
1421,804	4	-0,002
1424	4	-0,001
1426,166	4	-0,001
1428,338	4	0
1430,504	4	-0,015
1432,682	4	-0,179
1434,848	3,5	-0,3
1437,019	2,5	-0,465
1439,185	0	-0,597
1441,369	-1	-0,779
1443,535	-2	-0,932
1445,719	-3	-1,183
1447,891	-3,5	-1,298
1450,069	-5	-1,54
1452,241	-5,5	-1,677
1454,412	-7	-1,91
1456,584	-8,5	-2,061
1458,75	-9	-2,147
1460,922	-10,5	-2,278
1463,088	-12	-2,432
1465,266	-14,5	-2,68
1467,432	-15	-2,765
1469,604	-17,5	-2,955
1471,775	-19	-3,15
1473,947	-20	-3,269
1476,119	-23,5	-3,349
1478,291	-23,5	-3,393
1480,463	-25	-3,447
1482,635	-25,5	-3,458
1484,807	-26	-3,473
1486,979	-26	-3,48
1489,15	-26	-3,486
1491,322	-26,5	-3,491
1493,494	-26,5	-3,494
1495,666	-26	-3,496
1497,832	-26,5	-3,498
1500,01	-26,5	-3,498
1502,176	-26,5	-3,499
1504,342	-26	-3,5
1506,507	-26,5	-3,492
1508,679	-26	-3,347
1510,845	-26	-3,233
1513,023	-25	-3,069
1515,189	-23	-2,968
1517,367	-21,5	-2,834
1519,539	-22,5	-2,675
1521,717	-20,5	-2,593
1523,888	-16,5	-2,467
1526,06	-14	-2,33
1528,232	-15	-2,236
1530,404	-13	-2,1
1532,576	-10,5	-1,984
1534,748	-10,5	-1,88
1536,92	-8	-1,678
1539,086	-7,5	-1,604
1541,257	-6,5	-1,536
1543,423	-5,5	-1,377
1545,589	-4,5	-1,217
1547,767	-4	-1,071
1549,933	-3	-0,906
1552,111	-1,5	-0,713
1554,277	-0,5	-0,57
1556,443	0	-0,436
1558,626	1	-0,191
1560,798	3	-0,09
1562,97	3,5	-0,049
1565,136	3,5	-0,037
1567,308	4	-0,027
1569,474	4	-0,017
1571,64	4	-0,012
1573,812	4	-0,007
1575,99	4	-0,004
1578,155	4,5	-0,003
1580,327	4	-0,002
1582,493	4	-0,002
1584,671	4	-0,001
1586,837	4	-0,001
1589,015	4	0
1591,181	4	-0,011
1593,353	4	-0,153
1595,518	4	-0,205
1597,696	3,5	-0,386
1599,862	3	-0,487
1602,028	1,5	-0,637
1604,194	-0,5	-0,796
1606,36	-1,5	-0,936
1608,532	-2,5	-1,094
1610,698	-3	-1,232
1612,875	-3,5	-1,341
1615,041	-4	-1,484
1617,207	-4	-1,548
1619,373	-5	-1,645
1621,551	-5,5	-1,759
1623,717	-6	-1,868
1625,889	-7,5	-1,98
1628,061	-8	-2,144
1630,22	-8,5	-2,2
1632,398	-10,5	-2,419
1634,564	-10,5	-2,488
1636,736	-12	-2,592
1638,902	-12	-2,626
1641,068	-15	-2,802
1643,234	-15,5	-2,941
1645,406	-16,5	-3,076
1647,571	-18,5	-3,167
1649,743	-19,5	-3,288
1651,921	-21	-3,361
1654,087	-23	-3,4
1656,265	-24	-3,445
1658,431	-24,5	-3,459
1660,603	-24,5	-3,47
1662,769	-24,5	-3,478
1664,94	-25	-3,486
1667,106	-25	-3,492
1669,272	-25	-3,493
1671,438	-25	-3,494
1673,61	-25	-3,495
1675,782	-25	-3,496
1677,954	-25	-3,498
1680,126	-25	-3,498
1682,291	-25	-3,499
1684,463	-25	-3,499
1686,629	-25	-3,5
1688,801	-25	-3,377
1690,967	-25	-3,312
1693,139	-25	-3,203
1695,305	-24	-3,133
1697,477	-22,5	-2,969
1699,648	-20	-2,8
1701,82	-18,5	-2,642
1703,998	-15	-2,395
1706,164	-14	-2,358
1708,342	-13	-2,186
1710,508	-10	-2,026
1712,68	-9,5	-1,9
1714,846	-7,5	-1,783
1717,017	-7	-1,677
1719,189	-5,5	-1,525
1721,355	-4,5	-1,391
1723,527	-3,5	-1,207
1725,699	-3	-1,054
1727,865	-2	-1,005
1730,037	-2	-0,87
1732,209	-1	-0,744
1734,38	-0,5	-0,591
1736,546	0	-0,516
1738,718	0	-0,369
1740,89	1	-0,217
1743,056	1,5	-0,175
1745,228	2,5	-0,104
1747,4	3	-0,074
1749,566	3,5	-0,058
1751,731	3,5	-0,053
1753,897	3,5	-0,035
1756,063	4	-0,022
1758,235	4	-0,015
1760,401	4,5	-0,01
1762,573	4	-0,006
1764,745	4,5	-0,004
1766,911	4,5	-0,004
1769,082	4	-0,003
1771,248	4	-0,002
1773,42	4,5	-0,002
1775,586	4	-0,001
1777,764	4	-0,001
1779,93	4	0
1782,096	4	-0,052
1784,262	4	-0,224
1786,421	3,5	-0,314
1788,593	3,5	-0,414
1790,759	1,5	-0,526
1792,931	0,5	-0,652
1795,103	-1,5	-0,885
1797,263	-2	-0,988
1799,435	-2,5	-1,136
1801,607	-3	-1,294
1803,778	-3,5	-1,411
1805,944	-4	-1,506
1808,11	-4,5	-1,634
1810,282	-5,5	-1,828
1812,448	-6	-1,898
1814,614	-6	-1,989
1816,786	-7,5	-2,11
1818,952	-7,5	-2,19
1821,124	-9	-2,327
1823,289	-10	-2,46
1825,467	-11,5	-2,642
1827,633	-12	-2,744
1829,805	-13,5	-2,827
1831,971	-14	-2,925
1834,137	-15,5	-3,02
1836,321	-17	-3,163
1838,487	-17,5	-3,24
1840,664	-18,5	-3,305
1842,824	-19,5	-3,348
1844,99	-20,5	-3,394
1847,162	-21,5	-3,429
1849,334	-22	-3,445
1851,506	-23	-3,469
1853,672	-23	-3,479
1855,843	-23,5	-3,489
1858,015	-23,5	-3,493
1860,187	-23,5	-3,495
1862,359	-23,5	-3,497
1864,525	-23,5	-3,498
1866,691	-23,5	-3,498
1868,863	-23,5	-3,499
1871,029	-23	-3,499
1873,207	-23	-3,462
1875,372	-23	-3,338
1877,55	-22,5	-3,152
1879,71	-20,5	-3,034
1881,882	-19	-2,91
1884,06	-17	-2,77
1886,226	-15,5	-2,68
1888,404	-14	-2,524
1890,57	-13,5	-2,481
1892,729	-12,5	-2,399
1894,901	-10,5	-2,231
1897,073	-9	-2,125
1899,239	-7,5	-1,971
1901,411	-6	-1,855
1903,577	-5,5	-1,723
1905,743	-5	-1,654
1907,915	-4,5	-1,5
1910,087	-3,5	-1,39
1912,252	-3	-1,305
1914,43	-1	-1,01
1916,596	-0,5	-0,872
1918,762	0	-0,729
1920,94	0	-0,524
1923,106	0,5	-0,423
1925,284	1,5	-0,28
1927,444	1,5	-0,224
1929,615	3	-0,127
1931,799	4	-0,049
1933,965	4	-0,036
1936,143	4,5	-0,021
1938,309	4,5	-0,016
1940,475	4,5	-0,011
1942,647	4,5	-0,007
1944,818	4,5	-0,005
1946,984	4,5	-0,004
1949,15	4,5	-0,003
1951,316	4,5	-0,002
1953,494	4,5	-0,002
1955,66	4,5	-0,001
1957,832	4	-0,001
1960,01	4,5	0
1962,181	4,5	-0,07
1964,347	4	-0,229
1966,513	3,5	-0,365
1968,691	2	-0,49
1970,857	0,5	-0,634
1973,035	0	-0,8
1975,207	-1	-0,895
1977,373	-1,5	-0,991
1979,544	-2	-1,218
1981,71	-2,5	-1,316
1983,882	-3	-1,493
1986,048	-3,5	-1,537
1988,214	-3,5	-1,644
1990,386	-4,5	-1,828
1992,552	-5	-1,908
1994,724	-5	-2,109
1996,895	-6	-2,197
1999,067	-7	-2,377
2001,233	-7,5	-2,483
2003,399	-8,5	-2,649
2005,577	-11	-2,958
2007,749	-12,5	-3,1
2009,915	-12,5	-3,144
2012,081	-14	-3,292
2014,246	-14,5	-3,351
2016,43	-14	-3,42
2018,596	-16,5	-3,436
2020,768	-17,5	-3,464
2022,934	-17,5	-3,469
2025,1	-18	-3,483
2027,266	-18	-3,485
2029,444	-18,5	-3,492
2031,609	-18,5	-3,494
2033,787	-18,5	-3,495
2035,953	-18,5	-3,495
2038,119	-18	-3,496
2040,291	-18,5	-3,497
2042,457	-18,5	-3,498
2044,629	-18	-3,498
2046,795	-18	-3,499
2048,967	-18	-3,499
2051,132	-18	-3,499
2053,304	-18	-3,499
2055,476	-18	-3,499
2057,642	-17,5	-3,378
2059,814	-17,5	-3,36
2061,98	-18	-3,216
2064,152	-17	-3,14
2066,317	-17	-3,092
2068,489	-15,5	-3,04
2070,667	-15	-2,99
2072,839	-15,5	-2,964
2075,011	-13,5	-2,877
2077,171	-15	-2,976
2079,337	-15,5	-2,991
2081,515	-13,5	-2,872
2083,674	-13	-2,828
2085,846	-12,5	-2,85
2088,018	-11,5	-2,693
2090,184	-9,5	-2,575
2092,362	-8,5	-2,504
2094,528	-7,5	-2,37
2096,694	-8	-2,226
2098,86	-5,5	-2,103
2101,032	-5	-2,025
2103,203	-3,5	-1,894
2105,375	-3	-1,699
2107,547	-2	-1,552
2109,713	-2	-1,472
2111,885	-1,5	-1,452
2114,057	-1,5	-1,384
2116,229	-1	-1,279
2118,4	-0,5	-1,196
2120,566	0	-1,047
2122,732	0	-1,03
2124,904	0	-0,958
2127,07	0	-0,835
2129,248	0,5	-0,705
2131,414	0	-0,721
2133,586	0,5	-0,6
2135,764	1	-0,47
2137,929	1	-0,486
2140,101	1	-0,392
2142,267	1,5	-0,29
2144,427	2	-0,19
2146,599	3	-0,141
2148,777	3,5	-0,075
2150,949	3,5	-0,062
2153,121	4	-0,047
2155,286	4	-0,036
2157,458	4,5	-0,021
2159,624	4,5	-0,015
2161,796	4,5	-0,012
2163,974	4,5	-0,008
2166,14	4,5	-0,007
2168,312	4,5	-0,004
2170,477	4,5	-0,003
2172,655	4,5	-0,002
2174,821	4,5	-0,001
2176,993	4,5	-0,001
2179,159	4,5	0
2181,319	4,5	-0,045
2183,485	4,5	-0,142
2185,651	4,5	-0,292
2187,823	4	-0,339
2189,994	2	-0,519
2192,16	1	-0,662
2194,326	0,5	-0,737
2196,504	-0,5	-0,905
2198,67	-0,5	-0,985
2200,848	-1	-1,125
2203,014	-1,5	-1,199
2205,18	-1,5	-1,291
2207,351	-2	-1,448
2209,523	-2,5	-1,574
2211,695	-3	-1,775
2213,855	-3	-1,831
2216,021	-3	-1,942
2218,193	-4	-2,064
2220,365	-4	-2,211
2222,531	-5	-2,316
2224,702	-5	-2,454
2226,868	-5,5	-2,566
2229,046	-6	-2,727
2231,212	-7,5	-2,897
2233,39	-9	-3,07
2235,556	-9,5	-3,145
2237,728	-9,5	-3,216
2239,9	-10,5	-3,255
2242,065	-10,5	-3,297
2244,243	-11	-3,33
2246,409	-11,5	-3,318
2248,575	-12	-3,358
2250,741	-12	-3,37
2252,907	-11	-3,351
2255,073	-12	-3,368
2257,251	-13	-3,411
2259,416	-12,5	-3,405
2261,588	-13,5	-3,436
2263,754	-14	-3,452
2265,914	-14	-3,458
2268,086	-14	-3,468
2270,252	-14,5	-3,474
2272,424	-14,5	-3,484
2274,59	-14,5	-3,49
2276,755	-14,5	-3,491
2278,927	-14,5	-3,494
2281,099	-14,5	-3,496
2283,271	-14,5	-3,496
2285,443	-14	-3,498
2287,609	-14	-3,498
2289,775	-14	-3,499
2291,941	-14	-3,499
2294,106	-14	-3,499
2296,278	-14	-3,497
2298,444	-13,5	-3,476
2300,616	-14	-3,3
2302,776	-13	-3,166
2304,942	-12	-3,038
2307,114	-9,5	-2,939
2309,286	-7	-2,769
2311,457	-6,5	-2,659
2313,623	-5,5	-2,516
2315,795	-4,5	-2,331
2317,967	-3	-2,207
2320,139	-3	-2,148
2322,311	-2,5	-2,038
2324,483	-2	-1,901
2326,649	-1,5	-1,848
2328,82	-1,5	-1,742
2330,986	-0,5	-1,679
2333,164	0	-1,501
2335,33	0	-1,394
2337,496	0	-1,32
2339,668	0	-1,119
2341,84	0	-1,008
2344,018	0,5	-0,832
2346,183	1	-0,815
2348,349	1	-0,767
2350,515	1	-0,739
2352,687	1	-0,694
2354,853	1,5	-0,524
2357,025	1,5	-0,439
2359,191	2	-0,267
2361,357	2,5	-0,167
2363,528	3	-0,129
2365,7	3,5	-0,087
2367,872	3,5	-0,064
2370,044	4	-0,046
2372,216	4	-0,037
2374,394	4	-0,024
2376,566	4	-0,021
2378,732	4	-0,022
2380,904	4	-0,023
2383,069	4	-0,019
2385,247	4,5	-0,011
2387,413	4,5	-0,009
2389,585	4,5	-0,008
2391,769	4,5	-0,005
2393,935	4,5	-0,005
2396,101	4,5	-0,003
2398,272	4,5	-0,002
2400,444	4,5	-0,002
2402,616	4,5	-0,002
2404,788	4,5	-0,002
2406,954	4,5	-0,001
2409,126	4,5	-0,001
2411,292	4,5	-0,001
2413,464	4	0
2415,624	4	0
2417,795	4,5	-0,04
2419,973	4	-0,278
2422,139	4	-0,283
2424,317	4	-0,339
2426,483	3	-0,425
2428,655	3	-0,466
2430,827	1,5	-0,576
2432,993	1	-0,63
2435,164	0,5	-0,65
2437,336	0	-0,765
2439,502	0	-0,787
2441,674	0	-0,886
2443,84	-0,5	-0,941
2446,012	-0,5	-1,087
2448,184	-1	-1,155
2450,35	-1,5	-1,261
2452,527	-1,5	-1,386
2454,693	-1,5	-1,386
2456,865	-1,5	-1,512
2459,037	-2	-1,495
2461,209	-2	-1,641
2463,381	-2,5	-1,821
2465,553	-2,5	-1,952
2467,719	-3	-2,011
2469,89	-3	-2,101
2472,062	-3	-2,162
2474,228	-3	-2,248
2476,4	-3,5	-2,321
2478,566	-3,5	-2,386
2480,744	-4	-2,498
2482,91	-4	-2,536
2485,082	-4,5	-2,588
2487,253	-4,5	-2,698
2489,425	-5	-2,75
2491,597	-5	-2,791
2493,763	-5	-2,823
2495,935	-5,5	-2,865
2498,107	-5,5	-2,905
2500,279	-7	-3,074
2502,451	-7	-3,136
2504,622	-8	-3,262
2506,788	-8,5	-3,303
2508,96	-9	-3,353
2511,126	-9	-3,38
2513,304	-10	-3,408
2515,47	-10,5	-3,433
2517,636	-11,5	-3,453
2519,814	-12	-3,472
2521,979	-12	-3,48
2524,163	-12	-3,488
2526,329	-12	-3,49
2528,501	-12	-3,492
2530,673	-12	-3,495
2532,845	-12	-3,497
2535,011	-12	-3,497
2537,189	-12	-3,498
2539,36	-11,5	-3,499
2541,532	-12	-3,499
2543,704	-12	-3,5
2545,876	-11,5	-3,421
2548,042	-12	-3,294
2550,208	-11,5	-3,254
2552,38	-11,5	-3,163
2554,546	-11,5	-3,152
2556,717	-9	-2,988
2558,883	-7,5	-2,902
2561,055	-5	-2,718
2563,227	-5	-2,597
2565,393	-4	-2,564
2567,559	-3,5	-2,494
2569,737	-3	-2,397
2571,903	-3	-2,338
2574,068	-2	-2,253
2576,234	-2	-2,226
2578,4	-2	-2,151
2580,578	-1	-1,995
2582,744	-0,5	-1,862
2584,922	-0,5	-1,818
2587,088	-0,5	-1,817
2589,254	-0,5	-1,736
2591,426	0	-1,648
2593,597	0	-1,559
2595,775	0	-1,429
2597,941	0	-1,393
2600,113	0	-1,309
2602,285	0	-1,177
2604,451	0,5	-1,097
2606,617	0,5	-1,064
2608,794	0,5	-1,004
2610,96	0,5	-0,934
2613,132	1	-0,889
2615,298	0,5	-0,83
2617,476	1	-0,764
2619,648	1,5	-0,675
2621,814	1	-0,691
2623,986	1,5	-0,591
2626,146	1,5	-0,6
2628,311	1,5	-0,514
2630,483	1,5	-0,43
2632,649	1,5	-0,314
2634,821	1,5	-0,24
2636,987	3	-0,117
2639,153	3	-0,09
2641,325	3,5	-0,074
2643,491	3,5	-0,057
2645,668	4	-0,036
2647,84	4	-0,024
2650,006	4	-0,027
2652,172	4	-0,02
2654,338	4	-0,012
2656,57	4,5	-0,003
2658,736	4	-0,002
2660,902	4	-0,003
2663,061	4	-0,002
2665,239	4,5	-0,002
2667,405	4	-0,002
2669,583	4	-0,001
2671,749	4	-0,001
2673,921	4	-0,001
2676,105	4	-0,001
2678,271	4,5	-0,001
2680,436	4,5	0
2682,602	4	0
2684,762	4	0
2686,934	4	0
2689,106	4	-0,035
2691,278	4	-0,189
2693,45	3,5	-0,303
2695,616	3,5	-0,388
2697,799	2,5	-0,538
2699,971	0,5	-0,717
2702,137	0,5	-0,712
2704,309	0	-0,764
2706,475	0,5	-0,728
2708,641	0	-0,76
2710,813	0	-0,916
2712,985	0	-0,942
2715,15	-0,5	-1,107
2717,328	-0,5	-1,205
2719,494	-0,5	-1,206
2721,672	-1	-1,288
2723,844	-1	-1,27
2726,004	-1	-1,288
2728,188	-1	-1,379
2730,354	-1	-1,321
2732,519	-1	-1,345
2734,691	-1	-1,298
2736,863	-1	-1,344
2739,029	-1	-1,381
2741,201	-1	-1,418
2743,367	-1	-1,46
2745,539	-1	-1,486
2747,705	-1	-1,454
2749,882	-1	-1,546
2752,054	-1	-1,555
2754,22	-1	-1,545
2756,398	-1,5	-1,681
2758,564	-1,5	-1,701
2760,736	-1,5	-1,78
2762,908	-1,5	-1,826
2765,08	-1,5	-1,942
2767,245	-1,5	-1,941
2769,423	-1,5	-2,05
2771,589	-1,5	-2,05
2773,761	-2	-2,15
2775,927	-2	-2,22
2778,093	-2	-2,274
2780,265	-2,5	-2,399
2782,431	-2,5	-2,495
2784,602	-3	-2,552
2786,774	-3	-2,688
2788,946	-3,5	-2,756
2791,112	-3,5	-2,772
2793,284	-3,5	-2,771
2795,45	-3,5	-2,804
2797,628	-4	-2,922
2799,8	-5	-3,037
2801,959	-4,5	-2,992
2804,131	-4,5	-3,038
2806,297	-5	-3,06
2808,469	-5	-3,112
2810,641	-6	-3,179
2812,813	-6	-3,279
2814,979	-6,5	-3,296
2817,151	-6	-3,309
2819,322	-6,5	-3,305
2821,5	-8	-3,37
2823,671	-7,5	-3,387
2825,838	-8,5	-3,396
2828,01	-9	-3,436
2830,176	-10	-3,445
2832,342	-10	-3,455
2834,508	-10	-3,46
2836,679	-10	-3,458
2838,845	-10	-3,473
2841,017	-10,5	-3,476
2843,183	-10,5	-3,478
2845,361	-10,5	-3,484
2847,527	-10,5	-3,487
2849,699	-10,5	-3,49
2851,871	-10,5	-3,493
2854,036	-10,5	-3,493
2856,208	-10,5	-3,494
2858,38	-10,5	-3,495
2860,552	-11	-3,496
2862,724	-10,5	-3,496
2864,896	-10,5	-3,498
2867,068	-10,5	-3,498
2869,246	-10,5	-3,498
2871,412	-10,5	-3,498
2873,583	-10,5	-3,499
2875,761	-10,5	-3,499
2877,933	-11	-3,499
2880,105	-10,5	-3,499
2882,277	-11	-3,499
2884,443	-10,5	-3,5
2886,609	-10,5	-3,5
2888,78	-10,5	-3,499
2890,946	-10,5	-3,5
2893,124	-10,5	-3,446
2895,296	-10,5	-3,462
2897,468	-10,5	-3,456
2899,64	-10,5	-3,457
2901,806	-10,5	-3,472
2903,972	-10,5	-3,366
2906,143	-10,5	-3,42
2908,315	-10,5	-3,359
2910,481	-10,5	-3,446
2912,653	-10,5	-3,486
2914,819	-10,5	-3,492
2916,991	-10,5	-3,396
2919,163	-10,5	-3,259
2921,335	-10,5	-3,261
2923,501	-10,5	-3,255
2925,666	-10,5	-3,288
2927,838	-10,5	-3,239
2929,998	-10,5	-3,253
2932,17	-10	-3,201
2934,336	-10,5	-3,238
2936,508	-10	-3,224
2938,68	-10,5	-3,204
2940,869	-9	-3,152
2943,041	-8	-3,04
2945,213	-7	-3,015
2947,379	-7	-2,967
2949,557	-5,5	-2,838
2951,729	-4,5	-2,828
2953,895	-4,5	-2,753
2956,073	-3	-2,592
2958,239	-3	-2,512
2960,398	-2,5	-2,456
2962,57	-2	-2,409
2964,742	-2,5	-2,3
2966,908	-1,5	-2,3
2969,086	-1	-2,25
2971,258	-1,5	-2,208
2973,424	-1,5	-2,24
2975,59	-1,5	-2,234
2977,761	-1,5	-2,22
2979,939	-1	-2,192
2982,105	-0,5	-2,064
2984,277	-0,5	-1,906
2986,449	-0,5	-1,903
2988,621	-0,5	-1,808
2990,787	0	-1,712
2992,959	0	-1,634
2995,124	0	-1,612
2997,29	0	-1,606
2999,462	0	-1,523
3001,634	0	-1,459
3003,806	0	-1,398
3005,978	0	-1,431
3008,144	0	-1,425
3010,316	0	-1,348
3012,481	0	-1,33
3014,647	0	-1,278
3016,825	0	-1,228
3018,991	0,5	-1,17
3021,157	0,5	-1,105
3023,329	0,5	-1,038
3025,495	0,5	-1,004
3027,667	0,5	-0,975
3029,838	0,5	-0,87
3032,01	1	-0,712
3034,176	1	-0,546
3036,354	1,5	-0,454
3038,52	1,5	-0,459
3040,692	1,5	-0,343
3042,864	1,5	-0,269
3045,03	1,5	-0,198
3047,195	1,5	-0,154
3049,367	2,5	-0,102
3051,533	3	-0,093
3053,699	3	-0,094
3055,877	3	-0,057
3058,043	3	-0,064
3060,215	3	-0,066
3062,387	3	-0,062
3064,558	3,5	-0,05
3066,724	3,5	-0,044
3068,896	3,5	-0,034
3071,062	4	-0,029
3073,234	3,5	-0,027
3075,4	4	-0,02
3077,578	4	-0,014
3079,744	4	-0,012
3081,915	4	-0,011
3084,087	4	-0,01
3086,253	4	-0,009
3088,431	4	-0,006
3090,597	4	-0,006
3092,763	4	-0,006
3094,935	4	-0,006
3097,113	4	-0,003
3099,278	4	-0,003
3101,45	4	-0,002
3103,616	4	-0,002
3105,782	4	-0,002
3107,954	4	-0,002
3110,12	4	-0,002
3112,286	4	-0,001
3114,452	4	-0,001
3116,623	4	-0,001
3118,789	4	0
3120,967	4	-0,102
3123,133	4	-0,258
3125,299	4	-0,28
3127,471	3,5	-0,403
3129,637	2,5	-0,478
3131,809	2,5	-0,577
3133,98	0,5	-0,682
3136,152	1	-0,702
3138,318	0,5	-0,702
3140,49	0,5	-0,812
3142,656	0	-0,834
3144,828	0	-0,913
3147	0	-0,991
3149,166	0	-0,965
3151,331	0	-1,013
3153,497	0	-1,087
3155,663	0	-1,168
3157,829	-0,5	-1,242
3160,007	-0,5	-1,441
3162,173	-0,5	-1,542
3164,339	-0,5	-1,602
3166,511	-1	-1,712
3168,682	-1	-1,806
3170,848	-0,5	-1,817
3173,026	-1	-1,946
3175,192	-1,5	-2,016
3177,358	-1	-2,011
3179,53	-1,5	-2,126
3181,702	-1,5	-2,258
3183,874	-1,5	-2,368
3186,051	-2	-2,497
3188,217	-2	-2,496
3190,383	-2	-2,51
3192,555	-2,5	-2,603
3194,721	-2,5	-2,661
3196,893	-3	-2,799
3199,059	-3	-2,873
3201,231	-4	-2,974
3203,397	-4	-2,984
3205,568	-4,5	-3,03
3207,752	-5,5	-3,244
3209,924	-5	-3,263
3212,09	-6	-3,264
3214,256	-6	-3,306
3216,434	-7	-3,377
3218,6	-8	-3,421
3220,004	4	-0,001