File: Cycling_tests/sem_TC/entrada/_3.txt
Time (s)	Load (N)	Displacement (mm)
0	0	-0,022
2,109	0,5	-0,001
4,215	1	0
6,303	1	-0,001
8,391	1,5	-0,001
10,479	1,5	-0,003
12,567	1,5	-0,005
14,654	1,5	-0,005
16,742	1,5	-0,008
18,83	1,5	-0,012
20,918	1,5	-0,018
23,006	1	-0,042
25,094	0	-0,072
27,182	0	-0,115
29,27	-3	-0,269
31,358	-2,5	-0,305
33,445	-5	-0,566
35,539	-6,5	-0,767
37,627	-8,5	-0,902
39,715	-10	-1,005
41,803	-11,5	-1,213
44,005	-7	-0,836
46,165	-5	-0,61
48,265	-6	-0,728
50,365	-7	-0,834
52,452	-9,5	-1,011
54,618	-7	-0,846
56,766	-5,5	-0,67
58,932	-3	-0,356
61,02	-3	-0,425
63,114	-5	-0,59
65,214	-5,5	-0,663
67,313	-6,5	-0,754
69,401	-7,5	-0,941
71,513	-9	-0,993
73,601	-9	-1,106
75,707	-9	-1,028
77,795	-8,5	-1,083
79,895	-9,5	-1,088
81,989	-9,5	-1,129
84,083	-10,5	-1,211
86,171	-12	-1,346
88,258	-13	-1,48
90,388	-12,5	-1,405
92,488	-14	-1,506
94,636	-10	-1,244
96,724	-12	-1,38
98,95	-5,5	-0,744
101,236	1,5	-0,073
103,383	2	-0,033
105,687	2,5	-0,002
107,847	2,5	-0,001
110,061	1,5	-0,404
112,149	2,5	-0,317
114,273	0,5	-0,46
116,373	2	-0,314
118,659	-6	-1,102
120,752	-5	-0,971
122,84	-2,5	-0,778
124,928	1	-0,489
127,256	-9,5	-1,566
129,356	-9	-1,507
131,48	-9,5	-1,645
133,586	-8,5	-1,519
135,752	-10,5	-1,685
137,84	-8,5	-1,486
140,155	-19	-2,508
142,333	-23,5	-2,94
144,523	-28	-3,346
146,797	-32,5	-3,486
149,077	-32,5	-3,5
151,183	-33	-3,499
153,379	-33	-3,301
155,478	-33	-3,436
157,716	-27	-2,86
159,876	-24	-2,641
161,97	-24,5	-2,676
164,076	-25,5	-2,769
166,5	-10	-1,286
168,6	-10,5	-1,324
170,784	-6	-0,904
172,991	-2	-0,481
175,229	2	-0,071
177,329	1,5	-0,108
179,429	1	-0,124
181,517	-0,5	-0,273
183,617	-1	-0,352
185,705	-3	-0,544
187,799	-3	-0,553
189,887	-4	-0,665
191,992	-4	-0,736
194,08	-5,5	-0,866
196,18	-5,5	-0,876
198,274	-5,5	-0,917
200,368	-6,5	-0,968
202,462	-7,5	-1,078
204,562	-8	-1,136
206,65	-8	-1,207
208,743	-9	-1,247
210,837	-9	-1,299
212,931	-9,5	-1,366
215,019	-11	-1,464
217,107	-12	-1,609
219,201	-14	-1,702
221,289	-14	-1,773
223,383	-16,5	-1,738
225,482	-14	-1,691
227,576	-12,5	-1,636
229,67	-13	-1,676
231,765	-14,5	-1,75
233,852	-16,5	-1,878
235,952	-17,5	-1,948
238,04	-18	-2,076
240,134	-18,5	-2,123
242,221	-20	-2,266
244,321	-20,5	-2,3
246,415	-20	-2,292
248,509	-20	-2,311
250,597	-21	-2,376
252,691	-21	-2,428
254,785	-21	-2,41
256,951	-20	-2,096
259,045	-20	-2,158
261,138	-19,5	-2,23
263,226	-19	-2,221
265,326	-19	-2,248
267,42	-20,5	-2,33
269,514	-21,5	-2,425
271,614	-22	-2,52
273,702	-23	-2,624
275,808	-23,5	-2,662
277,895	-24	-2,696
279,995	-24,5	-2,764
282,095	-24,5	-2,781
284,183	-24,5	-2,846
286,325	-22	-2,546
288,425	-21,5	-2,541
290,513	-24	-2,702
292,613	-25	-2,729
294,707	-26	-2,758
296,8	-26	-2,79
298,888	-25,5	-2,833
300,982	-26	-2,884
303,07	-27	-2,916
305,164	-26	-2,889
307,264	-26	-2,884
309,358	-26,5	-2,845
311,458	-25	-2,754
313,551	-24,5	-2,731
315,645	-24	-2,724
317,733	-25	-2,746
319,821	-25	-2,806
321,909	-25,5	-2,834
324,003	-25	-2,826
326,091	-25,5	-2,84
328,179	-28	-2,928
330,272	-28	-2,956
332,366	-27	-2,95
334,466	-28	-2,98
336,554	-29	-3,03
338,654	-28	-2,961
340,748	-27	-2,944
342,842	-28	-3,021
344,936	-29,5	-3,045
347,042	-28,5	-2,979
349,129	-28	-3,006
351,217	-29,5	-3,077
353,305	-30	-3,16
355,399	-30	-3,202
357,493	-30,5	-3,232
359,587	-30,5	-3,235
361,675	-30,5	-3,198
363,769	-30	-3,212
365,863	-30,5	-3,288
367,962	-30,5	-3,26
370,056	-30,5	-3,365
372,15	-30,5	-3,424
374,238	-30,5	-3,498
376,332	-30	-3,493
378,42	-30	-3,499
380,526	-30	-3,495
382,619	-30	-3,5
384,719	-30	-3,5
386,813	-30	-3,498
388,913	-30	-3,499
391,019	-30	-3,495
393,119	-30	-3,479
395,219	-30	-3,485
397,313	-30	-3,498
399,419	-30	-3,443
401,512	-30	-3,5
403,618	-30	-3,474
405,706	-30	-3,46
407,8	-30	-3,5
409,888	-30	-3,5
411,982	-30	-3,5
414,076	-30	-3,5
416,182	-30	-3,5
418,281	-30	-3,5
420,369	-29,5	-3,499
422,463	-30	-3,499
424,563	-30	-3,5
426,657	-30	-3,499
428,751	-30	-3,499
430,845	-30	-3,499
432,939	-29,5	-3,499
435,039	-29,5	-3,499
437,126	-29,5	-3,499
439,214	-29,5	-3,499
441,32	-29,5	-3,499
443,42	-29,5	-3,499
445,508	-29,5	-3,5
447,596	-29,5	-3,499
449,69	-29,5	-3,499
451,796	-29,5	-3,488
453,883	-29,5	-3,496
455,983	-29,5	-3,455
458,077	-29,5	-3,448
460,165	-29,5	-3,488
462,259	-29,5	-3,491
464,353	-29,5	-3,494
466,447	-29,5	-3,409
468,553	-29,5	-3,36
470,652	-29,5	-3,264
472,746	-29,5	-3,229
474,846	-29,5	-3,187
476,94	-28,5	-3,147
479,04	-27,5	-3,066
481,134	-28	-3,128
483,234	-28,5	-3,167
485,34	-28,5	-3,137
487,439	-28,5	-3,126
489,539	-27,5	-3,077
491,633	-26,5	-3,016
493,721	-26,5	-3,007
495,821	-26	-2,96
497,915	-26,5	-3,017
500,021	-28	-3,093
502,112	-28	-3,165
504,215	-26,5	-3,017
506,302	-29	-3,061
508,402	-28	-3,076
510,49	-27,5	-3,121
512,596	-26,5	-3,026
514,69	-27	-2,98
516,79	-25	-2,96
518,89	-23,5	-2,811
520,984	-24	-2,82
523,083	-24	-2,805
525,183	-23,5	-2,735
527,283	-23	-2,694
529,383	-22,5	-2,672
531,483	-22,5	-2,661
533,577	-22,5	-2,654
535,677	-22	-2,595
537,777	-22,5	-2,66
539,87	-21,5	-2,604
541,97	-21	-2,551
544,064	-20,5	-2,497
546,158	-21,5	-2,547
548,258	-21,5	-2,547
550,352	-21,5	-2,588
552,458	-20,5	-2,437
554,558	-21	-2,495
556,652	-20,5	-2,482
558,751	-20	-2,423
560,851	-18,5	-2,322
562,951	-18	-2,259
565,045	-18	-2,288
567,151	-17	-2,216
569,245	-16,5	-2,193
571,345	-15,5	-2,134
573,439	-16	-2,089
575,55	-14,5	-1,998
577,638	-15	-2,026
579,726	-14	-1,98
581,826	-13,5	-1,937
583,932	-12,5	-1,822
586,032	-12	-1,759
588,132	-11	-1,7
590,22	-11	-1,642
592,331	-9,5	-1,546
594,425	-9,5	-1,57
596,531	-9	-1,503
598,624	-8,5	-1,47
600,719	-9	-1,456
602,819	-8	-1,366
604,907	-7,5	-1,363
607,007	-7,5	-1,372
609,113	-6,5	-1,258
611,218	-6,5	-1,196
613,306	-6	-1,202
615,4	-6	-1,137
617,494	-5,5	-1,104
619,594	-5,5	-1,099
621,694	-5	-1,056
623,794	-5	-0,997
625,888	-4	-0,912
627,987	-3,5	-0,863
630,093	-3,5	-0,816
632,193	-3	-0,747
634,293	-3	-0,764
636,393	-2,5	-0,694
638,487	-2,5	-0,697
640,587	-2,5	-0,596
642,687	-1,5	-0,538
644,787	-1	-0,436
646,886	0	-0,351
648,98	0	-0,361
651,08	0	-0,255
653,168	0	-0,274
655,268	0	-0,315
657,356	-0,5	-0,326
659,456	0	-0,256
661,55	0	-0,251
663,643	0	-0,237
665,749	1	-0,154
667,849	1,5	-0,127
669,943	1,5	-0,122
672,037	1	-0,13
674,125	1,5	-0,127
676,219	2	-0,096
678,313	2,5	-0,075
680,418	3	-0,048
682,518	3	-0,042
684,618	3	-0,039
686,712	3	-0,038
688,812	3	-0,035
690,912	3,5	-0,028
693,012	3,5	-0,028
695,112	3	-0,026
697,218	3,5	-0,016
699,315	3,5	-0,018
701,399	3,5	-0,022
703,505	3,5	-0,017
705,593	3,5	-0,02
707,699	3,5	-0,016
709,805	3,5	-0,014
711,911	3,5	-0,011
714,017	3,5	-0,009
716,122	3,5	-0,007
718,216	3,5	-0,007
720,328	3,5	-0,005
722,422	3,5	-0,004
724,516	3,5	-0,004
726,634	3,5	-0,003
728,734	3,5	-0,002
730,84	3,5	-0,002
732,939	3,5	-0,001
735,039	3,5	-0,001
737,133	3,5	-0,001
739,227	3,5	-0,001
741,327	3,5	-0,001
743,433	3,5	0
745,527	3,5	-0,032
747,627	3,5	-0,09
749,727	3,5	-0,084
751,826	3,5	-0,042
753,92	3,5	-0,054
756,02	3,5	-0,138
758,114	3,5	-0,157
760,22	3	-0,241
762,32	3	-0,257
764,42	3	-0,263
766,52	3	-0,252
768,625	3,5	-0,255
770,725	3,5	-0,261
772,819	3,5	-0,236
774,925	3	-0,206
777,019	3,5	-0,127
779,131	3,5	-0,181
781,231	3,5	-0,148
783,325	3,5	-0,084
785,454	3,5	-0,246
787,542	3,5	-0,177
789,642	3,5	-0,244
791,748	3,5	-0,296
793,842	3,5	-0,288
795,936	3,5	-0,186
798,024	3,5	-0,116
800,124	3,5	-0,086
802,218	3,5	-0,121
804,311	3,5	-0,078
806,411	3,5	-0,059
808,505	3,5	-0,114
810,599	3,5	-0,25
812,711	3	-0,324
814,805	3,5	-0,256
816,905	3,5	-0,272
819,005	3,5	-0,32
821,098	3,5	-0,263
823,21	3	-0,34
825,304	3,5	-0,299
827,404	3,5	-0,309
829,504	3,5	-0,321
831,61	3,5	-0,232
833,71	3,5	-0,226
835,822	3,5	-0,314
837,916	3,5	-0,29
840,021	3,5	-0,315
842,115	3	-0,35
844,215	3	-0,366
846,315	3	-0,365
848,409	3	-0,303
850,509	3	-0,34
852,609	3	-0,281
854,708	3	-0,33
856,814	3	-0,323
858,914	2,5	-0,504
861,014	2,5	-0,412
863,114	2	-0,451
865,214	2	-0,44
867,32	1,5	-0,544
869,414	2	-0,466
871,52	2	-0,465
873,613	2	-0,461
875,731	0,5	-0,61
877,831	0	-0,626
879,925	0,5	-0,548
882,025	0	-0,575
884,131	0	-0,615
886,225	0,5	-0,574
888,337	0,5	-0,625
890,43	0,5	-0,588
892,53	1	-0,535
894,63	1,5	-0,519
896,724	1,5	-0,484
898,818	3	-0,395
900,912	3	-0,365
903,012	3,5	-0,268
905,112	3,5	-0,196
907,211	3,5	-0,223
909,311	3,5	-0,196
911,417	3,5	-0,243
913,517	3,5	-0,238
915,611	3,5	-0,224
917,705	3,5	-0,17
919,805	3,5	-0,131
921,899	3,5	-0,028
924,005	3,5	-0,009
926,092	3,5	0
928,186	3,5	-0,001
930,286	3,5	-0,001
932,38	3,5	-0,001
934,48	3,5	-0,001
936,58	3,5	-0,001
938,68	3,5	-0,001
940,78	3,5	-0,001
942,879	3,5	-0,001
944,979	3,5	-0,001
947,073	3,5	-0,001
949,173	3,5	-0,001
951,267	3,5	0
953,367	3,5	-0,001
955,479	3,5	0
957,573	3,5	-0,001
959,678	3,5	-0,001
961,772	3,5	-0,001
963,872	3,5	-0,001
965,966	3,5	-0,001
968,072	3,5	-0,001
970,166	3,5	-0,001
972,272	3,5	0
974,366	3,5	-0,001
976,46	3,5	-0,001
978,559	3,5	-0,001
980,659	3,5	-0,001
982,753	3,5	-0,001
984,847	3,5	-0,001
986,947	3,5	-0,001
989,041	3,5	-0,001
991,141	3,5	-0,001
993,235	3,5	-0,001
995,34	3,5	-0,001
997,434	3,5	-0,001
999,534	3,5	0
1001,634	3,5	0
1003,74	3,5	-0,108
1005,84	3,5	-0,076
1007,94	3,5	-0,132
1010,04	3,5	-0,138
1012,145	3,5	-0,12
1014,239	3,5	-0,072
1016,345	3,5	-0,096
1018,439	3,5	-0,007
1020,539	3,5	-0,012
1022,639	3,5	0
1024,733	3,5	0
1026,839	3,5	0
1028,933	3,5	-0,001
1031,038	3,5	-0,001
1033,126	3,5	-0,001
1035,226	3,5	-0,001
1037,314	3,5	-0,001
1039,42	3,5	-0,001
1041,514	3,5	-0,001
1043,62	3,5	-0,001
1045,708	3,5	-0,001
1047,807	3,5	-0,001
1049,901	3,5	-0,001
1052,001	3,5	-0,001
1054,101	3,5	-0,001
1056,195	3,5	-0,002
1058,289	3,5	-0,002
1060,383	3,5	-0,002
1062,477	3,5	-0,002
1064,583	3,5	-0,002
1066,694	3,5	-0,001
1068,788	3,5	-0,002
1070,882	3,5	-0,002
1072,976	3,5	-0,002
1075,082	3,5	-0,002
1077,176	4	-0,002
1079,282	3,5	-0,001
1081,376	3,5	-0,002
1083,481	3,5	-0,001
1085,575	3,5	-0,002
1087,675	3,5	-0,002
1089,769	3,5	-0,002
1091,875	3,5	-0,002
1093,969	3,5	-0,002
1096,069	3,5	-0,002
1098,169	3,5	-0,002
1100,268	3,5	-0,001
1102,368	3,5	-0,001
1104,468	3,5	-0,001
1106,568	3,5	-0,001
1108,668	3,5	-0,001
1110,768	4	-0,001
1112,862	3,5	-0,001
1114,968	4	-0,001
1117,056	4	-0,001
1119,155	3,5	-0,001
1121,249	3,5	-0,001
1123,343	3,5	-0,001
1125,437	3,5	-0,001
1127,537	3,5	-0,001
1129,631	3,5	-0,001
1131,731	3,5	-0,001
1133,825	3,5	-0,002
1135,936	3,5	-0,002
1138,024	3,5	-0,002
1140,13	3,5	-0,002
1142,224	3,5	-0,001
1144,318	3,5	-0,002
1146,412	3,5	-0,002
1148,518	3,5	-0,001
1150,618	3,5	-0,001
1152,705	3,5	-0,001
1154,799	3,5	-0,001
1156,899	3,5	-0,001
1158,993	3,5	-0,001
1161,099	3,5	0
1163,199	3,5	0
1165,299	3,5	0
1167,393	3,5	0
1169,487	3,5	0
1171,592	3,5	-0,007
1173,686	3,5	-0,009
1175,786	3,5	-0,047
1177,88	3,5	-0,108
1179,986	3,5	-0,078
1182,074	3,5	-0,078
1184,174	3,5	-0,206
1186,28	3,5	-0,168
1188,379	3	-0,3
1190,473	3	-0,253
1192,561	3,5	-0,18
1194,667	3,5	-0,181
1196,767	3,5	-0,131
1198,879	3,5	-0,19
1200,973	3,5	-0,164
1203,073	3,5	-0,225
1205,166	3	-0,212
1207,266	3	-0,238
1209,36	3,5	-0,202
1211,466	3,5	-0,206
1213,554	3,5	-0,186
1215,648	3,5	-0,119
1217,748	3,5	-0,114
1219,842	3,5	-0,018
1221,936	3,5	-0,003
1224,041	3,5	-0,022
1226,141	3,5	-0,065
1228,241	3,5	-0,104
1230,341	3,5	-0,115
1232,441	3,5	-0,19
1234,529	3,5	-0,159
1236,635	3,5	-0,18
1238,729	3,5	-0,16
1240,828	3,5	-0,177
1242,928	3,5	-0,177
1245,022	3,5	-0,19
1247,128	3,5	-0,201
1249,228	3,5	-0,26
1251,328	3,5	-0,222
1253,428	3,5	-0,238
1255,522	3,5	-0,218
1257,621	3,5	-0,251
1259,721	4	-0,262
1261,821	3,5	-0,289
1263,915	3,5	-0,22
1266,009	3,5	-0,2
1268,109	3,5	-0,239
1270,197	3,5	-0,232
1272,303	3,5	-0,29
1274,403	3,5	-0,263
1276,502	3,5	-0,236
1278,602	3,5	-0,257
1280,708	3	-0,353
1282,808	3	-0,384
1284,902	2	-0,429
1287,002	2,5	-0,445
1289,096	3	-0,532
1291,196	2	-0,542
1293,295	0,5	-0,645
1295,395	0,5	-0,676
1297,495	0	-0,751
1299,589	0	-0,752
1301,689	-1,5	-0,89
1303,783	-1,5	-0,866
1305,883	-2	-0,946
1307,983	-2	-0,941
1310,077	-2	-0,986
1312,176	-2,5	-1,054
1314,27	-2,5	-1,024
1316,37	-2,5	-1,093
1318,464	-2,5	-1,068
1320,57	-3	-1,103
1322,67	-2,5	-1,114
1324,764	-3	-1,207
1326,858	-3,5	-1,288
1328,951	-3,5	-1,285
1331,051	-3,5	-1,333
1333,151	-3,5	-1,327
1335,245	-4	-1,318
1337,345	-4	-1,351
1339,445	-4	-1,366
1341,543	-4	-1,404
1343,645	-4,5	-1,446
1345,738	-4,5	-1,457
1347,838	-4,5	-1,422
1349,932	-4,5	-1,493
1352,038	-5	-1,511
1354,132	-4,5	-1,536
1356,226	-4,5	-1,532
1358,314	-5	-1,546
1360,414	-4,5	-1,541
1362,507	-5	-1,548
1364,607	-4,5	-1,511
1366,701	-4,5	-1,502
1368,795	-4,5	-1,462
1370,895	-4,5	-1,457
1372,989	-4,5	-1,479
1375,101	-5	-1,523
1377,195	-5	-1,526
1379,295	-4,5	-1,445
1381,388	-4	-1,384
1383,488	-3,5	-1,352
1385,582	-3,5	-1,279
1387,688	-3	-1,315
1389,782	-3	-1,221
1391,882	-3,5	-1,268
1393,988	-3,5	-1,272
1396,094	-4	-1,323
1398,193	-4	-1,334
1400,293	-4	-1,36
1402,393	-4,5	-1,424
1404,487	-4,5	-1,517
1406,581	-5	-1,558
1408,681	-4,5	-1,535
1410,781	-4,5	-1,524
1412,881	-4,5	-1,498
1414,98	-5	-1,57
1417,08	-5	-1,625
1419,174	-5,5	-1,695
1421,274	-6	-1,776
1423,368	-6	-1,81
1425,468	-6	-1,862
1427,568	-6,5	-1,867
1429,662	-6,5	-1,853
1431,768	-6,5	-1,878
1433,861	-7	-1,927
1435,967	-7,5	-2,027
1438,061	-7,5	-1,992
1440,161	-8	-2,056
1442,255	-8,5	-2,074
1444,349	-8	-2,076
1446,443	-8	-2,072
1448,543	-8,5	-2,103
1450,648	-8	-2,096
1452,742	-8,5	-2,115
1454,842	-9	-2,146
1456,936	-9	-2,127
1459,036	-9,5	-2,186
1461,13	-9,5	-2,166
1463,23	-9,5	-2,145
1465,33	-9,5	-2,161
1467,429	-9,5	-2,172
1469,523	-9	-2,168
1471,611	-9	-2,097
1473,705	-8	-2,083
1475,811	-9	-2,13
1477,905	-8,5	-2,12
1480,011	-9	-2,124
1482,105	-9	-2,205
1484,205	-9	-2,19
1486,298	-9	-2,17
1488,392	-10	-2,266
1490,492	-10	-2,295
1492,586	-9	-2,237
1494,686	-10,5	-2,259
1496,78	-9,5	-2,256
1498,886	-11	-2,334
1500,986	-11	-2,344
1503,079	-10	-2,293
1505,179	-10	-2,298
1507,279	-10,5	-2,33
1509,373	-10,5	-2,332
1511,473	-10	-2,306
1513,567	-10	-2,27
1515,673	-10	-2,311
1517,767	-10	-2,286
1519,866	-10	-2,254
1521,96	-9,5	-2,272
1524,06	-9	-2,23
1526,16	-9,5	-2,251
1528,254	-9	-2,167
1530,348	-9	-2,128
1532,448	-9	-2,132
1534,548	-9	-2,157
1536,648	-8,5	-2,101
1538,753	-9	-2,183
1540,847	-10,5	-2,334
1542,941	-9	-2,31
1545,041	-10,5	-2,395
1547,141	-9,5	-2,373
1549,235	-10,5	-2,349
1551,335	-10,5	-2,343
1553,429	-10,5	-2,313
1555,534	-9,5	-2,27
1557,628	-9	-2,158
1559,734	-9	-2,183
1561,828	-9	-2,165
1563,928	-8	-2,09
1566,028	-9	-2,181
1568,128	-8,5	-2,128
1570,222	-8,5	-2,102
1572,322	-8	-2,061
1574,415	-7,5	-2,03
1576,515	-7,5	-2,067
1578,609	-8,5	-2,096
1580,715	-8,5	-2,172
1582,815	-9	-2,238
1584,915	-9,5	-2,242
1587,015	-9	-2,21
1589,109	-9,5	-2,196
1591,208	-9,5	-2,212
1593,302	-9	-2,166
1595,408	-9	-2,155
1597,502	-8,5	-2,118
1599,596	-8	-2,078
1601,696	-7,5	-2,02
1603,796	-7,5	-2,052
1605,896	-8	-2,094
1607,995	-8	-2,105
1610,083	-9	-2,13
1612,207	-10	-2,324
1614,301	-11,5	-2,453
1616,395	-11	-2,45
1618,489	-11	-2,426
1620,589	-11	-2,463
1622,689	-11,5	-2,468
1624,777	-10,5	-2,435
1626,876	-13	-2,592
1628,976	-12,5	-2,606
1631,076	-13,5	-2,695
1633,176	-13	-2,674
1635,276	-13,5	-2,701
1637,376	-13,5	-2,706
1639,47	-14	-2,708
1641,564	-14	-2,71
1643,663	-15	-2,801
1645,757	-15,5	-2,856
1647,857	-16	-2,887
1649,945	-15	-2,827
1652,045	-15	-2,847
1654,145	-15	-2,816
1656,245	-14,5	-2,789
1658,333	-13,5	-2,719
1660,438	-14,5	-2,76
1662,526	-14	-2,758
1664,626	-14	-2,817
1666,732	-14	-2,884
1668,826	-14,5	-2,876
1670,926	-15	-2,881
1673,02	-15,5	-2,878
1675,126	-15,5	-3,008
1677,219	-15,5	-2,952
1679,313	-15,5	-2,965
1681,413	-17	-3,076
1683,507	-17	-3,052
1685,595	-18	-3,071
1687,695	-18	-3,045
1689,789	-15,5	-3,02
1691,889	-17	-3,031
1693,983	-18	-3,081
1696,076	-17,5	-3,03
1698,176	-17,5	-3,013
1700,276	-18,5	-3,114
1702,37	-18	-3,126
1704,476	-19,5	-3,177
1706,576	-21,5	-3,341
1708,676	-22	-3,351
1710,776	-22,5	-3,382
1712,869	-21,5	-3,38
1714,975	-23	-3,398
1717,069	-21,5	-3,378
1719,175	-22,5	-3,394
1721,275	-23,5	-3,424
1723,369	-19,5	-3,417
1725,469	-24	-3,455
1727,569	-24	-3,462
1729,663	-24,5	-3,471
1731,756	-24	-3,466
1733,856	-24	-3,465
1735,956	-24	-3,468
1738,056	-24	-3,473
1740,156	-24,5	-3,483
1742,256	-24,5	-3,483
1744,356	-24,5	-3,484
1746,45	-24	-3,486
1748,555	-24,5	-3,49
1750,655	-24,5	-3,491
1752,749	-24,5	-3,488
1754,861	-24,5	-3,488
1756,961	-24,5	-3,489
1759,055	-24	-3,487
1761,149	-24	-3,486
1763,243	-24,5	-3,487
1765,336	-24	-3,484
1767,43	-24	-3,487
1769,524	-24,5	-3,489
1771,624	-24,5	-3,491
1773,718	-24	-3,49
1775,824	-24,5	-3,492
1777,912	-24	-3,49
1780,006	-24,5	-3,491
1782,106	-24	-3,492
1784,205	-24	-3,493
1786,305	-24	-3,493
1788,405	-24	-3,493
1790,493	-24	-3,492
1792,599	-24	-3,493
1794,687	-24	-3,489
1796,781	-24	-3,488
1798,887	-24	-3,489
1800,974	-24	-3,488
1803,068	-24	-3,488
1805,162	-24	-3,487
1807,262	-24	-3,488
1809,356	-24	-3,49
1811,45	-24	-3,492
1813,544	-24	-3,491
1815,644	-24	-3,492
1817,743	-24	-3,492
1819,843	-24	-3,494
1821,937	-24	-3,493
1824,037	-24	-3,494
1826,137	-24	-3,493
1828,231	-24	-3,493
1830,325	-24	-3,492
1832,431	-23,5	-3,493
1834,525	-23,5	-3,492
1836,624	-23,5	-3,491
1838,724	-23	-3,492
1840,818	-23	-3,49
1842,918	-23,5	-3,491
1845,012	-23	-3,488
1847,106	-23	-3,487
1849,206	-23	-3,49
1851,3	-23	-3,489
1853,393	-23	-3,49
1855,493	-23	-3,49
1857,587	-22,5	-3,488
1859,687	-22,5	-3,486
1861,781	-22,5	-3,485
1863,869	-22,5	-3,483
1865,969	-22,5	-3,481
1868,069	-22,5	-3,473
1870,162	-22	-3,471
1872,256	-22	-3,463
1874,35	-21,5	-3,46
1876,444	-21,5	-3,45
1878,544	-21,5	-3,444
1880,644	-21	-3,442
1882,744	-21	-3,446
1884,85	-21	-3,452
1886,95	-21,5	-3,461
1889,049	-21	-3,455
1891,149	-20,5	-3,443
1893,237	-19,5	-3,417
1895,337	-19,5	-3,418
1897,431	-18,5	-3,389
1899,525	-18	-3,364
1901,619	-16,5	-3,345
1903,719	-16	-3,326
1905,812	-15,5	-3,292
1907,918	-15,5	-3,314
1910,012	-15,5	-3,292
1912,106	-15	-3,2
1914,2	-14	-3,101
1916,3	-13,5	-3,064
1918,394	-12	-2,976
1920,494	-12	-2,97
1922,587	-12	-2,918
1924,687	-12	-2,924
1926,787	-11,5	-2,876
1928,881	-11	-2,83
1930,987	-11	-2,833
1933,081	-10	-2,714
1935,181	-10	-2,702
1937,275	-9	-2,646
1939,375	-9	-2,647
1941,468	-8,5	-2,59
1943,562	-9	-2,576
1945,65	-8	-2,489
1947,75	-7,5	-2,425
1949,838	-7,5	-2,344
1951,938	-6,5	-2,28
1954,032	-5,5	-2,192
1956,132	-5,5	-2,101
1958,225	-5,5	-2,04
1960,325	-5	-2,028
1962,419	-5	-1,913
1964,519	-4,5	-1,936
1966,625	-4,5	-1,948
1968,719	-4,5	-1,882
1970,825	-4,5	-1,853
1972,919	-4,5	-1,768
1975,019	-4,5	-1,786
1977,112	-4	-1,766
1979,212	-3,5	-1,735
1981,306	-4	-1,705
1983,412	-3,5	-1,718
1985,506	-3,5	-1,708
1987,606	-3,5	-1,657
1989,706	-3,5	-1,672
1991,806	-4	-1,726
1993,911	-3,5	-1,745
1996,011	-3,5	-1,718
1998,105	-3,5	-1,683
2000,205	-3	-1,672
2002,293	-3	-1,607
2004,393	-3	-1,506
2006,493	-2,5	-1,458
2008,587	-2,5	-1,43
2010,686	-2	-1,37
2012,786	-2	-1,307
2014,886	-2	-1,28
2016,98	-2	-1,232
2019,08	-1,5	-1,186
2021,174	-1,5	-1,162
2023,274	-2	-1,214
2025,368	-1,5	-1,152
2027,467	-1	-1,088
2029,567	-1	-1,01
2031,667	-0,5	-0,972
2033,761	-0,5	-0,905
2035,861	-1	-0,941
2037,955	-0,5	-0,874
2040,061	0	-0,792
2042,155	0	-0,709
2044,249	1,5	-0,599
2046,348	2,5	-0,551
2048,442	2,5	-0,487
2050,536	2,5	-0,448
2052,636	3	-0,385
2054,73	4	-0,295
2056,824	4	-0,28
2058,924	4	-0,232
2061,018	4	-0,239
2063,111	4	-0,104
2065,217	4	-0,12
2067,311	4	-0,192
2069,411	4	-0,142
2071,511	4	-0,066
2073,605	4	-0,002
2075,699	4,5	-0,001
2077,799	4	-0,001
2079,892	4	-0,001
2081,986	4	-0,001
2084,086	4	-0,002
2086,18	4	-0,002
2088,286	4	-0,003
2090,38	4	-0,004
2092,48	4	-0,005
2094,586	4	-0,006
2096,674	4	-0,01
2098,773	4	-0,011
2100,861	4	-0,014
2102,955	4	-0,018
2105,055	4	-0,021
2107,161	4	-0,017
2109,255	4	-0,017
2111,355	4	-0,018
2113,449	4	-0,022
2115,542	4	-0,028
2117,642	4	-0,033
2119,742	3,5	-0,044
2121,836	4	-0,039
2123,93	3,5	-0,044
2126,024	3,5	-0,046
2128,124	3,5	-0,053
2130,218	3,5	-0,065
2132,317	3,5	-0,065
2134,411	3,5	-0,068
2136,505	3,5	-0,082
2138,605	3,5	-0,089
2140,705	3,5	-0,104
2142,805	3	-0,132
2144,899	2,5	-0,178
2146,999	2,5	-0,184
2149,093	2	-0,235
2151,192	2,5	-0,222
2153,286	2	-0,245
2155,386	2	-0,291
2157,486	2	-0,3
2159,586	2	-0,354
2161,68	1,5	-0,394
2163,78	1,5	-0,453
2165,868	1	-0,586
2167,967	1	-0,582
2170,067	1	-0,624
2172,167	1	-0,64
2174,261	1	-0,675
2176,361	0,5	-0,645
2178,455	0,5	-0,743
2180,561	1	-0,686
2182,655	0,5	-0,754
2184,748	0,5	-0,794
2186,842	0,5	-0,84
2188,936	1	-0,794
2191,036	1	-0,796
2193,13	0,5	-0,926
2195,23	0,5	-0,92
2197,324	0	-1,031
2199,424	0	-1,084
2201,518	0	-1,14
2203,618	0	-1,205
2205,711	0	-1,219
2207,805	0	-1,26
2209,905	0	-1,216
2211,999	0	-1,342
2214,093	-0,5	-1,425
2216,199	-0,5	-1,396
2218,287	-0,5	-1,435
2220,386	-0,5	-1,477
2222,486	-0,5	-1,525
2224,58	-0,5	-1,555
2226,674	-1	-1,616
2228,774	-1	-1,606
2230,868	-1	-1,636
2232,968	-1	-1,657
2235,062	-1	-1,693
2237,156	-2	-1,76
2239,255	-2	-1,819
2241,349	-2,5	-1,902
2243,449	-2	-1,865
2245,549	-2,5	-1,789
2247,643	-1	-1,703
2249,737	-1,5	-1,722
2251,831	-1,5	-1,779
2253,925	-1	-1,665
2256,03	-1	-1,604
2258,124	-1	-1,665
2260,218	-1	-1,689
2262,318	-1	-1,641
2264,412	-1	-1,619
2266,506	-0,5	-1,611
2268,6	-1	-1,62
2270,694	-1	-1,618
2272,787	-1	-1,654
2274,881	-1	-1,694
2276,975	-1	-1,693
2279,069	-1	-1,69
2281,169	-1	-1,675
2283,263	-1	-1,679
2285,357	-1	-1,714
2287,451	-1,5	-1,78
2289,545	-1,5	-1,859
2291,644	-1,5	-1,88
2293,738	-1,5	-1,909
2295,826	-2	-1,964
2297,926	-2	-1,985
2300,02	-2	-2,026
2302,108	-3	-2,108
2304,208	-3	-2,15
2306,302	-3	-2,223
2308,401	-3	-2,218
2310,495	-3,5	-2,38
2312,589	-4,5	-2,4
2314,689	-4,5	-2,405
2316,789	-4,5	-2,416
2318,883	-4	-2,36
2320,983	-3,5	-2,376
2323,077	-3,5	-2,4
2325,17	-3,5	-2,379
2327,27	-4,5	-2,436
2329,364	-3,5	-2,35
2331,464	-3	-2,269
2333,558	-3	-2,262
2335,652	-3,5	-2,308
2337,752	-3	-2,271
2339,846	-3	-2,302
2341,94	-3	-2,241
2344,039	-2,5	-2,183
2346,139	-2	-2,119
2348,233	-2	-2,138
2350,333	-2	-2,17
2352,427	-3,5	-2,147
2354,521	-2	-2,075
2356,621	-1,5	-1,985
2358,709	-2	-2,078
2360,808	-2	-2,019
2362,902	-1,5	-2,017
2364,996	-1,5	-2,004
2367,096	-1	-1,951
2369,184	-2	-2,016
2371,278	-1,5	-2,046
2373,372	-2	-2,14
2375,46	-2,5	-2,249
2377,553	-2,5	-2,204
2379,653	-2	-2,183
2381,747	-3	-2,261
2383,841	-2,5	-2,2
2385,935	-2	-2,188
2388,029	-3	-2,282
2390,129	-3	-2,214
2392,223	-2,5	-2,19
2394,317	-1,5	-2,097
2396,416	-2	-2,065
2398,51	-1,5	-2,037
2400,604	-1,5	-2,089
2402,704	-2	-2,083
2404,798	-2	-2,124
2406,892	-2	-2,142
2408,986	-2,5	-2,188
2411,074	-2,5	-2,222
2413,167	-2,5	-2,216
2415,267	-2,5	-2,205
2417,361	-2,5	-2,186
2419,455	-3	-2,274
2421,549	-3	-2,326
2423,649	-2,5	-2,31
2425,743	-3	-2,303
2427,837	-3	-2,311
2429,936	-3	-2,306
2432,03	-2,5	-2,294
2434,124	-3	-2,324
2436,218	-3	-2,344
2438,312	-3	-2,374
2440,4	-3,5	-2,439
2442,494	-3	-2,415
2444,588	-3	-2,408
2446,688	-3,5	-2,514
2448,781	-4,5	-2,56
2450,875	-4,5	-2,665
2452,975	-5	-2,621
2455,069	-4	-2,6
2457,169	-3,5	-2,515
2459,269	-3,5	-2,471
2461,363	-4,5	-2,602
2463,457	-5	-2,691
2465,556	-5,5	-2,739
2467,65	-5,5	-2,753
2469,75	-5,5	-2,78
2471,844	-6	-2,884
2473,944	-6,5	-2,815
2476,038	-6	-2,814
2478,132	-6	-2,844
2480,226	-6,5	-2,921
2482,319	-7,5	-2,914
2484,413	-8	-2,97
2486,507	-8	-2,985
2488,601	-10,5	-3,1
2490,695	-11	-3,172
2492,789	-11	-3,203
2494,883	-11	-3,258
2496,977	-11,5	-3,238
2499,071	-11,5	-3,28
2501,164	-11	-3,297
2503,258	-11,5	-3,294
2505,364	-10	-3,17
2507,458	-11	-3,168
2509,552	-10,5	-3,15
2511,646	-9,5	-3,105
2513,74	-10	-3,076
2515,834	-9,5	-3,069
2517,933	-9	-3,016
2520,027	-8,5	-3,024
2522,121	-7	-2,947
2524,221	-7	-2,964
2526,315	-7,5	-2,94
2528,409	-8	-2,976
2530,514	-7,5	-2,93
2532,609	-6,5	-2,891
2534,708	-6	-2,848
2536,802	-6	-2,888
2538,902	-6	-2,904
2541,002	-5,5	-2,83
2543,096	-6,5	-2,881
2545,19	-7,5	-2,954
2547,29	-7,5	-2,949
2549,384	-7	-2,969
2551,484	-7,5	-2,979
2553,583	-7,5	-3,016
2555,683	-9	-3,07
2557,777	-10,5	-3,1
2559,883	-8	-3,032
2561,977	-9	-3,041
2564,077	-9,5	-3,052
2566,177	-10,5	-3,106
2568,271	-10	-3,109
2570,364	-9,5	-3,123
2572,464	-10,5	-3,139
2574,564	-9	-3,1
2576,664	-10,5	-3,09
2578,764	-8,5	-3,047
2580,858	-8	-3,041
2582,952	-10	-3,119
2585,04	-10	-3,18
2587,134	-11	-3,248
2589,233	-11	-3,27
2591,333	-11	-3,237
2593,427	-10,5	-3,197
2595,527	-10,5	-3,181
2597,621	-11	-3,26
2599,721	-10,5	-3,217
2601,821	-10,5	-3,207
2603,915	-11	-3,215
2606,008	-10,5	-3,186
2608,114	-11	-3,183
2610,208	-10,5	-3,181
2612,302	-9	-3,12
2614,402	-9,5	-3,119
2616,502	-8,5	-3,056
2618,596	-7,5	-3,037
2620,696	-7,5	-3,016
2622,789	-8,5	-3,02
2624,883	-9	-3,098
2626,989	-9	-3,052
2629,083	-7,5	-2,986
2631,177	-6,5	-2,941
2633,277	-6,5	-2,979
2635,377	-6,5	-2,957
2637,471	-7	-2,924
2639,571	-7,5	-2,934
2641,664	-7	-2,954
2643,764	-8	-2,996
2645,858	-8	-3,047
2647,958	-7,5	-3,005
2650,058	-7	-2,989
2652,152	-8	-2,977
2654,246	-8,5	-3,017
2656,346	-8,5	-3,017
2658,439	-7,5	-3
2660,539	-6,5	-2,925
2662,645	-6,5	-2,895
2664,739	-5,5	-2,83
2666,839	-4,5	-2,766
2668,939	-3,5	-2,621
2671,033	-3,5	-2,652
2673,127	-3,5	-2,58
2675,232	-2,5	-2,444
2677,326	-3	-2,432
2679,42	-3	-2,52
2681,52	-3	-2,515
2683,62	-3	-2,52
2685,714	-3	-2,459
2687,82	-3	-2,461
2689,914	-2,5	-2,475
2692,008	-3	-2,5
2694,107	-3,5	-2,526
2696,207	-3	-2,485
2698,301	-3,5	-2,574
2700,407	-3,5	-2,511
2702,501	-3	-2,504
2704,595	-3	-2,486
2706,701	-3	-2,493
2708,795	-3	-2,465
2710,894	-3	-2,479
2712,988	-3,5	-2,537
2715,082	-3	-2,545
2717,176	-4	-2,63
2719,282	-4	-2,62
2721,376	-4,5	-2,709
2723,476	-5	-2,725
2725,576	-4,5	-2,704
2727,675	-4,5	-2,65
2729,769	-4,5	-2,718
2731,881	-5	-2,695
2733,975	-5	-2,709
2736,075	-5	-2,704
2738,175	-4,5	-2,709
2740,275	-4,5	-2,645
2742,369	-4,5	-2,69
2744,469	-5	-2,792
2746,568	-5,5	-2,814
2748,662	-7,5	-2,886
2750,768	-7,5	-2,861
2752,862	-8,5	-2,971
2754,956	-8	-2,964
2757,056	-7	-2,923
2759,156	-7,5	-2,921
2761,25	-8,5	-3,021
2763,344	-10,5	-3,11
2765,437	-10	-3,113
2767,531	-10,5	-3,16
2769,625	-10,5	-3,196
2771,725	-10,5	-3,272
2773,819	-11	-3,378
2775,919	-10,5	-3,383
2778,013	-11	-3,438
2780,112	-11	-3,439
2782,212	-11	-3,492
2784,312	-11	-3,471
2786,406	-11	-3,5
2788,506	-11	-3,5
2790,606	-10,5	-3,496
2792,7	-11	-3,497
2794,806	-11	-3,497
2796,9	-11	-3,5
2798,999	-11	-3,498
2801,099	-11	-3,497
2803,205	-10,5	-3,5
2805,299	-11	-3,5
2807,405	-10,5	-3,5
2809,499	-10,5	-3,499
2811,599	-10,5	-3,5
2813,699	-11	-3,5
2815,798	-10,5	-3,486
2817,892	-11	-3,5
2819,998	-10,5	-3,5
2822,092	-10,5	-3,499
2824,186	-11	-3,499
2826,286	-11	-3,499
2828,386	-11	-3,499
2830,48	-11	-3,499
2832,579	-11	-3,498
2834,679	-11	-3,498
2836,773	-11	-3,498
2838,879	-10,5	-3,499
2840,973	-11	-3,498
2843,073	-10,5	-3,498
2845,173	-11	-3,498
2847,261	-11	-3,498
2849,349	-11	-3,497
2851,448	-11	-3,497
2853,548	-11	-3,497
2855,648	-11	-3,496
2857,742	-11	-3,496
2859,836	-11	-3,495
2861,93	-11	-3,494
2864,018	-10,5	-3,492
2866,118	-10,5	-3,49
2868,211	-11	-3,489
2870,305	-10,5	-3,485
2872,405	-10,5	-3,479
2874,505	-10,5	-3,474
2876,599	-10,5	-3,462
2878,699	-10,5	-3,459
2880,793	-9,5	-3,449
2882,893	-9	-3,432
2884,992	-8	-3,416
2887,092	-8	-3,401
2889,186	-8	-3,378
2891,292	-8,5	-3,406
2893,386	-7,5	-3,372
2895,48	-7	-3,319
2897,58	-7,5	-3,328
2899,668	-6	-3,263
2901,762	-5,5	-3,158
2903,861	-5,5	-3,205
2905,961	-5,5	-3,169
2908,049	-5	-3,11
2910,143	-5,5	-3,17
2912,249	-5,5	-3,173
2914,343	-5,5	-3,154
2916,443	-5,5	-3,161
2918,543	-5	-3,085
2920,636	-5	-3,001
2922,736	-4,5	-2,98
2924,836	-4,5	-2,98
2926,936	-4,5	-2,975
2929,03	-4	-2,929
2931,124	-4	-2,846
2933,218	-4	-2,858
2935,312	-3,5	-2,85
2937,406	-3,5	-2,826
2939,505	-4	-2,873
2941,599	-4	-2,822
2943,693	-4	-2,84
2945,787	-4	-2,857
2947,887	-4	-2,872
2949,975	-3,5	-2,776
2952,081	-3,5	-2,779
2954,175	-4	-2,813
2956,268	-3,5	-2,729
2958,368	-3,5	-2,702
2960,462	-3	-2,62
2962,556	-3	-2,59
2964,65	-3	-2,574
2966,75	-3	-2,618
2968,844	-3	-2,567
2970,95	-2,5	-2,548
2973,043	-3	-2,546
2975,143	-2,5	-2,503
2977,237	-3	-2,506
2979,337	-3	-2,505
2981,431	-2,5	-2,433
2983,531	-2,5	-2,358
2985,631	-2	-2,359
2987,725	-2	-2,286
2989,813	-2	-2,232
2991,912	-2	-2,231
2994,006	-2	-2,18
2996,106	-2	-2,17
2998,2	-2	-2,182
3000,306	-2	-2,212
3002,4	-2	-2,134
3004,5	-1,5	-2,048
3006,606	-1,5	-2,068
3008,699	-1,5	-2,06
3010,799	-1,5	-2,097
3012,899	-1,5	-2,038
3014,993	-1,5	-1,96
3017,087	-1	-1,909
3019,193	-1	-1,837
3021,281	-1	-1,783
3023,375	-1	-1,69
3025,468	-1	-1,654
3027,568	-1	-1,649
3029,662	-0,5	-1,592
3031,762	-1	-1,561
3033,862	-1	-1,529
3035,962	-1	-1,539
3038,056	-1	-1,467
3040,15	-1	-1,511
3042,249	-1	-1,462
3044,349	-1	-1,463
3046,455	-1	-1,44
3048,555	-1	-1,456
3050,649	-1	-1,406
3052,743	-1	-1,391
3054,843	-0,5	-1,422
3056,937	-1	-1,436
3059,037	-1	-1,493
3061,136	-1	-1,441
3063,224	-1	-1,37
3065,318	-1	-1,33
3067,418	-1	-1,308
3069,518	-1	-1,308
3071,618	-1	-1,286
3073,712	-0,5	-1,299
3075,806	-1	-1,263
3077,899	-0,5	-1,26
3079,999	-0,5	-1,34
3082,099	-1	-1,377
3084,193	-1	-1,347
3086,287	-0,5	-1,248
3088,381	-0,5	-1,176
3090,487	-0,5	-1,189
3092,587	-0,5	-1,121
3094,681	0	-1,07
3096,774	-0,5	-1,076
3098,874	-0,5	-1,018
3100,968	0	-0,951
3103,068	0	-0,913
3105,168	0	-0,934
3107,268	-0,5	-0,908
3109,362	0	-0,872
3111,462	0	-0,841
3113,555	1	-0,72
3115,649	0,5	-0,674
3117,749	1	-0,595
3119,849	1	-0,616
3121,943	0,5	-0,623
3124,043	0	-0,655
3126,143	0	-0,703
3128,243	0	-0,734
3130,336	0,5	-0,71
3132,442	0	-0,74
3134,536	0	-0,768
3136,63	0	-0,801
3138,73	0,5	-0,731
3140,83	0,5	-0,685
3142,93	0,5	-0,674
3145,024	0	-0,714
3147,123	0	-0,73
3149,049	4	0