File: Cycling_tests/sem_TC/entrada/_8.txt
Time (s)	Load (N)	Displacement (mm)
0	0	-0,035
2,243	0,5	-0,386
4,403	1	-0,361
6,563	1,5	-0,309
8,729	1,5	-0,316
10,895	0	-0,44
13,061	0,5	-0,445
15,221	0,5	-0,457
17,386	0	-0,554
19,552	-1,5	-0,613
21,712	-2,5	-0,701
23,878	-2,5	-0,743
26,044	-3	-0,812
28,204	-3	-0,851
30,364	-3	-0,844
32,53	-5	-0,945
34,689	-5,5	-0,964
36,849	-6	-1,024
39,009	-6,5	-1,095
41,175	-7,5	-1,176
43,341	-8	-1,292
45,507	-9	-1,341
47,673	-9	-1,38
49,832	-9,5	-1,45
52,004	-10,5	-1,614
54,164	-10,5	-1,627
56,325	-11,5	-1,736
58,484	-12	-1,796
60,65	-13,5	-1,881
62,81	-15	-2,022
64,97	-16	-2,111
67,13	-17	-2,217
69,295	-18	-2,336
71,455	-19	-2,422
73,615	-19,5	-2,51
75,775	-21	-2,613
77,935	-21	-2,679
80,101	-21	-2,711
82,261	-21,5	-2,745
84,439	-22,5	-2,87
86,598	-22,5	-2,872
88,77	-24,5	-3,041
90,936	-25	-3,094
93,102	-26	-3,225
95,268	-28	-3,279
97,428	-29	-3,327
99,594	-30	-3,372
101,76	-31	-3,424
103,937	-32	-3,444
106,097	-32,5	-3,456
108,257	-33	-3,468
110,423	-33,5	-3,478
112,583	-33,5	-3,479
114,749	-33,5	-3,482
116,921	-33,5	-3,489
119,087	-33,5	-3,492
121,252	-33,5	-3,494
123,424	-33,5	-3,495
125,59	-33,5	-3,497
127,75	-33,5	-3,498
129,916	-33,5	-3,498
132,082	-33,5	-3,499
134,254	-33,5	-3,499
136,414	-33,5	-3,499
138,579	-33	-3,499
140,751	-33	-3,492
142,917	-33	-3,37
145,083	-33	-3,328
147,255	-33	-3,246
149,421	-30,5	-3,11
151,587	-30	-3,03
153,759	-28,5	-2,92
155,925	-25,5	-2,765
158,09	-25	-2,695
160,262	-24	-2,654
162,422	-23	-2,561
164,6	-21	-2,41
166,76	-20,5	-2,324
168,932	-20,5	-2,261
171,092	-20	-2,211
173,269	-18,5	-2,06
175,429	-18	-2,01
177,601	-16	-1,916
179,773	-15	-1,774
181,951	-13,5	-1,645
184,123	-12	-1,56
186,283	-11,5	-1,5
188,449	-10	-1,378
190,62	-8	-1,199
192,798	-6	-1,02
194,959	-5,5	-0,976
197,13	-5	-0,839
199,302	-3,5	-0,687
201,48	-2	-0,484
203,652	-1	-0,284
205,818	0,5	-0,18
208,001	1,5	-0,092
210,167	2	-0,057
212,351	2,5	-0,036
214,523	3	-0,02
216,701	3	-0,01
218,861	3	-0,006
221,033	3,5	-0,003
223,199	3,5	-0,003
225,358	3	-0,002
227,53	3	-0,002
229,69	3	-0,002
231,874	3	-0,001
234,046	3	0
236,218	3	-0,022
238,39	3	-0,244
240,562	1,5	-0,393
242,728	1,5	-0,425
244,899	0	-0,509
247,065	0	-0,59
249,249	-2,5	-0,797
251,415	-4	-0,9
253,593	-4,5	-1,022
255,765	-4,5	-1,148
257,931	-6	-1,287
260,104	-7,5	-1,456
262,268	-8,5	-1,621
264,435	-10,5	-1,807
266,594	-12	-1,906
268,766	-12	-2,037
270,944	-15	-2,267
273,116	-17	-2,431
275,282	-18,5	-2,569
277,465	-20	-2,744
279,637	-22	-2,956
281,803	-23,5	-3,111
283,981	-23	-3,327
286,147	-28	-3,394
288,307	-30	-3,444
290,473	-30	-3,47
292,639	-31	-3,481
294,798	-31	-3,487
296,97	-31,5	-3,494
299,13	-31,5	-3,495
301,308	-31,5	-3,498
303,48	-31,5	-3,498
305,652	-31,5	-3,499
307,836	-31,5	-3,5
310,008	-31,5	-3,414
312,174	-31	-3,181
314,345	-28,5	-2,99
316,523	-25,5	-2,808
318,689	-24	-2,643
320,867	-21,5	-2,454
323,039	-19,5	-2,285
325,205	-19,5	-2,2
327,371	-18	-2,13
329,536	-16	-1,96
331,714	-13,5	-1,751
333,88	-12,5	-1,639
336,058	-10,5	-1,473
338,224	-9,5	-1,355
340,402	-7,5	-1,184
342,574	-6	-1,084
344,746	-6	-0,974
346,923	-4,5	-0,823
349,089	-3	-0,71
351,261	-2,5	-0,564
353,427	-2	-0,473
355,599	-1,5	-0,405
357,765	-1	-0,325
359,949	0	-0,231
362,121	0	-0,159
364,286	1,5	-0,103
366,458	2	-0,073
368,63	2,5	-0,055
370,808	3,5	-0,03
372,98	3,5	-0,019
375,152	3,5	-0,01
377,324	3,5	-0,006
379,496	3,5	-0,003
381,662	3,5	-0,003
383,827	3,5	-0,002
386	3,5	-0,002
388,177	3,5	-0,002
390,343	3,5	-0,001
392,521	3,5	-0,001
394,687	3,5	0
396,865	3,5	-0,196
399,03	3	-0,311
401,202	2	-0,491
403,374	0	-0,644
405,558	-1	-0,777
407,73	-2	-0,824
409,908	-3,5	-0,942
412,08	-3,5	-1,016
414,252	-4,5	-1,131
416,435	-5,5	-1,312
418,601	-6	-1,488
420,773	-7,5	-1,651
422,951	-9	-1,822
425,129	-11,5	-2,07
427,295	-12,5	-2,207
429,467	-14,5	-2,345
431,639	-14,5	-2,412
433,805	-15,5	-2,492
435,976	-16,5	-2,607
438,148	-18	-2,692
440,32	-18	-2,756
442,486	-20	-2,876
444,664	-21,5	-3,042
446,836	-22	-3,148
449,002	-23,5	-3,22
451,174	-24	-3,306
453,351	-25,5	-3,368
455,517	-27	-3,405
457,689	-28	-3,432
459,861	-29	-3,46
462,033	-29	-3,47
464,211	-29,5	-3,48
466,377	-29,5	-3,485
468,555	-30	-3,492
470,726	-30	-3,494
472,898	-30	-3,495
475,07	-30	-3,496
477,248	-30	-3,497
479,414	-30	-3,497
481,586	-30	-3,498
483,758	-29,5	-3,498
485,936	-30	-3,499
488,101	-30	-3,499
490,273	-30	-3,499
492,439	-30	-3,5
494,611	-30	-3,42
496,777	-30	-3,192
498,949	-28	-3,07
501,115	-25,5	-2,889
503,281	-22,5	-2,723
505,458	-20,5	-2,511
507,63	-20	-2,441
509,802	-19	-2,336
511,98	-16,5	-2,186
514,146	-15,5	-2,074
516,324	-14,5	-1,96
518,49	-13,5	-1,864
520,662	-12	-1,78
522,828	-11,5	-1,726
524,999	-10	-1,589
527,165	-10	-1,559
529,343	-8,5	-1,428
531,515	-8,5	-1,366
533,681	-8	-1,383
535,865	-7,5	-1,313
538,037	-6	-1,255
540,208	-6,5	-1,2
542,374	-6	-1,146
544,552	-5	-0,994
546,724	-4,5	-0,949
548,902	-3	-0,798
551,074	-3	-0,694
553,252	-2,5	-0,628
555,424	-1	-0,496
557,595	-0,5	-0,418
559,773	-1	-0,368
561,945	0	-0,305
564,117	0,5	-0,194
566,283	1,5	-0,132
568,455	2	-0,098
570,627	2	-0,085
572,793	3	-0,053
574,958	3	-0,052
577,118	2,5	-0,06
579,296	3	-0,049
581,468	3	-0,033
583,64	3,5	-0,026
585,806	3,5	-0,017
587,984	3,5	-0,013
590,144	3,5	-0,01
592,315	3,5	-0,007
594,481	3,5	-0,005
596,653	3,5	-0,004
598,831	3,5	-0,002
601,003	3,5	-0,002
603,169	3,5	-0,001
605,347	3,5	-0,001
607,513	3,5	-0,001
609,678	3,5	0
611,85	3,5	-0,118
614,016	3,5	-0,2
616,2	3	-0,33
618,372	2	-0,424
620,544	2	-0,487
622,716	0	-0,602
624,882	0	-0,662
627,047	-1	-0,768
629,219	-2,5	-0,862
631,385	-3	-0,953
633,557	-3,5	-1,037
635,741	-4,5	-1,207
637,913	-5	-1,312
640,091	-6	-1,457
642,257	-6	-1,553
644,428	-7	-1,637
646,594	-8,5	-1,766
648,772	-10	-1,969
650,944	-10	-2,031
653,116	-11,5	-2,167
655,288	-12,5	-2,304
657,46	-14	-2,414
659,644	-15	-2,552
661,815	-17	-2,685
663,993	-18	-2,808
666,165	-18	-2,834
668,343	-19,5	-2,974
670,503	-19,5	-2,976
672,681	-21	-3,101
674,853	-21	-3,194
677,031	-23	-3,256
679,196	-24	-3,342
681,356	-23,5	-3,344
683,528	-25,5	-3,373
685,706	-26,5	-3,408
687,878	-24,5	-3,421
690,038	-26,5	-3,428
692,216	-27,5	-3,452
694,382	-27	-3,465
696,566	-28,5	-3,478
698,731	-28,5	-3,488
700,909	-28,5	-3,492
703,075	-28,5	-3,494
705,247	-29	-3,495
707,419	-29	-3,497
709,591	-29	-3,498
711,763	-29	-3,499
713,935	-28,5	-3,499
716,106	-29	-3,499
718,272	-28,5	-3,5
720,444	-28,5	-3,499
722,61	-28,5	-3,48
724,776	-28,5	-3,44
726,936	-28,5	-3,396
729,102	-28,5	-3,328
731,274	-28,5	-3,231
733,451	-28	-3,094
735,623	-24,5	-3,036
737,783	-24,5	-3,019
739,961	-26,5	-2,947
742,127	-22,5	-2,83
744,299	-22,5	-2,768
746,465	-21	-2,735
748,631	-21	-2,671
750,802	-20	-2,598
752,98	-21,5	-2,49
755,146	-19,5	-2,434
757,324	-16,5	-2,334
759,49	-16,5	-2,295
761,662	-17	-2,164
763,834	-14,5	-2,07
766,006	-13	-2,029
768,177	-13	-1,962
770,349	-12	-1,916
772,521	-12	-1,933
774,687	-12	-1,864
776,859	-12	-1,87
779,031	-11	-1,797
781,197	-10,5	-1,77
783,363	-10	-1,728
785,534	-9,5	-1,654
787,712	-9	-1,61
789,884	-8	-1,526
792,05	-8,5	-1,452
794,222	-7,5	-1,4
796,388	-6,5	-1,289
798,56	-5,5	-1,178
800,738	-5	-1,07
802,909	-4,5	-0,98
805,075	-4	-0,874
807,241	-3	-0,832
809,419	-2	-0,686
811,597	-2,5	-0,545
813,769	-1,5	-0,515
815,941	-0,5	-0,42
818,107	-0,5	-0,357
820,278	0	-0,257
822,438	0,5	-0,192
824,616	0,5	-0,165
826,788	1	-0,14
828,96	1	-0,153
831,126	1	-0,14
833,292	0,5	-0,155
835,47	1,5	-0,091
837,641	3	-0,062
839,801	3	-0,061
841,967	3	-0,058
844,133	2,5	-0,052
846,299	3	-0,053
848,471	2,5	-0,051
850,637	3,5	-0,039
852,815	3,5	-0,029
854,98	3,5	-0,026
857,152	3,5	-0,018
859,324	3,5	-0,014
861,496	3,5	-0,01
863,662	3,5	-0,011
865,84	4	-0,008
868,012	4	-0,007
870,184	4	-0,005
872,356	4	-0,006
874,527	4	-0,004
876,699	3,5	-0,004
878,865	3,5	-0,003
881,049	4	-0,002
883,221	3,5	-0,002
885,381	3,5	-0,002
887,547	4	-0,002
889,718	3,5	-0,001
891,902	4	-0,001
894,068	4	-0,001
896,246	3,5	0
898,424	3,5	-0,006
900,596	3,5	-0,146
902,768	3,5	-0,217
904,946	4	-0,263
907,117	3	-0,331
909,289	3	-0,384
911,461	2,5	-0,42
913,633	2	-0,466
915,805	1,5	-0,55
917,971	1,5	-0,593
920,143	1,5	-0,543
922,315	0	-0,637
924,486	0,5	-0,642
926,658	0	-0,687
928,836	-1,5	-0,801
931,002	-1	-0,78
933,18	-1	-0,771
935,352	-2	-0,855
937,53	-2	-0,931
939,696	-2,5	-0,942
941,867	-3	-1,064
944,045	-3,5	-1,246
946,211	-4,5	-1,294
948,383	-4,5	-1,388
950,549	-4,5	-1,452
952,727	-5,5	-1,598
954,893	-6,5	-1,662
957,071	-7,5	-1,834
959,236	-8	-1,866
961,408	-8	-1,977
963,586	-9	-2,022
965,752	-9,5	-2,043
967,936	-10,5	-2,208
970,108	-11	-2,296
972,274	-11,5	-2,332
974,446	-11,5	-2,338
976,618	-13	-2,432
978,789	-14,5	-2,542
980,961	-15	-2,674
983,127	-15	-2,738
985,299	-16,5	-2,832
987,465	-17	-2,901
989,637	-19	-3,007
991,809	-19,5	-3,058
993,974	-19,5	-3,09
996,146	-21,5	-3,215
998,312	-21	-3,2
1000,472	-21	-3,198
1002,65	-22	-3,286
1004,822	-22,5	-3,348
1006,988	-24	-3,378
1009,154	-24,5	-3,409
1011,325	-26,5	-3,448
1013,497	-26,5	-3,455
1015,657	-27	-3,462
1017,835	-27	-3,475
1020,007	-27	-3,482
1022,167	-27	-3,486
1024,339	-27	-3,49
1026,511	-27	-3,492
1028,677	-27,5	-3,494
1030,848	-27,5	-3,495
1033,02	-27,5	-3,496
1035,192	-27	-3,498
1037,358	-27,5	-3,498
1039,524	-27	-3,499
1041,696	-27,5	-3,499
1043,862	-27,5	-3,5
1046,028	-27	-3,338
1048,199	-26,5	-3,132
1050,371	-25	-3,049
1052,531	-24,5	-3,015
1054,703	-22,5	-2,935
1056,875	-22	-2,809
1059,041	-21	-2,713
1061,207	-20	-2,675
1063,373	-19,5	-2,608
1065,544	-18	-2,491
1067,71	-17,5	-2,458
1069,876	-17	-2,362
1072,048	-15	-2,231
1074,214	-14,5	-2,156
1076,38	-15	-2,107
1078,552	-13	-2,061
1080,718	-12,5	-1,987
1082,883	-10	-1,859
1085,055	-10,5	-1,801
1087,227	-9	-1,676
1089,393	-9	-1,664
1091,565	-7	-1,513
1093,731	-6	-1,4
1095,903	-5	-1,275
1098,069	-4,5	-1,162
1100,24	-3	-1,046
1102,412	-3	-0,931
1104,578	-3	-0,84
1106,744	-2,5	-0,824
1108,91	-2	-0,76
1111,082	-1	-0,645
1113,254	-1	-0,572
1115,42	0	-0,401
1117,585	0	-0,338
1119,757	0	-0,286
1121,923	1,5	-0,162
1124,095	1,5	-0,138
1126,261	2	-0,109
1128,433	2,5	-0,076
1130,605	3	-0,063
1132,771	3	-0,054
1134,936	3	-0,049
1137,102	3,5	-0,04
1139,274	3,5	-0,031
1141,44	3,5	-0,024
1143,612	3,5	-0,016
1145,778	4	-0,01
1147,944	4	-0,007
1150,116	4	-0,005
1152,281	4	-0,004
1154,447	3,5	-0,003
1156,613	3,5	-0,002
1158,785	4	-0,002
1160,957	3,5	-0,002
1163,123	3,5	-0,001
1165,295	3,5	-0,001
1167,473	3,5	-0,001
1169,638	4	0
1171,81	3,5	0
1173,982	3,5	-0,169
1176,154	3,5	-0,272
1178,32	2,5	-0,38
1180,486	2,5	-0,434
1182,658	0,5	-0,535
1184,824	-0,5	-0,693
1186,995	-1,5	-0,798
1189,161	-2	-0,847
1191,327	-2	-0,896
1193,505	-2,5	-0,992
1195,671	-3	-1,084
1197,843	-4	-1,193
1200,009	-3,5	-1,232
1202,181	-4	-1,294
1204,346	-4,5	-1,369
1206,518	-5	-1,467
1208,708	-5	-1,577
1210,874	-5,5	-1,588
1213,052	-6	-1,702
1215,218	-6,5	-1,734
1217,384	-6,5	-1,751
1219,556	-7	-1,781
1221,727	-7,5	-1,885
1223,893	-8,5	-1,928
1226,065	-8,5	-1,985
1228,243	-9,5	-2,125
1230,409	-9,5	-2,169
1232,581	-12	-2,374
1234,753	-13	-2,441
1236,919	-13	-2,463
1239,084	-12,5	-2,49
1241,256	-14	-2,579
1243,422	-14,5	-2,668
1245,594	-15,5	-2,737
1247,76	-14,5	-2,839
1249,926	-16,5	-2,903
1252,098	-18,5	-3,024
1254,27	-18	-3,193
1256,448	-20	-3,31
1258,619	-23	-3,36
1260,785	-23,5	-3,393
1262,957	-22	-3,425
1265,129	-25	-3,445
1267,301	-25,5	-3,46
1269,473	-26	-3,476
1271,645	-25,5	-3,479
1273,81	-26	-3,482
1275,988	-26,5	-3,488
1278,16	-26,5	-3,489
1280,338	-26,5	-3,494
1282,504	-26,5	-3,495
1284,676	-26,5	-3,496
1286,848	-26,5	-3,497
1289,02	-26,5	-3,498
1291,192	-26,5	-3,498
1293,357	-26,5	-3,498
1295,529	-26,5	-3,499
1297,695	-26,5	-3,499
1299,873	-26,5	-3,499
1302,039	-26,5	-3,5
1304,223	-26,5	-3,467
1306,389	-26,5	-3,457
1308,567	-26,5	-3,32
1310,732	-26,5	-3,224
1312,91	-24,5	-3,07
1315,076	-24,5	-3,029
1317,248	-21,5	-2,865
1319,42	-21,5	-2,781
1321,586	-20	-2,728
1323,758	-19,5	-2,617
1325,924	-18,5	-2,494
1328,101	-18	-2,471
1330,267	-18,5	-2,46
1332,433	-16,5	-2,391
1334,599	-16	-2,322
1336,777	-15	-2,261
1338,943	-15	-2,234
1341,121	-15	-2,217
1343,287	-13,5	-2,134
1345,458	-12	-2,015
1347,63	-10,5	-1,894
1349,796	-10	-1,798
1351,974	-8,5	-1,69
1354,14	-10	-1,669
1356,318	-8,5	-1,629
1358,484	-6	-1,475
1360,65	-6,5	-1,47
1362,815	-5,5	-1,33
1364,987	-5	-1,28
1367,153	-5	-1,258
1369,331	-4	-1,091
1371,503	-3,5	-1,008
1373,675	-3	-0,966
1375,847	-2,5	-0,899
1378,019	-2,5	-0,829
1380,19	-2	-0,727
1382,356	-1,5	-0,624
1384,522	-0,5	-0,54
1386,694	-0,5	-0,499
1388,866	-0,5	-0,469
1391,038	-0,5	-0,381
1393,21	0	-0,349
1395,382	0,5	-0,252
1397,554	0	-0,265
1399,731	0,5	-0,202
1401,897	0,5	-0,204
1404,063	0,5	-0,23
1406,229	0,5	-0,191
1408,401	1	-0,171
1410,567	1,5	-0,112
1412,751	2,5	-0,077
1414,922	3	-0,072
1417,088	3	-0,069
1419,26	3,5	-0,052
1421,432	3	-0,045
1423,61	3,5	-0,03
1425,776	3,5	-0,034
1427,948	3,5	-0,028
1430,108	3,5	-0,034
1432,285	3,5	-0,023
1434,451	3,5	-0,022
1436,623	3,5	-0,021
1438,789	3,5	-0,017
1440,961	3,5	-0,013
1443,127	3,5	-0,01
1445,299	4	-0,008
1447,477	4	-0,006
1449,642	4	-0,004
1451,814	4	-0,004
1453,986	4	-0,003
1456,158	4	-0,002
1458,33	4	-0,002
1460,502	4	-0,002
1462,674	4	-0,002
1464,84	4	-0,001
1467,011	4	-0,001
1469,183	4	-0,001
1471,361	4	-0,001
1473,527	4	-0,001
1475,693	4	-0,001
1477,865	4	0
1480,031	4	0
1482,203	4	0
1484,368	4	-0,006
1486,546	4	-0,112
1488,73	4	-0,262
1490,902	3,5	-0,33
1493,074	3	-0,446
1495,246	1	-0,562
1497,418	0	-0,62
1499,59	0	-0,692
1501,76	0	-0,712
1503,927	0	-0,723
1506,099	-1	-0,764
1508,277	-1,5	-0,83
1510,443	-1,5	-0,851
1512,615	-2	-0,909
1514,781	-2	-0,972
1516,959	-2,5	-1,027
1519,125	-3	-1,119
1521,302	-3	-1,172
1523,468	-3	-1,214
1525,64	-3,5	-1,274
1527,818	-3,5	-1,333
1529,99	-4	-1,433
1532,162	-4,5	-1,564
1534,334	-5,5	-1,647
1536,505	-5	-1,694
1538,677	-5,5	-1,687
1540,849	-5,5	-1,723
1543,021	-6	-1,796
1545,193	-6	-1,756
1547,365	-6	-1,819
1549,531	-6	-1,836
1551,703	-7,5	-1,988
1553,875	-8,5	-2,082
1556,046	-8,5	-2,124
1558,218	-9	-2,18
1560,384	-9	-2,213
1562,556	-10	-2,317
1564,728	-10	-2,337
1566,894	-10,5	-2,322
1569,066	-10	-2,352
1571,232	-11	-2,369
1573,397	-10	-2,332
1575,575	-12	-2,466
1577,741	-11	-2,44
1579,919	-11,5	-2,447
1582,085	-11	-2,448
1584,257	-11,5	-2,462
1586,423	-12	-2,536
1588,589	-12,5	-2,627
1590,754	-14	-2,697
1592,932	-14,5	-2,726
1595,098	-15	-2,838
1597,276	-16	-2,908
1599,442	-15,5	-2,878
1601,614	-16,5	-2,908
1603,786	-16,5	-2,992
1605,952	-17,5	-2,997
1608,129	-18,5	-3,058
1610,295	-17,5	-3,037
1612,473	-18,5	-3,123
1614,639	-19	-3,192
1616,817	-20,5	-3,286
1618,977	-20	-3,257
1621,149	-20,5	-3,276
1623,321	-21	-3,339
1625,492	-21,5	-3,346
1627,67	-22,5	-3,376
1629,836	-21,5	-3,352
1632,02	-23	-3,405
1634,18	-23	-3,411
1636,358	-24	-3,444
1638,524	-24,5	-3,456
1640,696	-25	-3,469
1642,867	-25	-3,478
1645,033	-25	-3,481
1647,205	-25,5	-3,484
1649,377	-25,5	-3,486
1651,555	-25,5	-3,49
1653,721	-25,5	-3,489
1655,887	-25,5	-3,491
1658,059	-25,5	-3,493
1660,224	-25,5	-3,494
1662,396	-25,5	-3,495
1664,568	-25,5	-3,496
1666,74	-25,5	-3,497
1668,906	-25,5	-3,497
1671,078	-25,5	-3,497
1673,244	-25,5	-3,497
1675,416	-25,5	-3,498
1677,582	-25,5	-3,498
1679,753	-25,5	-3,498
1681,919	-25,5	-3,498
1684,097	-25,5	-3,498
1686,263	-25,5	-3,499
1688,435	-25,5	-3,499
1690,607	-25,5	-3,499
1692,779	-25,5	-3,5
1694,944	-25,5	-3,498
1697,104	-25,5	-3,486
1699,27	-25,5	-3,472
1701,448	-25,5	-3,305
1703,614	-25,5	-3,27
1705,78	-25,5	-3,204
1707,946	-25,5	-3,187
1710,118	-24,5	-3,102
1712,29	-23	-3,066
1714,455	-25	-2,98
1716,639	-21	-2,864
1718,805	-19,5	-2,814
1720,989	-18,5	-2,688
1723,155	-21	-2,67
1725,327	-18	-2,566
1727,505	-15	-2,479
1729,67	-15	-2,436
1731,842	-17	-2,423
1734,008	-14	-2,353
1736,186	-11,5	-2,16
1738,352	-12,5	-2,202
1740,524	-11	-2,138
1742,69	-12	-2,074
1744,862	-9	-1,97
1747,027	-9	-1,928
1749,193	-9	-1,889
1751,365	-8,5	-1,854
1753,531	-8	-1,789
1755,703	-7,5	-1,674
1757,869	-6,5	-1,621
1760,041	-5,5	-1,5
1762,213	-5	-1,449
1764,384	-3,5	-1,28
1766,556	-4	-1,234
1768,728	-2,5	-1,055
1770,894	-3	-0,98
1773,072	-2	-0,903
1775,238	-2	-0,95
1777,41	-2	-0,839
1779,576	-2	-0,829
1781,747	-1,5	-0,763
1783,919	-1	-0,764
1786,085	-1	-0,726
1788,257	-1,5	-0,759
1790,423	-1	-0,727
1792,595	-1	-0,623
1794,761	-0,5	-0,594
1796,939	-0,5	-0,545
1799,105	-0,5	-0,503
1801,27	0	-0,47
1803,442	0	-0,339
1805,608	0	-0,306
1807,786	0,5	-0,207
1809,952	1	-0,172
1812,124	1,5	-0,167
1814,29	1	-0,151
1816,461	1,5	-0,117
1818,633	2	-0,09
1820,805	3	-0,064
1822,977	3,5	-0,058
1825,143	3	-0,058
1827,315	3,5	-0,056
1829,481	3,5	-0,053
1831,653	3,5	-0,044
1833,825	3,5	-0,031
1835,984	3,5	-0,033
1838,156	3,5	-0,03
1840,322	3,5	-0,026
1842,488	4	-0,024
1844,666	4	-0,017
1846,826	3,5	-0,02
1849,004	4	-0,014
1851,17	4	-0,013
1853,347	4	-0,006
1855,513	4	-0,005
1857,679	4	-0,004
1859,851	4	-0,003
1862,017	4	-0,002
1864,183	4	-0,002
1866,349	4	-0,002
1868,527	4	-0,002
1870,692	4	-0,002
1872,858	4	-0,001
1875,024	4	-0,001
1877,196	4	-0,001
1879,362	4	-0,001
1881,534	4	-0,001
1883,7	4	-0,001
1885,866	4	-0,001
1888,037	4	-0,001
1890,203	4	0
1892,381	4	-0,001
1894,547	4	-0,02
1896,725	4	-0,15
1898,891	4	-0,223
1901,057	3,5	-0,386
1903,229	3	-0,486
1905,394	1,5	-0,524
1907,572	0	-0,671
1909,738	0	-0,735
1911,91	-1,5	-0,861
1914,082	-2	-1,001
1916,254	-2,5	-1,059
1918,426	-3	-1,254
1920,598	-3	-1,284
1922,769	-4	-1,443
1924,929	-3,5	-1,408
1927,095	-3,5	-1,397
1929,273	-4,5	-1,516
1931,445	-4,5	-1,647
1933,617	-5	-1,688
1935,783	-4,5	-1,758
1937,955	-6	-1,927
1940,132	-7,5	-2,056
1942,298	-7,5	-2,105
1944,464	-7,5	-2,136
1946,636	-8	-2,188
1948,814	-8,5	-2,238
1950,98	-9	-2,308
1953,152	-9,5	-2,343
1955,318	-9	-2,344
1957,483	-9,5	-2,402
1959,655	-10,5	-2,454
1961,833	-11,5	-2,578
1964,005	-13	-2,673
1966,171	-13	-2,731
1968,343	-14	-2,864
1970,509	-15	-2,948
1972,675	-15,5	-3,022
1974,846	-17,5	-3,133
1977,018	-18	-3,215
1979,19	-19,5	-3,312
1981,356	-20	-3,354
1983,522	-20	-3,372
1985,694	-21	-3,398
1987,86	-21,5	-3,413
1990,032	-23	-3,446
1992,191	-23,5	-3,46
1994,363	-24	-3,474
1996,535	-24	-3,483
1998,701	-24	-3,486
2000,879	-24	-3,491
2003,045	-24	-3,492
2005,211	-24,5	-3,495
2007,383	-24	-3,498
2009,554	-24,5	-3,498
2011,72	-24	-3,498
2013,892	-24,5	-3,499
2016,064	-24	-3,499
2018,23	-24	-3,5
2020,402	-24	-3,5
2022,568	-24	-3,471
2024,734	-24	-3,376
2026,899	-24	-3,328
2029,071	-23	-3,147
2031,237	-23	-3,105
2033,409	-21	-3,004
2035,587	-19,5	-2,901
2037,753	-18,5	-2,768
2039,919	-18	-2,704
2042,091	-14,5	-2,434
2044,262	-12	-2,303
2046,434	-10,5	-2,092
2048,606	-9	-2,003
2050,772	-8,5	-1,918
2052,944	-7,5	-1,86
2055,11	-8	-1,849
2057,276	-7,5	-1,774
2059,448	-6	-1,659
2061,613	-5,5	-1,59
2063,786	-5	-1,517
2065,951	-5	-1,498
2068,123	-4	-1,38
2070,301	-3	-1,267
2072,473	-3	-1,188
2074,639	-2,5	-1,145
2076,817	-2,5	-1,036
2078,983	-1,5	-0,915
2081,154	-1	-0,81
2083,326	-1	-0,753
2085,498	0	-0,61
2087,664	0	-0,524
2089,83	0	-0,391
2091,996	0,5	-0,322
2094,168	1	-0,235
2096,333	1,5	-0,165
2098,505	2	-0,15
2100,671	2	-0,136
2102,843	2,5	-0,116
2105,015	3	-0,082
2107,181	3,5	-0,054
2109,353	3,5	-0,041
2111,525	4	-0,024
2113,691	4	-0,02
2115,868	4	-0,018
2118,034	4	-0,016
2120,206	4	-0,014
2122,384	4	-0,01
2124,55	4	-0,007
2126,722	4	-0,005
2128,894	4	-0,004
2131,06	4	-0,004
2133,237	4	-0,004
2135,409	4	-0,003
2137,569	4	-0,003
2139,747	4	-0,002
2141,913	4	-0,002
2144,085	4,5	-0,002
2146,251	4	-0,002
2148,417	4	-0,002
2150,588	4	-0,002
2152,754	4	-0,002
2154,926	4	-0,001
2157,098	4	-0,001
2159,264	4	-0,001
2161,442	4	-0,001
2163,608	4	-0,001
2165,774	4	0
2167,951	4	0
2170,117	4	-0,001
2172,283	4	-0,005
2174,455	4	-0,052
2176,627	4	-0,108
2178,793	4	-0,132
2180,965	4	-0,184
2183,131	4	-0,173
2185,302	4	-0,148
2187,474	4	-0,169
2189,64	4	-0,181
2191,818	4	-0,228
2193,984	4	-0,256
2196,15	4	-0,299
2198,322	3,5	-0,346
2200,488	3,5	-0,384
2202,659	2,5	-0,452
2204,831	1,5	-0,471
2206,991	2	-0,458
2209,163	2	-0,526
2211,329	3	-0,489
2213,501	1,5	-0,567
2215,673	0,5	-0,592
2217,839	0,5	-0,614
2220,01	0	-0,681
2222,176	0	-0,704
2224,348	-1	-0,819
2226,514	-1	-0,936
2228,686	-1	-0,993
2230,852	-2	-1,058
2233,03	-2,5	-1,203
2235,196	-2	-1,188
2237,367	-2	-1,212
2239,539	-2,5	-1,249
2241,705	-2	-1,227
2243,877	-2,5	-1,342
2246,043	-3	-1,434
2248,215	-3,5	-1,607
2250,387	-4	-1,712
2252,559	-4	-1,764
2254,736	-4,5	-1,872
2256,902	-4,5	-1,894
2259,068	-4,5	-1,872
2261,24	-4,5	-1,85
2263,406	-4,5	-1,83
2265,572	-4	-1,882
2267,75	-5	-2,039
2269,916	-5	-2,156
2272,093	-5,5	-2,232
2274,259	-5,5	-2,281
2276,431	-6	-2,316
2278,603	-6	-2,368
2280,769	-6,5	-2,438
2282,935	-7	-2,486
2285,107	-6,5	-2,436
2287,273	-6	-2,384
2289,456	-6,5	-2,453
2291,622	-6	-2,448
2293,788	-6,5	-2,448
2295,966	-7	-2,492
2298,126	-6,5	-2,447
2300,298	-6	-2,493
2302,47	-6,5	-2,491
2304,642	-6	-2,506
2306,801	-6,5	-2,55
2308,979	-6	-2,5
2311,145	-6,5	-2,527
2313,317	-6	-2,574
2315,489	-6,5	-2,555
2317,661	-6,5	-2,602
2319,827	-8	-2,756
2321,993	-8	-2,789
2324,17	-8,5	-2,887
2326,339	-8,5	-2,892
2328,502	-8,5	-2,818
2330,674	-8	-2,832
2332,846	-9	-2,953
2335,018	-9	-3,058
2337,19	-10	-3,072
2339,356	-10	-3,151
2341,521	-10	-3,062
2343,693	-9,5	-3,098
2345,859	-9,5	-3,088
2348,037	-10,5	-3,202
2350,197	-10	-3,182
2352,363	-11,5	-3,242
2354,535	-11	-3,265
2356,701	-11	-3,223
2358,873	-10,5	-3,216
2361,044	-12	-3,31
2363,216	-12	-3,344
2365,382	-13	-3,38
2367,548	-12,5	-3,388
2369,72	-14	-3,422
2371,892	-14	-3,434
2374,058	-13,5	-3,424
2376,236	-14	-3,44
2378,401	-14,5	-3,448
2380,573	-14,5	-3,451
2382,739	-15	-3,457
2384,911	-14,5	-3,456
2387,083	-15	-3,458
2389,249	-15	-3,461
2391,421	-15	-3,472
2393,587	-15	-3,477
2395,752	-15	-3,48
2397,924	-15	-3,484
2400,09	-15	-3,486
2402,256	-14,5	-3,486
2404,428	-15	-3,491
2406,594	-15	-3,491
2408,766	-15	-3,491
2410,938	-15	-3,494
2413,103	-15	-3,494
2415,275	-15	-3,495
2417,447	-15	-3,496
2419,619	-15	-3,497
2421,791	-15	-3,497
2423,963	-15	-3,497
2426,129	-15	-3,498
2428,307	-15	-3,498
2430,472	-15	-3,498
2432,65	-14,5	-3,498
2434,816	-15	-3,499
2436,982	-15	-3,499
2439,154	-15	-3,499
2441,326	-14,5	-3,499
2443,498	-14,5	-3,499
2445,664	-14,5	-3,499
2447,829	-14,5	-3,5
2450,001	-13,5	-3,5
2452,173	-14	-3,462
2454,339	-13,5	-3,349
2456,517	-13,5	-3,233
2458,683	-13,5	-3,196
2460,861	-13	-3,166
2463,027	-13	-3,144
2465,192	-13,5	-3,139
2467,364	-12	-3,096
2469,524	-13,5	-3,144
2471,696	-11,5	-3,107
2473,862	-11,5	-3,08
2476,034	-9	-2,984
2478,206	-9,5	-2,945
2480,372	-9,5	-2,923
2482,537	-8	-2,888
2484,709	-7	-2,727
2486,875	-6	-2,705
2489,041	-5,5	-2,593
2491,213	-5	-2,51
2493,385	-5	-2,474
2495,563	-4	-2,382
2497,729	-4	-2,329
2499,9	-3,5	-2,244
2502,066	-3	-2,185
2504,238	-3	-2,224
2506,41	-3	-2,204
2508,576	-3	-2,183
2510,742	-2,5	-2,113
2512,92	-1,5	-1,994
2515,092	-1,5	-1,874
2517,257	-1	-1,815
2519,423	-1	-1,772
2521,589	-1	-1,762
2523,755	-1	-1,72
2525,927	-0,5	-1,629
2528,093	0	-1,565
2530,265	-0,5	-1,556
2532,431	-0,5	-1,573
2534,602	0	-1,488
2536,768	0	-1,376
2538,934	0	-1,354
2541,112	0	-1,22
2543,278	0	-1,155
2545,444	0	-1,134
2547,622	0,5	-0,999
2549,788	0,5	-0,945
2551,965	0,5	-0,88
2554,125	0,5	-0,884
2556,297	1	-0,837
2558,469	1	-0,764
2560,641	1	-0,739
2562,807	1	-0,674
2564,979	1,5	-0,591
2567,145	1,5	-0,601
2569,316	1,5	-0,565
2571,488	1,5	-0,518
2573,654	1,5	-0,518
2575,82	1,5	-0,497
2577,986	1,5	-0,48
2580,158	2	-0,398
2582,33	2,5	-0,284
2584,496	2	-0,277
2586,668	2	-0,293
2588,827	2	-0,282
2590,993	2	-0,247
2593,165	2,5	-0,202
2595,331	3	-0,15
2597,497	2,5	-0,15
2599,675	3,5	-0,082
2601,841	3,5	-0,067
2604,006	4	-0,064
2606,178	3,5	-0,045
2608,35	4	-0,032
2610,522	4	-0,024
2612,694	4	-0,018
2614,86	4	-0,016
2617,038	4,5	-0,011
2619,204	4	-0,01
2621,381	4	-0,005
2623,547	4,5	-0,004
2625,713	4,5	-0,003
2627,891	4,5	-0,003
2630,057	4	-0,002
2632,229	4,5	-0,002
2634,401	4,5	-0,001
2636,573	4,5	-0,001
2638,738	4,5	-0,001
2640,904	4,5	-0,001
2643,07	4,5	-0,001
2645,242	4	0
2647,408	4	-0,008
2649,574	4	-0,052
2651,752	4	-0,207
2653,918	3,5	-0,365
2656,084	3	-0,392
2658,249	3,5	-0,377
2660,421	2,5	-0,45
2662,587	3	-0,439
2664,759	3	-0,422
2666,925	2,5	-0,433
2669,097	2,5	-0,505
2671,263	1,5	-0,57
2673,435	1,5	-0,701
2675,606	0	-0,817
2677,772	0	-0,786
2679,938	0,5	-0,848
2682,11	0	-0,901
2684,276	0	-0,902
2686,442	0	-0,881
2688,614	0	-1,012
2690,78	-0,5	-0,986
2692,957	-0,5	-1,116
2695,123	-0,5	-1,158
2697,295	-0,5	-1,12
2699,473	-0,5	-1,191
2701,639	-0,5	-1,192
2703,811	-1	-1,329
2705,977	-1	-1,398
2708,149	-1	-1,422
2710,32	-1,5	-1,602
2712,486	-1,5	-1,586
2714,652	-1,5	-1,645
2716,83	-1,5	-1,732
2718,996	-1,5	-1,786
2721,174	-2	-1,937
2723,334	-2	-1,917
2725,506	-2	-2,028
2727,677	-3	-2,212
2729,843	-3	-2,282
2732,015	-3	-2,275
2734,187	-3	-2,337
2736,353	-3	-2,407
2738,519	-3	-2,355
2740,685	-3	-2,377
2742,851	-3	-2,329
2745,016	-3	-2,382
2747,188	-3	-2,506
2749,354	-3	-2,561
2751,532	-3,5	-2,627
2753,698	-4	-2,681
2755,87	-4	-2,817
2758,042	-4	-2,906
2760,214	-4	-2,904
2762,379	-4,5	-2,863
2764,551	-4	-2,813
2766,717	-4	-2,723
2768,883	-3,5	-2,606
2771,049	-3,5	-2,634
2773,215	-3,5	-2,686
2775,387	-3,5	-2,638
2777,547	-3,5	-2,683
2779,718	-4	-2,762
2781,89	-3,5	-2,781
2784,056	-3,5	-2,722
2786,228	-3,5	-2,763
2788,4	-3,5	-2,713
2790,566	-4	-2,826
2792,738	-3,5	-2,782
2794,91	-3,5	-2,651
2797,075	-3,5	-2,642
2799,247	-3,5	-2,678
2801,419	-3,5	-2,704
2803,585	-3	-2,635
2805,757	-3	-2,596
2807,923	-3	-2,485
2810,089	-2,5	-2,39
2812,261	-3	-2,478
2814,426	-2,5	-2,382
2816,598	-2,5	-2,403
2818,77	-2,5	-2,262
2820,936	-2	-2,172
2823,102	-2	-2,141
2825,274	-1,5	-1,937
2827,446	-1,5	-1,792
2829,618	-1,5	-1,828
2831,783	-1,5	-1,77
2833,955	-1,5	-1,657
2836,133	-1,5	-1,621
2838,299	-1	-1,372
2840,471	-0,5	-1,242
2842,643	-0,5	-1,194
2844,815	-0,5	-1,192
2846,981	0	-0,948
2849,152	0	-0,882
2851,318	0	-0,792
2853,49	0	-0,839
2855,662	0,5	-0,847
2857,828	0,5	-0,842
2860	0	-0,826
2862,172	0	-0,813
2864,344	0	-0,849
2866,516	0	-0,937
2868,681	0	-0,954
2870,847	0	-0,992
2873,019	0	-1,033
2875,185	0	-1,017
2877,357	0	-0,925
2879,535	0	-0,869
2881,701	0	-0,842
2883,872	0	-0,851
2886,044	0	-0,86
2888,216	0	-0,901
2890,382	0	-0,833
2892,56	0,5	-0,771
2894,726	1	-0,606
2896,898	1,5	-0,626
2899,07	1	-0,651
2901,242	1,5	-0,629
2903,413	2	-0,563
2905,579	3	-0,446
2907,745	2,5	-0,484
2909,917	2	-0,562
2912,083	3,5	-0,483
2914,243	3,5	-0,405
2916,415	3	-0,462
2918,581	3	-0,468
2920,752	2	-0,551
2922,924	3	-0,496
2925,096	2,5	-0,516
2927,262	2,5	-0,57
2929,44	2	-0,572
2931,606	1,5	-0,572
2933,772	3	-0,471
2935,95	3	-0,446
2938,116	2,5	-0,527
2940,281	3	-0,469
2942,447	2	-0,523
2944,619	3	-0,473
2946,791	3	-0,407
2948,957	4	-0,311
2951,123	3,5	-0,252
2953,289	4	-0,116
2955,454	4	-0,135
2957,62	4	-0,006
2959,798	4	-0,035
2961,964	4	-0,041
2964,13	4	-0,083
2966,302	4	-0,071
2968,468	4	0
2970,646	4	0
2972,817	4	-0,077
2974,983	4	-0,004
2977,149	4	0
2979,321	4	-0,009
2981,493	4	0
2983,665	4	-0,002
2985,837	4	-0,004
2988,009	4	-0,1
2990,174	4	-0,185
2992,352	3,5	-0,309
2994,518	4	-0,294
2996,696	3,5	-0,414
2998,862	3	-0,43
3001,034	2	-0,568
3003,206	1	-0,656
3005,378	1	-0,708
3007,549	0	-0,84
3009,727	0	-0,911
3011,887	0	-0,822
3014,053	0	-0,802
3016,225	1	-0,673
3018,391	2	-0,572
3020,557	2,5	-0,519
3022,729	3	-0,443
3024,9	3	-0,345
3027,066	4	-0,268
3029,244	4	-0,212
3031,416	4	-0,101
3033,582	4	-0,211
3035,754	4	-0,23
3037,92	4	-0,199
3040,092	3	-0,445
3042,263	3,5	-0,416
3044,435	4	-0,265
3046,607	3,5	-0,361
3048,773	4	-0,284
3050,939	3,5	-0,286
3053,117	3,5	-0,261
3055,283	4	-0,233
3057,455	4	-0,091
3059,626	4	0
3061,792	4	-0,001
3063,964	4	-0,001
3066,136	4	-0,001
3068,308	4	-0,001
3070,474	4	-0,001
3072,652	4	-0,001
3074,818	4	-0,002
3076,989	4	-0,002
3079,161	4	-0,001
3081,333	4	-0,001
3083,505	4	-0,001
3085,665	4	-0,001
3087,831	4	-0,001
3089,997	4	-0,001
3092,169	4	-0,001
3094,334	4	-0,001
3096,509	4	-0,001
3098,672	4	-0,001
3100,838	4	-0,001
3103,004	4	0
3105,182	4	-0,077
3107,354	4	-0,152
3109,52	4	-0,13
3111,697	4	-0,181
3113,863	3,5	-0,281
3116,035	3,5	-0,364
3118,213	2,5	-0,427
3120,385	3	-0,457
3122,551	3,5	-0,367
3124,723	3	-0,398
3126,889	3,5	-0,312
3129,063	4	-0,246
3131,226	3,5	-0,333
3133,398	4	-0,178
3135,57	4	-0,205
3137,742	3,5	-0,3
3139,914	3	-0,365
3142,086	3	-0,459
3144,264	1,5	-0,577
3146,429	1,5	-0,62
3148,601	0,5	-0,683
3150,773	0	-0,873
3152,939	-0,5	-0,97
3155,105	-0,5	-1,097
3157,283	0	-1,009
3159,449	0	-1,052
3161,621	-0,5	-1,076
3163,787	0	-1,098
3165,952	-0,5	-1,146
3168,124	-0,5	-1,288
3170,29	-0,5	-1,267
3172,462	-0,5	-1,32
3174,628	-0,5	-1,379
3176,806	-0,5	-1,455
3178,972	-0,5	-1,534
3181,138	-0,5	-1,599
3183,315	-1	-1,717
3185,481	-1	-1,755
3187,653	-1	-1,812
3189,825	-1	-1,87
3191,997	-1,5	-2,059
3194,163	-1,5	-2,028
3196,335	-1,5	-1,979
3198,501	-1,5	-2,048
3200,678	-1,5	-2,072
3202,844	-1,5	-2,072
3205,01	-1,5	-1,991
3207,176	-1,5	-2,026
3209,348	-1,5	-2,186
3211,514	-1,5	-2,193
3213,68	-2	-2,2
3215,858	-2	-2,259
3218,023	-1,5	-2,291
3220,189	-2	-2,338
3222,361	-2	-2,338
3224,527	-2	-2,333
3226,693	-2	-2,334
3228,865	-2	-2,422
3231,031	-2,5	-2,417
3233,197	-2	-2,434
3234,84	4	0