File: Cycling_tests/_40perc/_2gap/entrada/_1.txt
Time (s)	Load (N)	Displacement (mm)
0	0	-0,035
2,015	1	-0,002
4,205	1	-0,001
6,203	1	-0,008
8,195	1	-0,046
10,187	-1,5	-0,398
12,179	-5	-1,092
14,17	-9,5	-1,786
16,162	-15,5	-2,523
18,16	-21,5	-3,162
20,152	-22	-3,499
22,144	-21,5	-3,492
24,142	-19	-3,436
26,134	-15,5	-3,054
28,138	-11,5	-2,526
30,13	-8	-1,938
32,127	-5	-1,397
34,125	-1	-0,791
36,123	1,5	-0,263
38,121	1,5	-0,001
40,131	2	-0,005
42,141	1,5	-0,019
44,151	1	-0,087
46,149	-0,5	-0,449
48,146	-3,5	-0,985
50,144	-7,5	-1,517
52,142	-10,5	-1,963
54,14	-15	-2,589
56,144	-20	-3,092
58,148	-20	-3,5
60,146	-20	-3,496
62,15	-20	-3,482
64,159	-17,5	-3,397
66,157	-12,5	-2,881
68,161	-9	-2,342
70,159	-5	-1,774
72,151	-3,5	-1,266
74,155	0	-0,701
76,153	2	-0,138
78,151	2	-0,002
80,155	2	-0,015
82,164	1,5	-0,049
84,174	0	-0,22
86,178	-1,5	-0,709
88,182	-4,5	-1,237
90,186	-8	-1,812
92,19	-12,5	-2,415
94,194	-17	-2,905
96,204	-19,5	-3,5
98,201	-19,5	-3,496
100,205	-19,5	-3,49
102,197	-18	-3,444
104,213	-15	-3,305
106,211	-11,5	-2,816
108,209	-8	-2,295
110,213	-5	-1,82
112,217	-3	-1,356
114,221	-0,5	-0,817
116,218	2	-0,218
118,211	2	-0,002
120,214	2,5	-0,015
122,218	1	-0,096
124,21	-0,5	-0,57
126,22	-3,5	-1,175
128,224	-6,5	-1,761
130,228	-12	-2,454
132,238	-19	-3,198
134,242	-18,5	-3,499
136,245	-19	-3,493
138,249	-18	-3,463
140,253	-13	-3,106
142,263	-9	-2,464
144,267	-5	-1,867
146,271	-3	-1,238
148,281	0	-0,661
150,291	2	-0,066
152,294	2,5	-0,002
154,298	2,5	-0,013
156,314	2	-0,06
158,318	0	-0,318
160,322	-1	-0,83
162,327	-3,5	-1,267
164,318	-6,5	-1,796
166,322	-9,5	-2,228
168,32	-14,5	-2,808
170,329	-18	-3,482
172,333	-18,5	-3,498
174,337	-18	-3,492
176,354	-17,5	-3,461
178,363	-13	-3,123
180,373	-9,5	-2,7
182,383	-7	-2,208
184,381	-4,5	-1,617
186,372	-2	-1,03
188,379	1,5	-0,363
190,386	2	-0,001
192,384	2	-0,013
194,376	1	-0,108
196,386	-0,5	-0,574
198,39	-3	-1,128
200,4	-5,5	-1,699
202,416	-9	-2,215
204,431	-13,5	-2,668
206,441	-18	-3,276
208,451	-18	-3,499
210,455	-18	-3,495
212,471	-17,5	-3,476
214,481	-15,5	-3,375
216,479	-10,5	-2,795
218,495	-7,5	-2,364
220,51	-4,5	-1,816
222,514	-2,5	-1,177
224,512	1,5	-0,528
226,51	2	-0,001
228,526	2,5	-0,005
230,518	2	-0,041
232,528	0,5	-0,28
234,538	-1	-0,888
236,548	-4	-1,4
238,558	-7	-1,984
240,561	-12,5	-2,639
242,559	-17,5	-3,265
244,569	-18	-3,499
246,573	-17,5	-3,493
248,577	-17	-3,464
250,581	-14	-3,292
252,585	-9,5	-2,787
254,595	-6	-2,205
256,604	-4	-1,733
258,608	-2	-1,121
260,612	0	-0,64
262,616	2,5	-0,125
264,626	2,5	-0,002
266,624	2,5	-0,013
268,628	1,5	-0,074
270,625	0	-0,539
272,636	-1,5	-1,02
274,645	-4,5	-1,554
276,649	-8,5	-2,124
278,653	-12	-2,7
280,669	-17	-3,197
282,679	-17	-3,499
284,683	-17	-3,495
286,687	-16,5	-3,472
288,697	-15	-3,382
290,719	-11,5	-3,058
292,722	-7	-2,43
294,732	-4,5	-1,931
296,742	-2,5	-1,391
298,746	-0,5	-0,852
300,756	2	-0,354
302,766	3	-0,001
304,776	2,5	-0,006
306,792	2,5	-0,028
308,801	1,5	-0,113
310,817	-0,5	-0,704
312,815	-3	-1,316
314,819	-5,5	-1,796
316,823	-10	-2,409
318,833	-14,5	-2,934
320,843	-17	-3,494
322,853	-17	-3,498
324,869	-17	-3,493
326,872	-16,5	-3,461
328,876	-13,5	-3,272
330,886	-8,5	-2,671
332,884	-5	-2,086
334,894	-3	-1,508
336,898	-1,5	-0,986
338,89	2	-0,349
340,894	2,5	-0,001
342,898	2,5	-0,008
344,907	2,5	-0,032
346,917	1,5	-0,137
348,927	0	-0,501
350,931	-1	-0,971
352,941	-4	-1,48
354,963	-6,5	-1,991
356,979	-10,5	-2,513
358,983	-16	-3,136
360,998	-17	-3,5
362,996	-16,5	-3,497
365,002	-16,5	-3,486
367,016	-15	-3,417
369,02	-10	-3,037
371,03	-8,5	-2,646
373,04	-5	-2,127
375,05	-3	-1,591
377,054	-1,5	-1,074
379,051	1,5	-0,43
381,067	2,5	0
383,065	3	-0,004
385,075	2,5	-0,028
387,079	1,5	-0,141
389,089	0	-0,531
391,093	-1,5	-1,17
393,109	-3,5	-1,618
395,113	-7,5	-2,198
397,128	-11	-2,65
399,139	-16	-3,16
401,148	-16,5	-3,499
403,146	-16,5	-3,495
405,156	-15,5	-3,467
407,16	-12,5	-3,31
409,17	-9	-2,824
411,174	-5,5	-2,248
413,189	-3,5	-1,732
415,187	-1,5	-1,09
417,197	0,5	-0,607
419,201	3	-0,027
421,205	3	-0,002
423,233	3	-0,008
425,237	2,5	-0,048
427,253	0,5	-0,297
429,251	-1	-0,918
431,266	-2,5	-1,37
433,264	-5,5	-1,944
471,5	-0,5	-1,02
473,516	-3	-1,476
475,52	-5,5	-2,014
477,536	-9	-2,424
479,54	-12,5	-2,883
481,55	-15,5	-3,395
483,554	-16	-3,498
485,557	-15,5	-3,49
487,561	-15	-3,454
489,565	-12	-3,241
491,569	-8	-2,675
493,579	-5	-2,129
495,583	-3	-1,564
497,599	-1,5	-1,081
499,603	1	-0,529
501,612	3	-0,001
503,616	3	-0,003
505,614	3	-0,013
507,624	2,5	-0,075
509,628	0,5	-0,358
511,632	-0,5	-0,87
513,636	-2,5	-1,355
515,646	-5	-1,89
517,65	-8,5	-2,392
519,659	-13	-2,959
521,663	-15,5	-3,5
523,667	-15,5	-3,497
525,671	-15	-3,481
527,681	-12,5	-3,295
529,685	-7,5	-2,723
531,695	-5	-2,21
533,699	-3	-1,692
535,708	-1	-1,126
537,713	2	-0,566
539,716	3	-0,002
541,726	3	-0,003
543,73	2,5	-0,022
545,734	1,5	-0,154
547,738	0	-0,738
549,742	-2,5	-1,304
551,746	-5,5	-1,9
553,749	-10	-2,503
555,753	-14,5	-3,069
557,757	-15,5	-3,499
559,755	-15,5	-3,495
561,759	-15	-3,472
563,769	-12	-3,314
565,773	-8,5	-2,791
567,777	-4,5	-2,067
569,781	-2,5	-1,464
571,784	0	-0,761
573,788	3	-0,235
575,792	3	-0,001
577,802	3	-0,011
579,806	1,5	-0,083
581,81	0	-0,426
583,814	-1	-1,04
585,818	-4	-1,706
587,816	-8	-2,359
589,819	-12,5	-2,886
591,823	-15	-3,42
593,827	-15	-3,498
595,831	-15,5	-3,488
597,835	-14,5	-3,44
599,851	-11	-3,181
601,855	-7,5	-2,685
603,865	-5	-2,187
605,868	-2,5	-1,586
607,87	-1,5	-1,042
609,87	1,5	-0,5
611,874	3	-0,001
613,878	3	-0,004
615,882	2,5	-0,026
617,886	1,5	-0,124
619,89	0	-0,489
621,894	-1	-1,096
623,903	-4	-1,669
625,901	-7,5	-2,237
627,911	-11	-2,756
629,915	-15	-3,339
631,919	-15	-3,499
633,929	-15	-3,492
635,933	-15	-3,46
637,943	-11,5	-3,268
639,941	-7,5	-2,722
641,945	-5	-2,242
643,954	-3,5	-1,765
645,958	-1,5	-1,243
647,962	0	-0,737
649,966	3	-0,275
651,97	3	-0,001
653,98	3	-0,005
655,984	2,5	-0,026
657,994	1,5	-0,12
659,997	0	-0,502
662,001	-1,5	-1,105
664,011	-3,5	-1,629
666,009	-6	-2,113
668,019	-10,5	-2,627
670,017	-15	-3,222
672,021	-15	-3,499
674,031	-15	-3,495
676,034	-15	-3,474
678,05	-13,5	-3,396
680,054	-9,5	-3,041
682,064	-6	-2,538
684,074	-4	-2,026
686,078	-2,5	-1,496
688,076	-1	-1,035
690,08	2	-0,501
692,084	3	0
694,099	3	-0,002
696,103	3	-0,01
698,101	2,5	-0,043
700,105	1	-0,205
702,109	0	-0,666
704,113	-1,5	-1,13
706,153	-2,5	-1,441
708,151	-5	-1,955
710,167	-8,5	-2,408
712,17	-12	-2,861
714,168	-15	-3,42
716,172	-15	-3,498
718,176	-15	-3,491
720,18	-14,5	-3,459
722,178	-10,5	-3,254
724,182	-7	-2,718
726,18	-4	-2,149
728,177	-2,5	-1,666
730,181	-1,5	-1,181
732,185	0	-0,674
734,195	3	-0,09
736,199	3	-0,002
738,197	3	-0,01
740,195	2,5	-0,043
742,199	1,5	-0,17
744,209	0	-0,614
746,212	-1	-1,009
748,21	-3	-1,53
750,22	-5,5	-2,005
752,224	-9	-2,523
754,228	-13	-2,976
756,232	-15	-3,497
758,236	-15	-3,497
760,24	-15	-3,49
762,244	-14,5	-3,447
764,247	-11,5	-3,254
766,257	-7,5	-2,832
768,267	-6	-2,419
770,265	-4	-1,913
772,269	-2	-1,423
774,273	-0,5	-0,986
776,277	1,5	-0,511
778,281	2,5	-0,071
780,284	3	-0,002
782,282	3	-0,011
784,286	2,5	-0,047
786,29	1	-0,236
788,294	0	-0,674
790,304	-1	-1,144
792,308	-3	-1,603
794,312	-5,5	-2,003
796,322	-8,5	-2,46
798,325	-12	-2,913
800,323	-15	-3,494
802,327	-15	-3,498
804,331	-15	-3,49
806,335	-14,5	-3,449
808,333	-10,5	-3,189
810,337	-7	-2,746
812,347	-4,5	-2,238
814,351	-3	-1,753
816,348	-1,5	-1,195
818,358	0	-0,755
820,362	3	-0,202
822,372	3	-0,001
824,376	3	-0,006
826,38	2,5	-0,025
828,384	1,5	-0,13
830,388	0	-0,524
832,392	-0,5	-0,976
834,395	-2,5	-1,478
836,399	-4,5	-1,915
838,403	-7,5	-2,353
840,407	-11	-2,806
842,411	-15	-3,188
844,403	-15	-3,499
846,407	-15	-3,496
848,411	-15	-3,486
850,408	-13,5	-3,433
852,412	-10	-3,196
854,422	-8	-2,788
856,42	-5	-2,267
858,424	-3	-1,793
860,428	-2	-1,344
862,432	-0,5	-0,881
864,43	2,5	-0,354
866,434	3	-0,001
868,437	3	-0,004
870,435	3	-0,023
872,445	2	-0,092
874,449	0,5	-0,363
876,453	0	-0,859
878,457	-2	-1,376
880,461	-4	-1,883
882,459	-8	-2,462
884,463	-12	-2,942
886,466	-15	-3,461
888,47	-15	-3,498
890,468	-15	-3,492
892,472	-14,5	-3,467
894,47	-11,5	-3,323
896,474	-8	-2,851
898,472	-5,5	-2,33
900,47	-3	-1,81
902,474	-2	-1,398
904,477	0	-0,753
906,475	3	-0,207
908,479	3	-0,001
910,483	3	-0,005
912,487	3	-0,017
914,491	2	-0,099
916,489	0	-0,53
918,499	-0,5	-1,039
920,502	-2,5	-1,487
922,5	-4,5	-2,013
924,51	-8	-2,484
926,508	-12,5	-2,974
928,512	-14,5	-3,497
930,516	-14,5	-3,498
932,52	-14,5	-3,49
934,524	-14	-3,45
936,528	-10,5	-3,242
938,526	-7	-2,695
940,529	-4,5	-2,182
942,533	-3	-1,671
944,537	-1,5	-1,234
946,541	0	-0,78
948,545	2	-0,298
950,543	3	-0,001
952,547	3	-0,005
954,545	3	-0,029
956,549	2	-0,124
958,552	0,5	-0,515
960,55	-0,5	-0,993
962,554	-2,5	-1,504
964,552	-4,5	-1,99
966,556	-8,5	-2,543
968,56	-12,5	-2,969
970,558	-14,5	-3,497
972,561	-14,5	-3,498
974,565	-14,5	-3,491
976,563	-14	-3,46
978,567	-11,5	-3,305
980,571	-8,5	-2,887
982,569	-5,5	-2,346
984,567	-3,5	-1,83
986,583	-2	-1,341
988,581	-0,5	-0,841
990,585	2	-0,414
992,582	3	0
994,58	3	-0,003
996,584	3	-0,014
998,582	2	-0,072
1000,586	1	-0,329
1002,584	-0,5	-0,845
1004,588	-1,5	-1,348
1006,592	-3,5	-1,815
1008,589	-6,5	-2,384
1010,588	-10,5	-2,884
1012,585	-14,5	-3,42
1014,589	-14,5	-3,498
1016,593	-14,5	-3,493
1018,591	-14	-3,472
1020,589	-11,5	-3,359
1022,593	-8	-2,981
1024,591	-5,5	-2,567
1026,594	-3,5	-2,055
1028,598	-2	-1,6
1030,602	-1	-1,12
1032,612	1	-0,617
1034,61	3	-0,113
1036,614	3	-0,002
1038,612	3	-0,011
1040,616	2,5	-0,046
1042,626	1,5	-0,159
1044,623	0	-0,644
1046,621	-1,5	-1,15
1048,625	-3	-1,615
1050,629	-5,5	-2,12
1052,627	-9	-2,604
1054,625	-13,5	-3,094
1056,641	-14,5	-3,499
1058,639	-14,5	-3,497
1060,642	-14,5	-3,491
1062,646	-13,5	-3,458
1064,65	-10,5	-3,31
1066,654	-7,5	-2,88
1068,658	-4,5	-2,417
1070,662	-3,5	-1,92
1072,666	-2	-1,445
1074,664	-0,5	-0,999
1076,674	2	-0,475
1078,671	3	-0,001
1080,675	3	-0,005
1082,673	2,5	-0,024
1084,677	1,5	-0,126
1086,681	0,5	-0,463
1088,685	-0,5	-0,868
1090,689	-2	-1,374
1092,687	-4,5	-1,916
1094,691	-8	-2,407
1096,689	-11,5	-2,89
1098,692	-14,5	-3,345
1100,702	-14,5	-3,498
1102,7	-14,5	-3,494
1104,704	-14,5	-3,48
1106,702	-13	-3,416
1108,706	-8,5	-3,129
1110,704	-6,5	-2,719
1112,708	-4,5	-2,319
1114,705	-3	-1,82
1116,722	-2	-1,442
1118,719	-1	-1,007
1120,723	1	-0,564
1122,721	3	-0,091
1160,915	-5,5	-2,646
1162,913	-4	-2,151
1164,917	-2,5	-1,629
1166,92	-1	-1,143
1168,912	1,5	-0,604
1170,91	3	-0,131
1172,914	3	-0,002
1174,912	3	-0,008
1176,916	3	-0,029
1178,908	1,5	-0,143
1180,918	0,5	-0,525
1182,915	-0,5	-0,992
1184,919	-2,5	-1,509
1186,917	-5	-2,088
1188,921	-9	-2,632
1190,919	-14	-3,165
1192,923	-14,5	-3,499
1194,915	-14,5	-3,495
1196,919	-14	-3,48
1198,929	-12,5	-3,428
1200,932	-10	-3,192
1202,93	-6	-2,697
1204,934	-4,5	-2,217
1206,932	-3	-1,73
1208,936	-1,5	-1,24
1210,934	0	-0,736
1212,938	2,5	-0,344
1214,936	3	-0,001
1216,94	3	-0,004
1218,937	3	-0,018
1220,941	2,5	-0,061
1222,939	1	-0,269
1224,943	0	-0,65
1226,941	-0,5	-1,108
1228,945	-2,5	-1,496
1230,943	-4,5	-2,06
1232,941	-8	-2,5
1234,938	-12,5	-3,006
1236,942	-14	-3,466
1238,94	-14,5	-3,498
1240,944	-14	-3,491
1242,942	-13,5	-3,467
1244,946	-11	-3,371
1246,944	-9	-3,086
1248,954	-6	-2,695
1250,952	-4,5	-2,259
1252,95	-3	-1,84
1254,947	-1,5	-1,362
1256,957	0	-0,842
1258,955	2,5	-0,304
1260,959	3	-0,001
1262,957	3	-0,003
1264,961	3	-0,016
1266,959	2	-0,078
1268,963	0,5	-0,366
1270,96	0	-0,811
1272,964	-1	-1,264
1274,968	-2,5	-1,704
1276,966	-6	-2,224
1278,964	-9,5	-2,723
1280,968	-13	-3,161
1282,972	-14	-3,499
1284,976	-14	-3,496
1286,974	-14	-3,485
1288,971	-12,5	-3,418
1290,975	-9	-3,128
1292,973	-6	-2,646
1294,971	-4,5	-2,188
1296,969	-2,5	-1,672
1298,973	-1,5	-1,118
1300,971	0,5	-0,576
1302,981	3	-0,138
1304,978	3	-0,001
1306,982	3	-0,006
1308,98	3	-0,025
1310,99	2	-0,111
1312,988	0	-0,582
1314,992	-0,5	-1,141
1316,99	-2,5	-1,62
1318,994	-4,5	-2,088
1320,992	-8,5	-2,599
1322,989	-12,5	-3,051
1324,993	-14	-3,5
1326,991	-14	-3,497
1328,995	-14	-3,488
1330,993	-13	-3,448
1332,997	-10	-3,296
1334,995	-7,5	-2,861
1336,999	-4,5	-2,349
1338,997	-3	-1,86
1340,994	-1	-1,27
1342,992	0	-0,755
1344,996	3	-0,251
1347	3	-0,001
1349,004	3	-0,004
1351,008	3	-0,018
1353,006	2	-0,08
1355,016	1	-0,33
1357,02	0	-0,73
1359,023	-0,5	-1,142
1361,021	-3	-1,64
1363,031	-5,5	-2,239
1365,035	-9,5	-2,729
1367,027	-14	-3,44
1369,025	-14	-3,498
1371,023	-14	-3,489
1373,027	-13,5	-3,457
1375,024	-11	-3,311
1377,028	-7,5	-2,85
1379,032	-4,5	-2,369
1381,03	-2,5	-1,811
1383,034	-1,5	-1,352
1385,038	0	-0,84
1387,036	2,5	-0,361
1389,034	3	-0,001
1391,038	3	-0,004
1393,035	3	-0,018
1395,039	2	-0,074
1397,037	1	-0,318
1399,041	0	-0,829
1401,039	-1,5	-1,275
1403,037	-3	-1,779
1405,053	-5,5	-2,238
1407,051	-10	-2,806
1409,055	-13,5	-3,236
1411,052	-13,5	-3,498
1413,056	-13,5	-3,494
1415,054	-13,5	-3,475
1417,058	-11,5	-3,395
1419,056	-8	-3,083
1421,054	-5,5	-2,58
1423,052	-3	-1,905
1425,062	-1,5	-1,417
1427,06	-0,5	-0,928
1429,057	3	-0,267
1431,061	3	-0,001
1433,059	3	-0,005
1435,069	3	-0,023
1437,067	2	-0,111
1439,071	0	-0,712
1441,075	-1	-1,144
1443,073	-3	-1,659
1445,076	-5,5	-2,15
1447,074	-10	-2,66
1449,078	-13	-3,206
1451,076	-14	-3,499
1453,074	-14	-3,495
1455,102	-14	-3,486
1457,1	-13	-3,438
1459,104	-10	-3,244
1461,096	-5,5	-2,645
1463,099	-3,5	-2,096
1465,103	-2,5	-1,652
1467,107	-1,5	-1,29
1469,105	-0,5	-0,817
1471,109	2,5	-0,364
1473,113	3	-0,001
1475,111	3	-0,005
1477,115	3	-0,021
1479,119	2	-0,11
1481,116	1	-0,397
1483,12	0	-0,839
1521,302	3	-0,008
1523,306	2,5	-0,03
1525,322	1,5	-0,121
1527,32	0	-0,585
1529,324	-1	-1,023
1531,322	-2,5	-1,623
1533,319	-5,5	-2,213
1535,323	-9,5	-2,72
1537,333	-13,5	-3,181
1539,331	-13,5	-3,499
1541,335	-13,5	-3,495
1543,339	-13,5	-3,479
1545,337	-11,5	-3,4
1547,341	-8,5	-3,136
1549,339	-5,5	-2,598
1551,342	-3	-2,065
1553,34	-1,5	-1,503
1555,344	-1	-1,043
1557,342	1,5	-0,538
1559,352	3	-0,018
1561,356	3	-0,002
1563,354	3	-0,01
1565,358	2,5	-0,033
1567,355	1,5	-0,156
1569,359	0	-0,651
1571,369	-1	-1,198
1573,367	-3,5	-1,771
1575,365	-7	-2,383
1577,369	-10	-2,857
1579,379	-13,5	-3,407
1581,383	-13,5	-3,498
1583,381	-13,5	-3,491
1585,384	-13	-3,46
1587,382	-9,5	-3,303
1589,392	-7	-2,874
1591,396	-4,5	-2,345
1593,394	-2,5	-1,771
1595,392	-1	-1,213
1597,396	0	-0,722
1599,394	3	-0,181
1601,404	3	-0,001
1603,407	3	-0,008
1605,405	2,5	-0,044
1607,409	1	-0,236
1609,407	0	-0,758
1611,405	-1,5	-1,385
1613,409	-3,5	-1,907
1615,407	-7	-2,498
1617,411	-12	-3,034
1619,409	-13,5	-3,499
1621,406	-13,5	-3,496
1623,416	-13	-3,48
1625,414	-11	-3,388
1627,418	-7	-2,966
1629,416	-4,5	-2,472
1631,414	-3	-2,014
1633,418	-1,5	-1,508
1635,416	-0,5	-0,998
1637,42	1,5	-0,522
1639,417	3	-0,018
1641,415	3	-0,002
1643,419	3	-0,01
1645,411	2,5	-0,062
1647,409	1	-0,402
1649,413	0	-0,856
1651,411	-1,5	-1,393
1653,409	-3	-1,865
1655,418	-6	-2,358
1657,416	-12	-2,974
1659,42	-13,5	-3,5
1661,418	-13,5	-3,497
1663,416	-13,5	-3,484
1665,414	-11,5	-3,406
1667,418	-7,5	-2,975
1669,416	-4	-2,496
1671,42	-2,5	-1,874
1673,417	-1,5	-1,369
1675,421	0	-0,858
1677,419	2,5	-0,368
1679,429	3	-0,001
1681,427	3	-0,005
1683,425	3	-0,031
1685,429	1,5	-0,177
1687,427	0	-0,78
1689,425	-1,5	-1,339
1691,429	-3	-1,924
1693,426	-6,5	-2,445
1695,424	-10,5	-2,945
1697,428	-13,5	-3,472
1699,426	-13,5	-3,498
1701,424	-13,5	-3,49
1703,428	-12,5	-3,446
1705,426	-9,5	-3,225
1707,429	-5,5	-2,657
1709,427	-3,5	-2,094
1711,431	-2	-1,593
1713,435	-1	-1,076
1715,427	1	-0,541
1717,419	3	0
1719,423	3	-0,002
1721,421	3	-0,015
1723,431	2	-0,079
1725,428	0,5	-0,414
1727,432	0	-0,915
1729,436	-1,5	-1,348
1731,434	-3,5	-1,894
1733,432	-6,5	-2,443
1735,448	-10,5	-2,932
1737,446	-13,5	-3,5
1739,444	-13,5	-3,497
1741,448	-13,5	-3,486
1743,445	-12	-3,428
1745,449	-9	-3,199
1747,453	-5,5	-2,73
1749,451	-3	-2,135
1751,461	-2	-1,652
1753,459	-1	-1,201
1755,457	1,5	-0,578
1757,467	3	-0,114
1759,459	3	-0,002
1761,456	3	-0,011
1763,46	3	-0,051
1765,458	1	-0,308
1767,456	0	-0,818
1769,466	-1	-1,268
1771,47	-3	-1,843
1773,462	-6,5	-2,489
1775,466	-12	-3,039
1777,458	-13	-3,499
1779,455	-13,5	-3,495
1781,459	-13	-3,478
1783,457	-12	-3,415
1785,461	-8	-3,11
1787,465	-5,5	-2,687
1789,457	-3,5	-2,153
1791,461	-2	-1,626
1793,465	-1	-1,082
1795,462	1,5	-0,545
1797,466	3	-0,142
1799,47	3	-0,001
1801,471	3	-0,009
1803,466	3	-0,043
1805,464	1	-0,252
1807,462	0	-0,756
1809,466	-1	-1,253
1811,464	-3	-1,757
1813,461	-6	-2,4
1815,465	-11	-2,965
1817,469	-13,5	-3,47
1819,473	-13	-3,498
1821,471	-13	-3,492
1823,469	-12	-3,452
1825,473	-9	-3,297
1827,471	-6	-2,84
1829,475	-4,5	-2,333
1831,478	-2,5	-1,875
1833,476	-1,5	-1,391
1835,468	0	-0,851
1837,472	2	-0,371
1839,47	3	-0,001
1841,474	3	-0,004
1843,484	3	-0,017
1845,482	2,5	-0,077
1847,48	1	-0,343
1849,483	0	-0,78
1851,481	-1	-1,3
1853,485	-2,5	-1,754
1855,483	-5,5	-2,306
1857,481	-9,5	-2,833
1859,485	-12,5	-3,197
1861,477	-13	-3,499
1863,475	-13	-3,495
1865,49	-13	-3,484
1867,494	-12	-3,442
1869,492	-9	-3,2
1871,502	-6	-2,798
1873,5	-3,5	-2,276
1875,504	-2,5	-1,844
1877,502	-1	-1,249
1879,494	0,5	-0,666
1881,492	3	-0,154
1919,655	-1,5	-1,476
1921,653	-0,5	-0,956
1923,651	2	-0,424
1925,655	3	0
1927,653	3	-0,004
1929,651	3	-0,022
1931,655	2,5	-0,095
1933,653	0,5	-0,516
1935,651	0	-1,021
1937,654	-2	-1,524
1939,658	-4,5	-2,13
1941,662	-7,5	-2,611
1943,666	-12	-3,151
1945,67	-13	-3,5
1947,668	-13	-3,496
1949,666	-12,5	-3,481
1951,67	-11,5	-3,405
1953,667	-7,5	-2,977
1955,671	-4,5	-2,449
1957,669	-2,5	-1,865
1959,661	-1	-1,272
1961,665	0	-0,738
1963,663	3	-0,218
1965,661	3	-0,001
1967,671	3	-0,006
1969,675	3	-0,034
1971,672	1,5	-0,192
1973,67	0	-0,724
1975,674	-1	-1,247
1977,678	-3	-1,817
1979,682	-6	-2,388
1981,68	-10,5	-2,925
1983,678	-13	-3,457
1985,676	-13	-3,498
1987,673	-13	-3,491
1989,677	-12	-3,451
1991,675	-9	-3,277
1993,685	-6	-2,801
1995,683	-3,5	-2,232
1997,681	-2	-1,776
1999,685	-1	-1,227
2001,683	0	-0,706
2003,681	3	-0,096
2005,678	3	-0,002
2007,688	3	-0,01
2009,686	2,5	-0,059
2011,684	1,5	-0,252
2013,688	0,5	-0,629
2015,686	0	-1,15
2017,684	-1,5	-1,654
2019,682	-4	-2,175
2021,692	-7	-2,594
2023,689	-12	-3,131
2025,687	-12,5	-3,499
2027,691	-13	-3,496
2029,689	-12,5	-3,481
2031,687	-10,5	-3,389
2033,691	-6,5	-2,963
2035,689	-4	-2,458
2037,687	-2,5	-1,991
2039,685	-1	-1,439
2041,688	0	-0,889
2043,686	2,5	-0,368
2045,684	3	-0,001
2047,694	3	-0,003
2049,692	3	-0,017
2051,69	2	-0,102
2053,694	0,5	-0,483
2055,692	0	-0,892
2057,689	-1,5	-1,476
2059,687	-3,5	-1,89
2061,697	-6	-2,249
2063,695	-9	-2,749
2065,693	-13	-3,285
2067,697	-13	-3,499
2069,695	-13	-3,494
2071,693	-12,5	-3,477
2073,691	-9,5	-3,36
2075,694	-6,5	-2,941
2077,692	-4	-2,398
2079,69	-2,5	-1,904
2081,694	-1	-1,44
2083,686	0	-0,884
2085,69	2,5	-0,386
2087,688	3	-0,001
2089,68	3	-0,008
2091,678	2,5	-0,046
2093,675	1	-0,23
2095,679	0,5	-0,702
2097,677	-0,5	-1,329
2099,675	-2,5	-1,812
2101,679	-5	-2,278
2103,677	-8,5	-2,776
2105,681	-12	-3,299
2107,679	-12,5	-3,499
2109,683	-12,5	-3,495
2111,68	-12	-3,467
2113,678	-9,5	-3,328
2115,682	-5,5	-2,806
2117,674	-3	-2,192
2119,672	-1,5	-1,638
2121,67	-0,5	-1,027
2123,668	2	-0,447
2125,666	3	-0,001
2127,664	3	-0,004
2129,667	3	-0,018
2131,665	2	-0,118
2133,663	0,5	-0,496
2135,661	0	-0,984
2137,665	-1,5	-1,518
2139,663	-4	-2,107
2141,661	-7	-2,628
2143,665	-11,5	-3,087
2145,668	-12,5	-3,499
2147,66	-12,5	-3,496
2149,658	-12	-3,484
2151,662	-10,5	-3,421
2153,666	-7	-3,118
2155,664	-4,5	-2,577
2157,674	-3	-2,121
2159,672	-1	-1,542
2161,676	0	-0,956
2163,679	2	-0,443
2165,677	3	-0,001
2167,675	3	-0,005
2169,673	3	-0,03
2171,677	1,5	-0,172
2173,681	0	-0,656
2175,679	-0,5	-1,266
2177,683	-2,5	-1,758
2179,681	-5	-2,348
2181,678	-10	-2,996
2183,676	-12	-3,5
2185,68	-12	-3,498
2187,678	-12	-3,488
2189,682	-10,5	-3,424
2191,68	-7,5	-3,135
2193,678	-4,5	-2,567
2195,676	-2	-1,957
2197,674	-1	-1,408
2199,677	0	-0,843
2201,675	2,5	-0,289
2203,673	3	-0,001
2205,677	3	-0,007
2207,681	2,5	-0,034
2209,679	1,5	-0,181
2211,677	0	-0,734
2213,681	-1	-1,31
2215,678	-2,5	-1,778
2217,67	-5,5	-2,419
2219,674	-10	-3
2221,672	-12	-3,5
2223,67	-12	-3,498
2225,668	-12	-3,488
2227,672	-11	-3,436
2229,664	-7	-3,14
2231,662	-4	-2,544
2233,671	-3	-2,047
2235,669	-1,5	-1,425
2237,667	0	-0,835
2239,665	2,5	-0,284
2241,669	3	-0,001
2243,667	3	-0,009
2245,671	2,5	-0,054
2247,675	1	-0,282
2249,679	0	-0,763
2251,676	-1	-1,368
2253,68	-2,5	-1,865
2255,684	-6	-2,503
2257,682	-11,5	-3,147
2259,68	-12	-3,499
2261,678	-12	-3,496
2263,682	-11,5	-3,48
2265,68	-9	-3,365
2267,678	-6	-2,897
2269,681	-3,5	-2,363
2271,679	-2	-1,815
2273,671	-0,5	-1,228
2275,669	1	-0,59
2277,673	3	-0,058
2279,677	3	-0,002
2281,669	3	-0,016
2283,673	2	-0,101
2285,676	0,5	-0,523
2287,686	0	-1,078
2289,684	-2	-1,631
2291,688	-4	-2,159
2293,686	-7,5	-2,722
2295,684	-11,5	-3,343
2297,682	-12	-3,498
2299,686	-12	-3,492
2301,684	-11	-3,454
2303,681	-7,5	-3,213
2305,679	-4	-2,565
2307,683	-2,5	-2,064
2309,681	-1	-1,448
2311,679	0	-0,805
2313,683	2,5	-0,313
2315,675	3	-0,001
2317,673	3	-0,008
2319,677	3	-0,036
2321,68	1,5	-0,157
2323,678	0	-0,736
2325,676	-0,5	-1,352
2327,68	-3	-2,008
2329,678	-6	-2,554
2331,676	-10,5	-3,087
2333,674	-11,5	-3,499
2335,678	-11,5	-3,496
2337,676	-11	-3,464
2339,673	-8	-3,264
2341,677	-4,5	-2,668
2343,681	-3	-2,198
2345,685	-1,5	-1,712
2347,683	-0,5	-1,15
2349,681	0,5	-0,623
2351,685	3	-0,023
2353,683	3	-0,002
2355,68	3	-0,013
2357,684	3	-0,046
2359,682	1,5	-0,185
2361,68	0	-0,614
2363,678	-0,5	-1,145
2365,682	-1,5	-1,604
2367,686	-3	-2,074
2369,684	-5,5	-2,524
2371,682	-9,5	-3,014
2373,685	-12	-3,476
2375,683	-12	-3,498
2377,681	-12	-3,49
2379,679	-11	-3,466
2381,689	-10	-3,393
2383,687	-7	-3,072
2385,685	-4,5	-2,552
2387,683	-3	-2,132
2389,687	-2	-1,732
2391,684	-1	-1,27
2393,682	0	-0,77
2395,686	2	-0,369
2397,684	3	-0,001
2399,682	3	-0,004
2401,674	3	-0,017
2403,678	2	-0,094
2405,682	0,5	-0,382
2407,679	0	-0,88
2409,677	-0,5	-1,338
2411,681	-2,5	-1,818
2413,679	-4	-2,286
2415,677	-7,5	-2,801
2417,675	-11,5	-3,451
2419,679	-11,5	-3,498
2421,677	-11,5	-3,49
2423,675	-10,5	-3,454
2425,672	-7,5	-3,223
2427,676	-5	-2,682
2429,668	-2	-2,046
2431,66	-1	-1,426
2433,658	0	-0,77
2435,662	3	-0,219
2437,66	3	-0,001
2439,658	3	-0,008
2441,662	3	-0,032
2443,665	1,5	-0,15
2445,669	0	-0,825
2447,667	-0,5	-1,447
2449,665	-3,5	-2,218
2451,663	-9,5	-2,994
2453,661	-11,5	-3,5
2455,659	-11,5	-3,497
2457,657	-11,5	-3,487
2459,661	-9	-3,36
2461,658	-5,5	-2,841
2463,656	-3	-2,236
2465,666	-1,5	-1,686
2467,664	0	-0,994
2469,662	2	-0,41
2471,66	3	0
2473,664	3	-0,003
2475,662	3	-0,022
2477,66	2	-0,091
2479,657	0,5	-0,544
2481,661	0	-0,976
2483,659	-1	-1,498
2485,663	-3	-1,999
2487,661	-5,5	-2,578
2489,665	-10,5	-3,15
2491,663	-11	-3,499
2493,661	-11,5	-3,494
2495,658	-11	-3,478
2497,662	-9	-3,36
2499,66	-5,5	-2,893
2501,652	-3	-2,162
2503,656	-1,5	-1,608
2505,654	0	-0,853
2507,652	3	-0,102
2509,65	3,5	-0,004
2511,648	3	-0,02
2513,651	2,5	-0,085
2515,649	1	-0,468
2517,647	0	-1,047
2519,651	-1	-1,559
2521,655	-3	-2,097
2523,653	-6	-2,66
2525,651	-10,5	-3,204
2527,649	-11,5	-3,499
2529,647	-11,5	-3,494
2531,65	-11	-3,475
2533,648	-9	-3,38
2535,646	-5,5	-2,968
2537,644	-3,5	-2,457
2539,648	-2	-1,94
2541,646	-0,5	-1,403
2543,644	0	-0,888
2545,648	2	-0,396
2547,646	3	-0,001
2549,643	3	-0,007
2551,641	2,5	-0,049
2553,645	1	-0,282
2555,643	0	-0,919
2557,641	-1	-1,418
2559,639	-3	-1,933
2561,643	-6,5	-2,609
2563,641	-11	-3,131
2565,638	-11	-3,499
2567,636	-11	-3,495
2569,64	-10,5	-3,473
2571,638	-8,5	-3,378
2573,642	-5,5	-2,979
2575,64	-3,5	-2,397
2577,644	-1,5	-1,755
2579,642	0	-0,996
2581,64	2	-0,496
2583,643	3	0
2585,647	3	-0,005
2587,639	3	-0,025
2589,637	1	-0,306
2591,635	0	-1,085
2593,639	-1,5	-1,614
2595,637	-4,5	-2,262
2597,635	-10	-3,007
2599,633	-11	-3,486
2601,636	-11	-3,498
2603,634	-11	-3,491
2605,632	-10,5	-3,458
2607,63	-7,5	-3,258
2609,634	-5	-2,86
2611,632	-3	-2,371
2613,63	-1,5	-1,833
2615,628	-0,5	-1,319
2617,625	0	-0,876
2619,629	2,5	-0,376
2621,627	3	0
2623,631	3	-0,003
2625,629	3	-0,021
2627,639	2	-0,094
2629,637	0,5	-0,422
2631,629	0	-1,031
2633,627	-1	-1,546
2635,63	-3	-2,064
2637,628	-5,5	-2,553
2639,626	-10	-3,074
2641,624	-11	-3,5
2643,622	-11	-3,496
2645,62	-11	-3,479
2647,618	-9	-3,406
2649,616	-6,5	-3,178
2651,62	-4	-2,651
2653,617	-2	-2,018
2655,621	-1	-1,442
2657,619	0	-0,891
2659,617	3	-0,114
2661,621	3	-0,003
2663,619	3	-0,018
2665,617	2	-0,067
2667,615	0,5	-0,4
2669,619	0	-1,103
2671,616	-1	-1,505
2673,614	-4	-2,161
2675,618	-9,5	-2,943
2677,622	-11	-3,486
2679,62	-11	-3,497
2681,618	-10,5	-3,472
2683,616	-7	-3,255
2685,62	-4	-2,64
2687,618	-1,5	-1,955
2689,615	-0,5	-1,291
2691,613	0,5	-0,743
2693,617	3	-0,014
2695,615	3	-0,003
2697,613	3	-0,02
2699,611	1,5	-0,125
2701,609	0	-0,711
2703,607	-0,5	-1,268
2705,604	-2	-1,826
2707,602	-6	-2,624
2709,606	-10,5	-3,162
2711,61	-11	-3,5
2713,608	-10,5	-3,497
2715,606	-10,5	-3,478
2717,604	-6,5	-3,214
2719,608	-3,5	-2,547
2721,606	-2	-2,139
2723,603	-1	-1,555
2725,601	0	-1,034
2727,599	1,5	-0,547
2729,597	3	-0,107
2731,595	3	-0,001
2733,593	3	-0,009
2735,591	2,5	-0,046
2737,589	1,5	-0,24
2739,587	0	-0,778
2741,578	-0,5	-1,329
2743,576	-2	-1,845
2745,58	-4,5	-2,42
2747,572	-10	-3,1
2749,57	-10,5	-3,499
2751,575	-10,5	-3,496
2753,578	-10,5	-3,476
2755,576	-7,5	-3,265
2757,573	-4,5	-2,815
2759,571	-2	-2,096
2761,575	-1	-1,616
2763,573	0	-1,144
2765,577	0,5	-0,707
2767,575	3	-0,268
2769,573	3,5	-0,001
2771,583	3,5	-0,005
2773,581	3	-0,022
2775,578	2	-0,129
2777,576	1	-0,525
2779,58	0	-0,947
2781,578	-0,5	-1,393
2783,57	-2,5	-1,923
2785,562	-4,5	-2,505
2787,566	-9	-3,007
2789,564	-10,5	-3,499
2791,562	-10	-3,497
2793,559	-10,5	-3,485
2795,557	-8,5	-3,404
2797,555	-5,5	-2,968
2799,553	-3	-2,447
2801,551	-1,5	-1,906
2803,549	-0,5	-1,358
2805,547	0	-0,892
2807,551	3	-0,036
2809,549	3	-0,004
2811,547	3	-0,019
2813,544	2	-0,093
2815,542	1	-0,425
2817,546	0	-0,909
2819,55	-0,5	-1,38
2821,548	-2,5	-1,948
2823,546	-4,5	-2,453
2825,544	-8,5	-2,957
2827,542	-10	-3,5
2829,541	-10,5	-3,497
2831,537	-10	-3,48
2833,535	-8	-3,376
2835,533	-5,5	-2,996
2837,531	-3,5	-2,477
2839,535	-2	-1,953
2841,533	-0,5	-1,401
2843,537	0	-0,895
2845,534	2,5	-0,314
2847,532	3	-0,001
2849,53	3	-0,008
2851,534	3	-0,038
2853,532	1,5	-0,236
2855,53	0,5	-0,787
2857,528	0	-1,33
2859,532	-1,5	-1,767
2861,53	-3	-2,283
2863,527	-6,5	-2,889
2865,525	-9,5	-3,489
2867,529	-9,5	-3,497
2869,527	-9,5	-3,489
2871,525	-8,5	-3,436
2873,523	-5,5	-3,153
2875,521	-3	-2,558
2877,525	-2	-2,05
2879,529	-0,5	-1,428
2881,526	0	-0,807
2883,524	3	-0,269
2885,522	3	-0,001
2887,52	3	-0,005
2889,518	3	-0,023
2891,516	1,5	-0,154
2893,514	0,5	-0,734
2895,512	0	-1,277
2897,509	-1,5	-1,782
2899,507	-3	-2,319
2901,505	-6	-2,876
2903,503	-9,5	-3,427
2905,507	-9	-3,498
2907,505	-9	-3,493
2909,503	-8,5	-3,462
2911,495	-5,5	-3,233
2913,493	-3	-2,689
2915,49	-2	-2,185
2917,482	-0,5	-1,661
2919,48	0	-1,118
2921,478	1,5	-0,613
2923,476	3	-0,102
2925,48	3	-0,002
2927,478	3,5	-0,01
2929,476	3	-0,053
2931,474	1,5	-0,239
2933,477	0,5	-0,741
2935,475	0	-1,298
2937,473	-1,5	-1,85
2939,471	-3,5	-2,552
2941,469	-7,5	-3,16
2943,473	-8,5	-3,499
2945,465	-8,5	-3,495
2947,463	-8	-3,47
2949,461	-6,5	-3,376
2951,458	-4	-2,908
2953,456	-2,5	-2,366
2955,454	-1	-1,78
2957,452	-0,5	-1,218
2959,45	0,5	-0,676
2961,448	3	-0,148
2963,452	3,5	-0,001
2965,444	3	-0,009
2967,441	3	-0,045
2969,439	1,5	-0,264
2971,437	0,5	-0,791
2973,441	0	-1,272
2975,439	-0,5	-1,803
2977,437	-2,5	-2,324
2979,435	-6	-2,95
2981,433	-8	-3,486
2983,431	-8	-3,497
2985,434	-8	-3,489
2987,432	-7,5	-3,445
2989,43	-5	-3,227
2991,428	-3	-2,752
2993,432	-2	-2,272
2995,43	-1	-1,72
2997,428	0	-1,167
2999,426	0,5	-0,63
3001,424	3	0
3039,563	-0,5	-1,463
3041,561	0	-1,038
3043,559	2,5	-0,325
3045,557	3	-0,001
3047,555	3	-0,009
3049,553	3	-0,03
3051,557	2	-0,124
3053,555	1	-0,484
3055,553	0	-1,006
3057,55	0	-1,444
3059,554	-1	-1,926
3061,558	-2,5	-2,369
3063,556	-4,5	-2,853
3065,554	-7,5	-3,42
3067,552	-7,5	-3,498
3069,55	-7,5	-3,492
3071,554	-7,5	-3,472
3073,558	-5,5	-3,38
3075,555	-3,5	-2,986
3077,553	-2	-2,444
3079,551	-1	-1,924
3081,555	-0,5	-1,528
3083,553	0	-1,013
3085,551	2	-0,502
3087,543	3	0
3089,541	3	-0,002
3091,538	3	-0,013
3093,542	2,5	-0,06
3095,54	1,5	-0,326
3097,538	0,5	-0,853
3099,542	0	-1,279
3101,546	-0,5	-1,785
3103,544	-2	-2,301
3105,542	-4,5	-2,811
3107,539	-7,5	-3,402
3109,537	-7,5	-3,498
3111,541	-7,5	-3,493
3113,539	-7	-3,471
3115,537	-5	-3,342
3117,535	-3	-2,896
3119,539	-2	-2,411
3121,537	-1	-1,884
3123,535	-0,5	-1,407
3125,532	0	-0,94
3127,53	2,5	-0,44
3129,528	3	-0,005
3131,532	3	-0,002
3133,53	3	-0,017
3135,528	2	-0,084
3137,526	0,5	-0,46
3139,524	0	-1,29
3141,528	-1	-1,812
3143,525	-2,5	-2,312
3145,523	-4	-2,715
3147,521	-7,5	-3,456
3149,525	-7,5	-3,498
3151,523	-7,5	-3,494
3153,521	-6,5	-3,445
3155,519	-4	-3,131
3157,511	-2,5	-2,638
3159,515	-1	-2,031
3161,178	3	-0,001