File: Cycling_tests/_40perc/_2gap/entrada/_4.txt
Time (s)	Load (N)	Displacement (mm)
0	0	-0,034
2,129	0,5	-0,141
4,259	1	-0,233
6,563	-4,5	-1,161
8,692	-5	-1,242
10,816	-5	-1,261
12,928	-5,5	-1,391
15,052	-5,5	-1,49
17,164	-6	-1,602
19,294	-6,5	-1,604
21,406	-6,5	-1,68
23,524	-7	-1,776
25,641	-6,5	-1,716
27,777	-7	-1,763
29,901	-6,5	-1,75
32,019	-6	-1,664
34,149	-6	-1,676
36,267	-5,5	-1,532
38,391	-5	-1,354
40,509	-4	-1,226
42,638	-3	-1,09
44,762	-1,5	-0,885
46,88	-0,5	-0,741
48,998	0	-0,57
51,116	1	-0,474
53,228	1,5	-0,272
55,34	2	-0,022
57,47	2	0
59,581	2	-0,001
61,711	2	-0,046
63,829	2	-0,162
65,947	2	-0,211
68,059	2	-0,252
70,189	1	-0,425
72,313	0,5	-0,519
74,437	0	-0,585
76,56	-0,5	-0,737
78,69	-2	-0,866
80,814	-3	-1,119
82,95	-4,5	-1,326
85,068	-5	-1,475
87,204	-5	-1,676
89,328	-6,5	-1,838
91,458	-7	-1,999
93,588	-8	-2,122
95,705	-9	-2,226
97,823	-8,5	-2,243
99,959	-10	-2,482
102,083	-10,5	-2,533
104,219	-11	-2,617
106,343	-11	-2,684
108,473	-12	-2,775
110,609	-14	-2,972
112,732	-14,5	-3,05
114,874	-15,5	-3,243
117,01	-17,5	-3,374
119,14	-18	-3,406
121,276	-19	-3,437
123,406	-19,5	-3,46
125,536	-19,5	-3,477
127,666	-19,5	-3,489
129,803	-20	-3,495
131,925	-20	-3,497
134,061	-20	-3,498
136,179	-20	-3,499
138,303	-19,5	-3,499
140,445	-19,5	-3,483
142,575	-20	-3,5
144,705	-19,5	-3,432
146,834	-20	-3,33
148,958	-19,5	-3,252
151,094	-19,5	-3,204
153,206	-19	-3,17
155,342	-19,5	-3,21
157,46	-19,5	-3,16
159,584	-16,5	-2,934
161,702	-16	-2,812
163,831	-14,5	-2,667
165,955	-13,5	-2,578
168,085	-12	-2,418
170,221	-11	-2,217
172,351	-9	-2,034
174,481	-8	-1,873
176,611	-7	-1,777
178,753	-6	-1,615
180,871	-5	-1,498
183,006	-4,5	-1,419
185,151	-3,5	-1,214
187,286	-2,5	-1,039
189,42	-1,5	-0,833
191,556	-0,5	-0,59
193,692	0	-0,374
195,828	1	-0,166
197,969	1,5	-0,079
200,099	2	-0,059
202,223	2	-0,046
204,341	2	-0,032
206,471	2,5	-0,024
208,595	2,5	-0,017
210,731	2,5	-0,013
212,855	2,5	-0,012
214,979	2,5	-0,008
217,108	2,5	-0,007
219,238	3	-0,004
221,368	3	-0,002
223,504	3	-0,001
225,64	2,5	-0,036
227,77	2,5	-0,222
229,9	2	-0,381
232,03	0,5	-0,574
234,159	0	-0,697
236,277	-0,5	-0,841
238,407	-2	-1,011
240,543	-3	-1,251
242,673	-3,5	-1,406
244,803	-4	-1,543
246,939	-4	-1,561
249,063	-5	-1,707
251,198	-5,5	-1,897
253,328	-6	-2,069
255,464	-7	-2,181
257,594	-7,5	-2,282
259,724	-8	-2,451
261,86	-10	-2,58
263,99	-10	-2,682
266,126	-11,5	-2,91
268,255	-12,5	-3,04
270,385	-14	-3,194
272,503	-14,5	-3,245
274,627	-15	-3,304
276,751	-15,5	-3,361
278,887	-17	-3,438
281,023	-18	-3,459
283,147	-18	-3,47
285,277	-18	-3,481
287,4	-18,5	-3,486
289,542	-18,5	-3,491
291,672	-18,5	-3,492
293,814	-18,5	-3,494
295,944	-18,5	-3,497
298,086	-18,5	-3,498
300,222	-18,5	-3,499
302,352	-18,5	-3,5
304,483	-18,5	-3,494
306,617	-18,5	-3,34
308,759	-17	-3,045
310,883	-17	-3,032
313,013	-15,5	-2,854
315,155	-12,5	-2,575
317,285	-12,5	-2,548
319,415	-10,5	-2,365
321,544	-10	-2,244
323,668	-9	-2,122
325,804	-8	-1,969
327,934	-6	-1,75
330,07	-5,5	-1,581
332,206	-5	-1,486
334,342	-3,5	-1,26
336,472	-3,5	-1,246
338,602	-2,5	-1,159
340,737	-2	-0,979
342,867	-1,5	-0,84
345,003	-0,5	-0,677
347,133	0	-0,558
349,257	0	-0,474
351,399	1	-0,18
353,529	1,5	-0,12
355,665	1,5	-0,079
357,8	2	-0,055
359,93	2,5	-0,041
362,06	3	-0,028
364,172	2,5	-0,025
366,302	2,5	-0,014
368,426	2,5	-0,011
370,55	3	-0,008
372,674	3	-0,007
374,804	2,5	-0,005
376,933	2,5	-0,004
379,063	3	-0,002
381,193	3	-0,002
383,323	3	-0,001
385,447	3	0
387,577	3	0
389,707	3	-0,064
391,83	3	-0,131
393,961	2,5	-0,195
396,084	3	-0,221
398,214	2	-0,39
400,332	1,5	-0,448
402,456	0,5	-0,622
404,58	0	-0,815
406,716	-1,5	-1,04
408,839	-2	-1,127
410,975	-2,5	-1,27
413,099	-3	-1,415
415,229	-3,5	-1,541
417,347	-3,5	-1,568
419,471	-3,5	-1,612
421,607	-4	-1,696
423,737	-4,5	-1,771
425,86	-4,5	-1,934
427,99	-5,5	-2,03
430,114	-6	-2,199
432,232	-6,5	-2,272
434,362	-7	-2,365
436,492	-7,5	-2,451
438,622	-8	-2,585
440,752	-9,5	-2,702
442,882	-10,5	-2,942
445,005	-11,5	-3,01
447,141	-12,5	-3,22
449,265	-13,5	-3,261
451,395	-15	-3,374
453,519	-15	-3,404
455,643	-15,5	-3,423
457,779	-16,5	-3,452
459,903	-16,5	-3,45
462,032	-17	-3,468
464,162	-17	-3,483
466,28	-17,5	-3,486
468,416	-17,5	-3,488
470,54	-17,5	-3,491
472,67	-17,5	-3,492
474,794	-17,5	-3,494
476,924	-17,5	-3,497
479,059	-17,5	-3,499
481,183	-17,5	-3,499
483,307	-17,5	-3,499
485,443	-17,5	-3,5
487,567	-17,5	-3,5
489,691	-17,5	-3,5
491,821	-17,5	-3,262
493,945	-16	-3,081
496,08	-16	-2,991
498,204	-14,5	-2,93
500,328	-13	-2,772
502,464	-12	-2,633
504,582	-12,5	-2,72
506,706	-12	-2,658
508,836	-12	-2,578
510,96	-11	-2,494
513,083	-10	-2,432
515,207	-9,5	-2,35
517,331	-9	-2,279
519,455	-7	-2,054
521,585	-6,5	-1,96
523,709	-6,5	-1,909
525,833	-6	-1,896
527,963	-5,5	-1,818
530,093	-5	-1,716
532,216	-4,5	-1,603
534,34	-3,5	-1,494
536,464	-3	-1,423
538,589	-3	-1,298
540,724	-1,5	-1,038
542,848	-1,5	-0,981
544,972	-1	-0,945
547,095	-1	-0,884
549,225	-0,5	-0,819
551,349	0	-0,633
553,473	-0,5	-0,675
555,597	-0,5	-0,629
557,727	0	-0,639
559,857	0	-0,553
561,975	0	-0,468
564,099	0,5	-0,359
566,222	0,5	-0,313
568,346	1	-0,187
570,476	1	-0,158
572,6	1,5	-0,111
574,718	2	-0,078
576,842	2,5	-0,064
578,966	2,5	-0,038
581,09	2,5	-0,025
583,214	2	-0,022
585,337	2,5	-0,021
587,461	2,5	-0,013
589,585	2,5	-0,012
591,709	2,5	-0,009
593,833	3	-0,01
595,963	2,5	-0,008
598,087	2,5	-0,008
600,216	2,5	-0,004
602,34	3	-0,003
604,464	3	-0,003
606,588	3	-0,003
608,712	2,5	-0,002
610,836	2,5	-0,002
612,96	2,5	-0,002
615,084	3	-0,001
617,208	3	-0,001
619,331	3	-0,001
621,455	3	-0,001
623,579	3	-0,001
625,703	2,5	-0,001
627,827	2,5	-0,001
629,951	3	-0,001
632,076	3	-0,001
634,199	3	-0,001
636,322	3	-0,001
638,446	3	-0,001
640,57	3	-0,001
642,688	3	-0,002
644,812	3	-0,001
646,93	3	-0,001
649,054	3	-0,001
651,172	3	-0,001
653,289	3	-0,001
655,413	3	-0,001
657,543	3	-0,001
659,667	3	-0,001
661,791	3	-0,002
663,921	3	-0,002
666,045	3	-0,002
668,169	3	-0,003
670,298	3	-0,002
672,428	3	-0,002
674,552	3	-0,002
676,67	3	-0,002
678,8	3	-0,002
680,924	3	-0,002
683,048	3	-0,001
685,178	3	-0,001
687,32	3	-0,001
689,443	3	-0,003
691,561	3	-0,003
693,691	2,5	-0,002
695,815	3	-0,002
697,939	3	-0,002
700,069	3	-0,002
702,193	3	-0,003
704,317	3	-0,003
706,44	3	-0,003
708,564	3	-0,002
710,682	3	-0,003
712,806	2,5	-0,002
714,93	2,5	-0,002
717,054	3	-0,002
719,178	3	-0,002
721,302	3	-0,002
723,425	3	-0,001
725,543	3	-0,001
727,667	3	-0,002
729,797	3	-0,002
731,921	2,5	-0,001
734,045	3	-0,001
736,176	2,5	-0,001
738,299	3	-0,001
740,422	3	-0,001
742,54	3	-0,001
744,67	3	-0,001
746,794	3	-0,001
748,918	3	0
751,048	3	0
753,166	3	0
755,29	3	0
757,414	3	-0,052
759,543	3	-0,205
761,667	2	-0,325
763,791	2,5	-0,304
765,915	2	-0,35
768,039	2	-0,386
770,163	1,5	-0,409
772,299	1	-0,553
774,423	0,5	-0,646
776,54	0	-0,672
778,664	0	-0,691
780,788	-0,5	-0,791
782,912	-1	-0,874
785,036	-1	-0,962
787,16	-1	-1,023
789,278	-1,5	-1,114
791,402	-2	-1,271
793,525	-2,5	-1,37
795,656	-2,5	-1,52
797,779	-3	-1,666
799,903	-3,5	-1,732
802,033	-3,5	-1,76
804,157	-3,5	-1,822
806,275	-4	-1,976
808,399	-4	-1,942
810,528	-5	-2,135
812,652	-5,5	-2,239
814,776	-6	-2,396
816,9	-6	-2,477
819,03	-7	-2,56
821,148	-7	-2,563
823,272	-8	-2,695
825,396	-8,5	-2,798
827,514	-9	-2,9
829,637	-9,5	-3,03
831,755	-10	-3,03
833,879	-10	-3,095
836,009	-11,5	-3,223
838,133	-13	-3,35
840,251	-15	-3,431
842,375	-15	-3,465
844,499	-15	-3,472
846,622	-15,5	-3,481
848,746	-16	-3,486
850,876	-16	-3,49
853	-16	-3,493
855,118	-16	-3,495
857,242	-16	-3,496
859,372	-16	-3,498
861,496	-16	-3,499
863,619	-16	-3,499
865,743	-16	-3,499
867,861	-16	-3,499
869,985	-16	-3,499
872,109	-16	-3,499
874,233	-16	-3,5
876,357	-16	-3,5
878,481	-16	-3,5
880,604	-16	-3,5
882,722	-16	-3,5
884,846	-16	-3,5
886,97	-16	-3,5
889,094	-16	-3,5
891,218	-16	-3,5
893,342	-16	-3,482
895,454	-16	-3,38
897,578	-16	-3,387
899,701	-16	-3,445
901,825	-16	-3,407
903,943	-16	-3,492
906,067	-16	-3,47
908,191	-16	-3,471
910,309	-15,5	-3,489
912,427	-16	-3,499
914,545	-15,5	-3,5
916,668	-16	-3,499
918,798	-16	-3,42
920,922	-16	-3,425
923,046	-16	-3,3
925,164	-16	-3,295
927,3	-15,5	-3,16
929,424	-15,5	-3,176
931,548	-15,5	-3,169
933,665	-15,5	-3,159
935,795	-15	-3,077
937,913	-15	-3,066
940,037	-15	-3,063
942,161	-14,5	-3,027
944,279	-15	-3,07
946,409	-13,5	-2,899
948,539	-13	-2,899
950,662	-12,5	-2,868
952,786	-13	-2,85
954,91	-13	-2,837
957,034	-12	-2,802
959,158	-11	-2,744
961,276	-10,5	-2,634
963,406	-11	-2,668
965,53	-10,5	-2,614
967,654	-9,5	-2,563
969,771	-10,5	-2,582
971,895	-10,5	-2,629
974,025	-12	-2,777
976,143	-12,5	-2,809
978,267	-12,5	-2,807
980,391	-12,5	-2,772
982,515	-11,5	-2,748
984,639	-10	-2,584
986,762	-10	-2,576
988,88	-10	-2,592
991,004	-10,5	-2,573
993,128	-10,5	-2,58
995,246	-9,5	-2,491
997,37	-9	-2,419
999,5	-8	-2,354
1001,618	-8	-2,278
1003,741	-7	-2,181
1005,865	-6,5	-2,136
1007,989	-7	-2,149
1010,107	-7,5	-2,192
1012,231	-6	-2,141
1014,355	-7	-2,186
1016,479	-7	-2,193
1018,609	-6	-2,018
1020,726	-6	-2,08
1022,844	-6	-2,071
1024,968	-5,5	-1,988
1027,086	-6	-2,041
1029,216	-5,5	-1,96
1031,34	-5	-1,829
1033,464	-4,5	-1,773
1035,582	-4	-1,699
1037,706	-4	-1,654
1039,835	-3	-1,531
1041,953	-3	-1,488
1044,077	-3	-1,464
1046,201	-3	-1,455
1048,331	-2,5	-1,423
1050,449	-2,5	-1,433
1052,573	-2,5	-1,394
1054,697	-2,5	-1,338
1056,82	-2,5	-1,345
1058,944	-2,5	-1,316
1061,068	-1,5	-1,218
1063,192	-1,5	-1,103
1065,31	-1	-1,007
1067,434	-0,5	-0,887
1069,554	-0,5	-0,919
1071,67	-0,5	-0,871
1073,793	0	-0,746
1075,917	0	-0,685
1078,041	0	-0,655
1080,165	0	-0,614
1082,289	0	-0,543
1084,407	0	-0,559
1086,531	0	-0,46
1088,655	0,5	-0,345
1090,772	1	-0,239
1092,896	1	-0,188
1095,02	1,5	-0,147
1097,138	1,5	-0,119
1099,256	1,5	-0,106
1101,38	1,5	-0,078
1103,498	2	-0,076
1105,622	2	-0,065
1107,739	2,5	-0,045
1109,863	3	-0,032
1111,987	3	-0,031
1114,105	3	-0,032
1116,229	3	-0,034
1118,353	3	-0,024
1120,471	3	-0,022
1122,595	3	-0,019
1124,719	3	-0,015
1126,836	3	-0,016
1128,96	3	-0,018
1131,084	3	-0,014
1133,202	3	-0,013
1135,326	3	-0,012
1137,45	3	-0,01
1139,568	3	-0,009
1141,692	3	-0,007
1143,815	3	-0,007
1145,939	3	-0,006
1148,057	3	-0,006
1150,181	3	-0,005
1152,311	3	-0,005
1154,429	3	-0,003
1156,553	3	-0,003
1158,671	3	-0,003
1160,794	3	-0,003
1162,924	3	-0,002
1165,042	3	-0,003
1167,166	3	-0,002
1169,29	3	-0,002
1171,408	3	-0,002
1173,538	3	-0,001
1175,662	3	-0,001
1177,779	3	-0,001
1179,903	3	-0,001
1182,021	3	-0,001
1184,151	3	-0,001
1186,269	3	-0,001
1188,393	3	-0,001
1190,517	3	-0,001
1192,635	3	-0,001
1194,759	3	-0,002
1196,888	3	-0,001
1199,012	3	-0,001
1201,13	3	-0,001
1203,248	3	-0,001
1205,366	3	-0,002
1207,496	3	-0,002
1209,62	3	-0,002
1211,738	3	-0,002
1213,861	3	-0,002
1215,979	3	-0,002
1218,103	3	-0,003
1220,221	2,5	-0,004
1222,345	3	-0,004
1224,463	3	-0,006
1226,587	3	-0,009
1228,711	3	-0,008
1230,828	3	-0,01
1232,952	3	-0,008
1235,07	3	-0,008
1237,194	3	-0,008
1239,312	3	-0,01
1241,442	3	-0,009
1243,566	3	-0,009
1245,684	3	-0,011
1247,807	3	-0,012
1249,925	3	-0,016
1252,055	2,5	-0,015
1254,173	3	-0,021
1256,297	3	-0,022
1258,421	2,5	-0,023
1260,539	2,5	-0,031
1262,663	2,5	-0,035
1264,787	3	-0,032
1266,91	2,5	-0,028
1269,028	2,5	-0,03
1271,152	2,5	-0,026
1273,264	2,5	-0,021
1275,388	2,5	-0,022
1277,512	3	-0,019
1279,636	3	-0,016
1281,754	3	-0,011
1283,878	3	-0,007
1285,995	3	-0,006
1288,119	3	-0,004
1290,243	3	-0,002
1292,361	3	-0,002
1294,491	3	-0,001
1296,609	3	-0,001
1298,733	3	-0,001
1300,856	3	-0,001
1302,98	3	-0,001
1305,099	3	-0,001
1307,222	3	0
1309,346	3	-0,057
1311,464	3	-0,046
1313,588	3	-0,178
1315,706	3	-0,17
1317,829	3	-0,214
1319,947	3	-0,108
1322,071	3	-0,171
1324,195	3	-0,247
1326,321	3	-0,262
1328,437	3	-0,227
1330,561	3	-0,242
1332,679	3	-0,204
1334,803	3	-0,228
1336,929	3	-0,28
1339,044	3	-0,285
1341,168	3	-0,257
1343,286	2,5	-0,25
1345,41	2,5	-0,287
1347,528	2	-0,344
1349,652	2,5	-0,445
1351,776	1,5	-0,532
1353,893	1,5	-0,49
1356,017	2	-0,482
1358,135	2	-0,497
1360,253	1,5	-0,562
1362,383	1	-0,669
1364,501	0	-0,737
1366,625	0	-0,756
1368,743	0	-0,74
1370,866	0	-0,817
1372,978	0	-0,803
1375,102	0	-0,827
1377,22	0	-0,859
1379,344	-0,5	-0,942
1381,462	-0,5	-0,926
1383,586	-0,5	-0,944
1385,71	-1	-1,043
1387,833	-1,5	-1,09
1389,951	-1,5	-1,152
1392,075	-1,5	-1,166
1394,193	-1,5	-1,219
1396,317	-2	-1,345
1398,435	-2	-1,328
1400,553	-2	-1,338
1402,677	-2	-1,416
1404,801	-2	-1,503
1406,918	-2,5	-1,562
1409,042	-2,5	-1,571
1411,154	-3	-1,662
1413,278	-3	-1,713
1415,39	-3	-1,757
1417,514	-3	-1,797
1419,638	-3	-1,827
1421,762	-3	-1,883
1423,885	-4	-1,987
1426,009	-4	-2,027
1428,121	-4	-2,017
1430,245	-4,5	-2,116
1432,363	-4	-2,218
1434,487	-5,5	-2,342
1436,611	-5,5	-2,399
1438,735	-5,5	-2,401
1440,852	-5,5	-2,381
1442,976	-5,5	-2,39
1445,094	-5,5	-2,34
1447,218	-5	-2,359
1449,342	-5	-2,384
1451,466	-5,5	-2,366
1453,584	-5	-2,265
1455,708	-5	-2,267
1457,825	-5	-2,204
1459,943	-5	-2,307
1462,073	-5	-2,316
1464,191	-5,5	-2,374
1466,315	-6	-2,51
1468,433	-6	-2,574
1470,557	-6,5	-2,704
1472,675	-7,5	-2,746
1474,805	-8	-2,8
1476,922	-8	-2,795
1479,046	-9	-2,962
1481,164	-10	-3,08
1483,288	-10	-3,172
1485,406	-11	-3,237
1487,536	-11,5	-3,316
1489,654	-12	-3,353
1491,778	-11	-3,323
1493,895	-11,5	-3,334
1496,019	-13	-3,382
1498,131	-13,5	-3,412
1500,249	-13	-3,392
1502,373	-13,5	-3,419
1504,491	-11,5	-3,362
1506,615	-12,5	-3,392
1508,733	-13	-3,41
1510,856	-13,5	-3,42
1512,974	-14	-3,443
1515,104	-14,5	-3,46
1517,222	-15	-3,472
1519,34	-15	-3,48
1521,464	-15	-3,486
1523,582	-15	-3,466
1525,706	-14	-3,449
1527,823	-14	-3,432
1529,947	-13,5	-3,424
1532,065	-12,5	-3,357
1534,189	-10,5	-3,258
1536,307	-10	-3,171
1538,425	-9	-3,049
1540,549	-9,5	-3,062
1542,673	-10	-3,224
1544,796	-10	-3,084
1546,915	-7,5	-2,819
1549,038	-7,5	-2,748
1551,156	-7	-2,625
1553,28	-6	-2,52
1555,404	-5,5	-2,449
1557,522	-5	-2,337
1559,646	-5,5	-2,495
1561,764	-5,5	-2,41
1563,887	-5	-2,361
1566,005	-5,5	-2,407
1568,129	-5	-2,346
1570,247	-5	-2,335
1572,365	-6	-2,521
1574,489	-5,5	-2,396
1576,607	-5	-2,278
1578,731	-4,5	-2,233
1580,848	-4,5	-2,137
1583,056	-6	-2,465
1585,18	-5,5	-2,372
1587,298	-5	-2,239
1589,422	-4	-2,1
1591,54	-4	-2,066
1593,664	-3,5	-2,006
1595,782	-4	-2,08
1597,905	-4	-2,03
1600,029	-3,5	-1,952
1602,147	-3,5	-1,872
1604,265	-3	-1,792
1606,383	-3	-1,782
1608,501	-3,5	-1,887
1610,625	-4	-2,046
1612,743	-3,5	-1,986
1614,867	-4	-2,006
1616,984	-4	-2,031
1619,108	-4	-2,037
1621,226	-4	-2,044
1623,344	-4	-2,092
1625,468	-4,5	-2,238
1627,586	-4,5	-2,232
1629,704	-4,5	-2,185
1631,828	-4,5	-2,187
1633,939	-4,5	-2,111
1636,063	-4	-2,076
1638,187	-3,5	-1,987
1640,311	-3,5	-1,81
1642,429	-2,5	-1,656
1644,547	-2,5	-1,544
1646,671	-2	-1,515
1648,789	-1,5	-1,392
1650,912	-2	-1,326
1653,03	-1,5	-1,186
1655,148	-1,5	-1,112
1657,272	0	-0,748
1659,39	1,5	-0,391
1661,514	2	-0,378
1663,632	2	-0,303
1665,756	2,5	-0,258
1667,873	3	-0,036
1669,991	3	0
1672,115	3	-0,001
1674,233	2,5	-0,001
1676,357	2,5	-0,002
1678,475	3	-0,002
1680,593	2,5	-0,002
1682,717	2,5	-0,002
1684,835	3	-0,002
1686,952	3	-0,002
1689,07	3	-0,002
1691,191	3	-0,002
1693,312	3	-0,002
1695,436	3	-0,002
1697,554	3	-0,002
1699,678	3	-0,002
1701,796	3	-0,002
1703,913	3	-0,001
1706,037	3	-0,001
1708,155	3	-0,001
1710,279	3	-0,001
1712,397	3	-0,001
1714,515	3	-0,001
1716,639	3	-0,001
1718,757	3	-0,001
1720,88	3	-0,001
1722,998	3	-0,001
1725,122	3	-0,001
1727,246	3	-0,002
1729,364	3	-0,003
1731,482	3	-0,005
1733,606	3	-0,008
1735,724	3	-0,006
1737,841	3	-0,006
1739,971	3	-0,006
1742,089	3	-0,005
1744,213	3	-0,009
1746,331	3	-0,01
1748,449	3	-0,008
1750,573	3	-0,008
1752,691	3	-0,006
1754,815	3	-0,006
1756,932	3	-0,006
1759,05	3	-0,006
1761,174	3	-0,006
1763,292	3	-0,009
1765,41	3	-0,006
1767,534	3	-0,006
1769,652	3	-0,005
1771,77	3	-0,004
1773,893	3	-0,004
1776,011	3	-0,003
1778,135	3	-0,004
1780,253	3	-0,004
1782,371	3	-0,005
1784,495	3	-0,004
1786,619	3	-0,003
1788,737	3	-0,003
1790,86	3	-0,002
1792,978	3	-0,002
1795,102	3	-0,002
1797,22	3	-0,002
1799,338	3	-0,002
1801,456	3	-0,002
1803,574	3	-0,002
1805,692	3	-0,002
1807,816	3	-0,003
1809,933	3	-0,003
1812,051	3	-0,003
1814,175	3	-0,003
1816,293	3	-0,003
1818,417	3	-0,003
1820,535	3	-0,003
1822,653	3	-0,002
1824,777	3	-0,002
1826,894	3	-0,003
1829,012	3	-0,002
1831,136	3	-0,002
1833,26	3	-0,003
1835,378	3	-0,003
1837,502	3	-0,002
1839,62	3	-0,002
1841,738	2,5	-0,002
1843,862	3	-0,002
1845,979	3	-0,001
1848,103	3	-0,001
1850,227	3	0
1852,345	3	0
1854,463	3	-0,023
1856,587	2,5	-0,022
1858,705	3	-0,036
1860,822	3	-0,018
1862,946	3	-0,027
1865,07	3	-0,003
1867,194	3	-0,014
1869,312	3	0
1871,43	3	0
1873,554	3	0
1875,672	3	0
1877,789	3	0
1879,913	3	-0,001
1882,037	3	-0,001
1884,155	3	-0,001
1886,273	3	-0,002
1888,397	3	-0,002
1890,515	3	-0,002
1892,639	3	-0,002
1894,757	3	-0,002
1896,88	3	-0,003
1898,998	3	-0,003
1901,116	3	-0,004
1903,234	3	-0,005
1905,358	3	-0,006
1907,476	3	-0,01
1909,594	3	-0,008
1911,712	3	-0,01
1913,841	3	-0,008
1915,959	3	-0,01
1918,077	3	-0,011
1920,201	3	-0,014
1922,319	2,5	-0,026
1924,443	3	-0,022
1926,561	3	-0,022
1928,679	3	-0,013
1930,808	3	-0,011
1932,926	3	-0,01
1935,044	3	-0,009
1937,168	3	-0,007
1939,286	3	-0,005
1941,404	3	-0,005
1943,528	3	-0,005
1945,646	3	-0,008
1947,769	3	-0,007
1949,893	3	-0,006
1952,011	3	-0,006
1954,129	3	-0,008
1956,253	3	-0,008
1958,371	2,5	-0,01
1960,489	3	-0,014
1962,619	3	-0,018
1964,737	2,5	-0,024
1966,854	2,5	-0,034
1968,972	2,5	-0,038
1971,096	2,5	-0,032
1973,214	3	-0,027
1975,332	2,5	-0,022
1977,456	3	-0,027
1979,574	3	-0,03
1981,692	3	-0,022
1983,815	3	-0,023
1985,933	3	-0,018
1988,051	3	-0,022
1990,169	3	-0,014
1992,293	3	-0,01
1994,411	3	-0,009
1996,529	3	-0,006
1998,659	3	-0,005
2000,776	3	-0,003
2002,894	3	-0,002
2005,018	3	-0,001
2007,136	3	-0,001
2009,254	3	-0,001
2011,372	3	-0,001
2013,496	3	0
2015,614	3	-0,009
2017,731	2,5	-0,027
2019,855	3	-0,21
2021,973	2,5	-0,274
2024,091	2	-0,388
2026,203	2,5	-0,32
2028,327	1,5	-0,456
2030,445	1,5	-0,578
2032,575	0,5	-0,659
2034,693	0	-0,744
2036,811	-0,5	-0,882
2038,928	-1	-0,94
2041,052	-1	-0,948
2043,17	-1	-0,948
2045,288	-1	-0,958
2047,406	-1,5	-1,027
2049,536	-1,5	-1,107
2051,654	-1,5	-1,112
2053,772	-1,5	-1,207
2055,895	-1,5	-1,254
2058,013	-1,5	-1,328
2060,131	-1,5	-1,342
2062,255	-1,5	-1,41
2064,373	-1,5	-1,426
2066,509	-2	-1,505
2068,633	-2,5	-1,576
2070,75	-2	-1,54
2072,868	-1,5	-1,374
2074,986	-1,5	-1,305
2077,11	-1,5	-1,164
2079,228	-1,5	-1,117
2081,346	-0,5	-0,886
2083,476	0,5	-0,675
2085,594	1,5	-0,466
2087,711	2,5	-0,299
2089,835	3	-0,17
2091,953	3	-0,018
2094,071	3	-0,001
2096,189	3	-0,001
2098,301	3	-0,002
2100,419	3	-0,002
2102,543	3	-0,003
2104,667	3	-0,004
2106,784	3	-0,006
2108,902	3	-0,01
2111,02	2,5	-0,015
2113,138	2,5	-0,023
2115,256	2,5	-0,032
2117,374	3	-0,037
2119,492	2,5	-0,057
2121,616	2	-0,076
2123,733	2	-0,078
2125,851	1,5	-0,097
2127,969	1,5	-0,099
2130,087	1,5	-0,117
2132,205	1,5	-0,117
2134,323	1,5	-0,117
2136,447	2	-0,109
2138,565	1,5	-0,142
2140,683	1,5	-0,171
2142,806	1	-0,274
2144,924	0	-0,522
2147,036	0	-0,594
2149,16	0	-0,831
2151,272	0	-0,808
2153,39	0	-0,883
2155,514	0	-0,79
2157,632	-0,5	-0,885
2159,749	-0,5	-0,966
2161,867	-0,5	-1,093
2163,991	-1	-1,154
2166,109	-1	-1,176
2168,227	-1,5	-1,25
2170,345	-2	-1,411
2172,469	-2	-1,471
2174,587	-2	-1,456
2176,704	-2	-1,525
2178,828	-2,5	-1,549
2180,946	-2,5	-1,558
2183,064	-2,5	-1,603
2185,182	-3	-1,72
2187,306	-3	-1,738
2189,424	-3	-1,782
2191,542	-3	-1,813
2193,659	-3	-1,732
2195,783	-3	-1,704
2197,901	-3	-1,683
2200,019	-2,5	-1,668
2202,143	-3	-1,686
2204,261	-3	-1,739
2206,379	-3,5	-1,818
2208,497	-3	-1,799
2210,621	-4	-1,908
2212,732	-4,5	-2,034
2214,844	-4,5	-2,011
2216,962	-5	-2,113
2219,086	-5	-2,12
2221,204	-5	-2,099
2223,322	-4,5	-2,018
2225,446	-4	-1,964
2227,563	-5	-2,118
2229,682	-5	-2,134
2231,805	-4,5	-2,03
2233,935	-4	-2,003
2236,053	-4,5	-2,052
2238,171	-5	-2,11
2240,289	-4,5	-2,084
2242,413	-4,5	-2,075
2244,531	-4,5	-2,087
2246,648	-5	-2,14
2248,778	-4,5	-2,001
2250,896	-4	-1,99
2253,014	-3,5	-1,906
2255,132	-3,5	-1,922
2257,25	-4	-1,907
2259,368	-3,5	-1,88
2261,486	-4	-1,966
2263,609	-4,5	-1,984
2265,727	-4	-1,932
2267,851	-3,5	-1,891
2269,963	-4	-1,996
2272,081	-4	-2,013
2274,205	-4	-1,968
2276,323	-4,5	-1,993
2278,441	-3,5	-1,94
2280,57	-4	-1,94
2282,688	-4,5	-2,009
2284,806	-4,5	-2,019
2286,924	-5	-2,084
2289,06	-4	-1,977
2291,178	-4	-1,968
2293,296	-4,5	-1,943
2295,42	-3,5	-1,875
2297,538	-3,5	-1,843
2299,655	-4	-1,919
2301,773	-4	-1,962
2303,897	-4,5	-1,968
2306,015	-4,5	-2,054
2308,139	-4,5	-2,052
2310,257	-5	-2,088
2312,381	-4,5	-2,054
2314,499	-4,5	-2,065
2316,616	-5	-2,098
2318,74	-5	-2,116
2320,852	-4,5	-2,119
2322,97	-5	-2,205
2325,088	-5,5	-2,307
2327,218	-6,5	-2,359
2329,336	-6,5	-2,438
2331,454	-7,5	-2,545
2333,577	-8,5	-2,643
2335,695	-9	-2,692
2337,813	-9,5	-2,798
2339,931	-10,5	-2,915
2342,055	-11,5	-2,982
2344,173	-12	-3,019
2346,291	-13	-3,17
2348,409	-13,5	-3,278
2350,526	-13,5	-3,377
2352,65	-13	-3,382
2354,768	-13	-3,394
2356,886	-13	-3,426
2359,01	-12,5	-3,376
2361,128	-12,5	-3,5
2363,246	-13	-3,5
2365,364	-12,5	-3,5
2367,494	-12,5	-3,498
2369,611	-12,5	-3,5
2371,729	-12,5	-3,499
2373,847	-12,5	-3,499
2375,971	-12,5	-3,499
2378,089	-12,5	-3,498
2380,207	-13	-3,498
2382,325	-12,5	-3,496
2384,449	-12,5	-3,496
2386,573	-12	-3,496
2388,69	-12	-3,496
2390,814	-12	-3,496
2392,932	-12	-3,496
2395,05	-12	-3,495
2397,168	-12	-3,494
2399,304	-12	-3,494
2401,422	-12	-3,49
2403,539	-12	-3,483
2405,657	-10,5	-3,456
2407,782	-9,5	-3,402
2409,899	-8,5	-3,328
2412,017	-8	-3,264
2414,135	-7	-3,125
2416,259	-5,5	-2,861
2418,377	-5	-2,642
2420,494	-4	-2,452
2422,612	-3,5	-2,206
2424,73	-3	-2,072
2426,848	-2,5	-1,907
2428,972	-2,5	-1,826
2431,096	-2	-1,727
2433,214	-2	-1,663
2435,332	-1,5	-1,493
2437,45	-1,5	-1,332
2439,573	-1,5	-1,394
2441,691	-1,5	-1,41
2443,809	-1,5	-1,49
2445,927	-2	-1,51
2448,051	-1,5	-1,476
2450,169	-1,5	-1,391
2452,287	-1,5	-1,348
2454,405	-1	-1,208
2456,522	-1	-1,166
2458,64	-1	-1,192
2460,758	-0,5	-1,15
2462,876	-0,5	-0,995
2465	-1	-1,088
2467,118	-1	-1,126
2469,236	-1	-1,136
2471,36	-0,5	-1,096
2473,477	-0,5	-1,122
2475,595	-0,5	-1,116
2477,713	-0,5	-1,057
2479,837	-0,5	-1,002
2481,955	0	-0,98
2484,073	0	-0,933
2486,191	0	-0,911
2488,303	0	-0,737
2490,42	0,5	-0,651
2492,544	0	-0,782
2494,662	0	-0,745
2496,786	0	-0,848
2498,904	0	-0,778
2501,028	1,5	-0,569
2503,152	2	-0,524
2505,27	2	-0,486
2507,388	1,5	-0,545
2509,505	1,5	-0,529
2511,629	0,5	-0,685
2513,753	1	-0,695
2515,871	2	-0,475
2517,989	2	-0,437
2520,113	3	-0,186
2522,231	3	-0,175
2524,349	3	-0,09
2526,466	3	-0,163
2528,59	3	-0,226
2530,708	3	-0,254
2532,826	3	-0,136
2534,956	3	0
2537,074	3	-0,001
2539,192	3	-0,001
2541,31	3	-0,001
2543,433	3	-0,001
2545,551	3	-0,002
2547,669	3	-0,002
2549,793	3	-0,004
2551,911	3	-0,008
2554,029	3	-0,008
2556,147	3	-0,01
2558,271	3	-0,01
2560,394	3	-0,009
2562,512	3	-0,02
2564,63	2,5	-0,04
2566,748	2,5	-0,048
2568,872	2,5	-0,053
2570,99	2	-0,076
2573,108	1,5	-0,132
2575,232	1,5	-0,186
2577,35	0,5	-0,353
2579,473	1	-0,319
2581,591	1	-0,334
2583,715	1	-0,244
2585,833	1	-0,295
2587,951	1	-0,271
2590,069	1	-0,31
2592,193	0,5	-0,611
2594,311	0,5	-0,579
2596,428	0	-0,618
2598,546	0	-0,648
2600,67	0,5	-0,626
2602,794	0	-0,659
2604,912	0	-0,808
2607,03	0	-0,814
2609,154	0	-0,827
2611,272	0	-0,823
2613,389	0	-0,934
2615,513	0	-1,038
2617,625	0	-1,122
2619,743	0	-1,073
2621,861	0	-1,015
2623,985	0	-0,996
2626,103	0	-0,896
2628,221	0	-0,902
2630,332	0	-0,959
2632,456	0	-0,955
2634,574	0	-1,013
2636,692	0	-0,968
2638,81	0	-0,935
2640,94	0	-0,794
2643,058	0	-0,78
2645,176	0	-0,728
2647,3	0	-0,752
2649,417	0	-0,816
2651,529	0	-0,846
2653,647	0	-0,766
2655,771	0,5	-0,694
2657,889	0,5	-0,684
2660,007	0,5	-0,535
2662,125	0,5	-0,536
2664,249	0,5	-0,479
2666,366	0,5	-0,501
2668,49	0,5	-0,498
2670,608	0,5	-0,456
2672,732	0,5	-0,411
2674,85	1	-0,39
2676,962	1	-0,366
2679,08	1	-0,348
2681,204	1	-0,233
2683,321	1	-0,18
2685,439	1,5	-0,138
2687,557	1,5	-0,122
2689,681	1,5	-0,116
2691,805	2	-0,107
2693,923	2	-0,091
2696,041	2	-0,082
2698,165	2	-0,073
2700,282	2	-0,055
2702,4	2,5	-0,051
2704,524	3	-0,036
2706,642	2,5	-0,036
2708,76	3	-0,038
2710,878	2,5	-0,042
2713,002	3	-0,029
2715,12	3	-0,02
2717,238	3	-0,026
2719,361	3	-0,025
2721,479	2,5	-0,035
2723,597	2,5	-0,04
2725,715	2,5	-0,056
2727,839	2	-0,056
2729,957	2,5	-0,049
2732,075	3	-0,04
2734,193	2,5	-0,041
2736,316	3	-0,036
2738,434	2,5	-0,041
2740,552	2,5	-0,04
2742,67	2,5	-0,044
2744,794	2,5	-0,043
2746,912	2,5	-0,05
2749,03	2,5	-0,054
2751,148	2	-0,065
2753,271	2	-0,072
2755,389	2	-0,075
2757,507	2	-0,078
2759,631	2,5	-0,069
2761,749	2,5	-0,059
2763,867	2	-0,062
2765,979	1,5	-0,093
2768,103	2	-0,078
2770,22	2	-0,085
2772,338	1,5	-0,098
2774,456	1,5	-0,135
2776,58	1,5	-0,11
2778,698	1,5	-0,125
2780,816	1,5	-0,192
2782,94	1	-0,263
2785,058	1	-0,292
2787,176	0,5	-0,388
2789,293	0,5	-0,441
2791,417	0,5	-0,448
2793,535	0	-0,565
2795,653	0	-0,662
2797,771	0	-0,688
2799,889	0	-0,768
2802,013	0	-0,77
2804,131	0	-0,899
2806,254	0	-1,059
2808,378	0	-1,159
2810,496	-0,5	-1,319
2812,614	-0,5	-1,516
2814,732	-0,5	-1,591
2816,856	-0,5	-1,524
2818,974	-0,5	-1,54
2821,092	-1	-1,598
2823,215	-1	-1,648
2825,333	-1	-1,65
2827,451	-1	-1,729
2829,569	-1,5	-1,789
2831,687	-1,5	-1,832
2833,805	-1,5	-1,917
2835,923	-1,5	-1,987
2838,041	-1,5	-2,029
2840,164	-1,5	-2,005
2842,288	-2	-2,028
2844,406	-1,5	-2,013
2846,524	-2	-2,087
2848,648	-2,5	-2,133
2850,766	-2,5	-2,182
2852,89	-2,5	-2,236
2855,002	-3	-2,297
2857,126	-3	-2,359
2859,243	-3	-2,472
2861,361	-3,5	-2,524
2863,485	-4	-2,602
2865,603	-4,5	-2,682
2867,721	-4,5	-2,703
2869,839	-5	-2,779
2871,963	-5	-2,754
2874,081	-5	-2,792
2876,204	-5,5	-2,848
2878,328	-6	-2,854
2880,452	-5	-2,857
2882,57	-6,5	-2,905
2884,688	-7	-2,975
2886,806	-7	-2,985
2888,93	-7,5	-2,999
2891,042	-7,5	-3,045
2893,159	-7	-3,029
2895,277	-7	-3,062
2897,401	-8	-3,118
2899,519	-8	-3,237
2901,637	-8,5	-3,271
2903,749	-8,5	-3,419
2905,873	-8,5	-3,475
2907,991	-8,5	-3,5
2910,109	-8,5	-3,499
2912,226	-8,5	-3,499
2914,35	-8	-3,499
2916,468	-8,5	-3,499
2918,586	-8,5	-3,498
2920,704	-8,5	-3,497
2922,828	-8	-3,498
2924,946	-8,5	-3,497
2927,07	-8,5	-3,496
2929,187	-8,5	-3,495
2931,311	-8,5	-3,494
2933,435	-8,5	-3,495
2935,553	-8,5	-3,492
2937,665	-8	-3,488
2939,789	-8,5	-3,484
2941,907	-8	-3,478
2944,025	-8	-3,476
2946,142	-8	-3,464
2948,272	-8	-3,463
2950,39	-7,5	-3,449
2952,514	-7,5	-3,438
2954,632	-7,5	-3,427
2956,756	-7	-3,432
2958,874	-7,5	-3,428
2960,992	-6,5	-3,403
2963,109	-6	-3,365
2965,233	-6	-3,342
2967,351	-5	-3,243
2969,469	-5	-3,152
2971,587	-4,5	-3,099
2973,711	-4,5	-3,043
2975,829	-4,5	-3,032
2977,947	-4	-2,953
2980,065	-3,5	-2,883
2982,188	-3,5	-2,832
2984,306	-3,5	-2,769
2986,424	-3	-2,757
2988,542	-3	-2,688
2990,66	-3	-2,522
2992,778	-2,5	-2,464
2994,896	-2,5	-2,372
2997,014	-2,5	-2,319
2999,137	-2	-2,28
3001,255	-2	-2,2
3003,373	-2	-2,098
3005,491	-2	-2,093
3007,615	-1,5	-1,958
3009,733	-1,5	-1,9
3011,851	-1	-1,76
3013,969	-1,5	-1,716
3016,093	-1	-1,641
3018,21	-1	-1,524
3020,328	-1	-1,432
3022,446	-0,5	-1,299
3024,57	-1	-1,307
3026,688	-0,5	-1,196
3028,812	-0,5	-1,172
3030,93	-0,5	-1,118
3033,054	-0,5	-1,094
3035,171	0	-0,982
3037,289	0	-0,935
3039,407	0	-0,902
3041,531	0	-0,869
3043,649	0	-0,82
3045,767	0	-0,804
3047,879	0,5	-0,699
3050,003	0,5	-0,584
3052,12	2	-0,504
3054,238	2	-0,403
3056,356	3	-0,257
3058,48	3	-0,17
3060,598	3	-0,078
3062,716	3	0
3064,834	3	-0,001
3066,958	3	-0,001
3069,075	3	-0,001
3071,193	3	-0,001
3073,311	3	-0,002
3075,435	3	-0,002
3077,553	3	-0,004
3079,671	3	-0,006
3081,789	2,5	-0,007
3083,913	3	-0,009
3086,03	2,5	-0,012
3088,148	3	-0,014
3090,266	2,5	-0,021
3092,384	2,5	-0,032
3094,502	2	-0,045
3096,62	2	-0,068
3098,738	1,5	-0,088
3100,862	1,5	-0,096
3102,979	1,5	-0,147
3105,097	1	-0,224
3107,215	0,5	-0,324
3109,333	0,5	-0,404
3111,457	0,5	-0,454
3113,575	0,5	-0,492
3115,693	0	-0,609
3117,817	0	-0,723
3119,935	0	-0,857
3122,052	0	-0,985
3124,17	0	-1,139
3126,288	-0,5	-1,304
3128,406	0	-1,31
3130,524	-0,5	-1,459
3132,642	-0,5	-1,609
3134,76	-1	-1,742
3136,884	-1	-1,84
3139,001	-1,5	-2,032
3141,119	-1,5	-2,096
3143,237	-2	-2,234
3145,355	-2,5	-2,341
3147,479	-3	-2,423
3149,597	-3	-2,535
3151,715	-3,5	-2,626
3153,833	-5,5	-2,82
3155,956	-5	-2,921
3158,074	-6,5	-2,996
3160,192	-7	-3,06
3162,31	-7,5	-3,158
3164,434	-7,5	-3,176
3166,552	-8	-3,332
3168,67	-8	-3,456
3170,788	-8	-3,482
3172,911	-8	-3,5
3175,029	-8	-3,5
3177,141	-8	-3,499
3179,259	-8	-3,499
3180,369	3	-0,001