File: ensaios_Ciclicos/_40perc/_2gap/entrada/_2.txt
Time (s)	Load (N)	Displacement (mm)
0	0	-0,034
2,087	1	0
4,151	1	-0,002
6,239	1	-0,002
8,453	1	0
10,517	1,5	-0,001
12,581	1,5	-0,002
14,651	1,5	-0,005
16,715	1,5	-0,011
18,784	1,5	-0,018
20,849	1,5	-0,028
22,918	1,5	-0,052
24,982	0,5	-0,107
27,058	0	-0,22
29,128	-1	-0,489
31,205	-1,5	-0,7
33,268	-4	-1,045
35,358	-4,5	-1,217
37,425	-6	-1,468
39,495	-7	-1,666
41,559	-9	-1,958
43,629	-12,5	-2,301
45,711	-13,5	-2,447
47,781	-15	-2,704
49,845	-17	-2,932
51,909	-20	-3,171
53,99	-19,5	-3,344
56,06	-19,5	-3,5
58,136	-19,5	-3,499
60,206	-19,5	-3,498
62,294	-19,5	-3,496
64,364	-19,5	-3,49
66,446	-19,5	-3,478
68,509	-18	-3,442
70,579	-17	-3,37
72,661	-15	-3,21
74,725	-13	-2,967
76,795	-12	-2,763
78,883	-11	-2,726
80,953	-10	-2,527
83,024	-7,5	-2,276
85,105	-6,5	-2,091
87,174	-5,5	-1,865
89,25	-4,5	-1,682
91,338	-4	-1,532
93,415	-3,5	-1,397
95,496	-3	-1,257
97,568	-1,5	-1,006
99,636	-0,5	-0,761
101,706	1,5	-0,52
103,776	2	-0,284
105,851	2	-0,065
107,927	2	-0,001
110,015	2	-0,001
112,097	2	-0,003
114,179	2	-0,005
116,255	2	-0,013
118,319	2	-0,032
120,407	2	-0,051
122,483	1,5	-0,089
124,558	1	-0,125
126,634	0	-0,272
128,716	0	-0,481
130,792	-0,5	-0,611
132,862	-1,5	-0,82
134,938	-2	-0,96
137,008	-3	-1,175
139,089	-4	-1,361
141,171	-5	-1,493
143,253	-6	-1,669
145,329	-6,5	-1,804
147,405	-8,5	-1,963
149,476	-9	-2,101
151,563	-10,5	-2,294
153,641	-12	-2,451
155,715	-13,5	-2,645
157,79	-15	-2,829
159,86	-17	-3,054
161,924	-18	-3,27
164	-18	-3,419
166,076	-18	-3,5
168,152	-18	-3,499
170,222	-18	-3,498
172,31	-18	-3,497
174,379	-18	-3,495
176,467	-18	-3,493
178,549	-17,5	-3,491
180,637	-18	-3,49
182,719	-17,5	-3,484
184,807	-17,5	-3,473
186,889	-17	-3,46
188,965	-16,5	-3,432
191,053	-15,5	-3,394
193,146	-15	-3,365
195,222	-13	-3,18
197,305	-11	-2,916
199,392	-9,5	-2,706
201,474	-8	-2,509
203,556	-6,5	-2,296
205,645	-6	-2,106
207,719	-4,5	-1,92
209,801	-4	-1,692
211,877	-3	-1,481
213,953	-2,5	-1,202
216,029	-1,5	-1,034
218,105	0	-0,771
220,181	0	-0,628
222,269	1,5	-0,473
224,339	2,5	-0,268
226,426	2,5	-0,178
228,514	2,5	-0,023
230,602	2,5	0
232,678	2,5	-0,001
234,754	2,5	-0,001
236,836	2,5	-0,002
238,924	2,5	-0,003
241,006	2,5	-0,005
243,088	2,5	-0,008
245,163	2,5	-0,015
247,251	2,5	-0,025
249,339	2,5	-0,033
251,427	2	-0,048
253,509	2	-0,065
255,591	2	-0,076
257,679	1,5	-0,12
259,773	1	-0,134
261,854	0,5	-0,166
263,936	0	-0,324
266,018	0	-0,429
268,082	0	-0,625
270,164	-0,5	-0,779
272,246	-1,5	-0,965
274,328	-1,5	-1,06
276,404	-2,5	-1,212
278,491	-3	-1,31
280,573	-4	-1,49
282,655	-4,5	-1,579
284,731	-5,5	-1,753
286,807	-6	-1,914
288,883	-7,5	-2,113
290,971	-8,5	-2,206
293,053	-10,5	-2,365
295,136	-12	-2,552
297,217	-12	-2,653
299,304	-12,5	-2,707
301,386	-13,5	-2,768
303,474	-15,5	-2,996
305,55	-16,5	-3,225
307,638	-17	-3,393
309,72	-16,5	-3,5
311,79	-16,5	-3,498
313,859	-16,5	-3,497
315,929	-16,5	-3,495
318,012	-16,5	-3,493
320,093	-16,5	-3,488
322,175	-16,5	-3,482
324,257	-16,5	-3,473
326,345	-16	-3,468
328,421	-15,5	-3,447
330,497	-15	-3,403
332,572	-13,5	-3,364
334,654	-13,5	-3,29
336,73	-11,5	-3,164
338,812	-10,5	-2,981
340,882	-9,5	-2,804
342,964	-8,5	-2,666
345,046	-6,5	-2,522
347,128	-6,5	-2,391
349,209	-6	-2,322
351,285	-5,5	-2,201
353,379	-5	-2,139
355,461	-5	-2,044
357,555	-5	-1,982
359,637	-4	-1,828
361,725	-3,5	-1,694
363,807	-3	-1,551
365,888	-2,5	-1,466
367,97	-1,5	-1,296
370,052	-1,5	-1,084
372,134	-0,5	-0,792
374,222	0,5	-0,636
376,298	2	-0,456
378,374	2	-0,265
380,45	2,5	-0,016
382,544	2,5	-0,001
384,625	2,5	-0,002
386,713	3	-0,003
388,795	2,5	-0,007
390,871	2,5	-0,013
392,959	2,5	-0,02
395,041	2,5	-0,024
397,123	2,5	-0,035
399,205	2	-0,063
401,292	2	-0,076
403,374	1,5	-0,156
405,462	1	-0,176
407,532	0,5	-0,392
409,62	0	-0,621
411,696	-0,5	-0,842
413,778	-1,5	-1,035
415,854	-2,5	-1,276
417,924	-3,5	-1,497
420,005	-5	-1,793
422,087	-6	-1,924
424,169	-6,5	-2,063
426,245	-9,5	-2,304
428,327	-9	-2,315
430,403	-10,5	-2,52
432,485	-12	-2,734
434,567	-14	-2,914
436,648	-15	-3,148
438,724	-16	-3,316
440,812	-16	-3,353
442,888	-16	-3,5
444,976	-16	-3,499
447,058	-16	-3,499
449,134	-16	-3,498
451,216	-16	-3,496
453,292	-16	-3,494
455,373	-16	-3,492
457,455	-16	-3,487
459,531	-15,5	-3,48
461,613	-15	-3,466
463,689	-14,5	-3,438
465,765	-13,5	-3,383
467,847	-13,5	-3,323
469,929	-12	-3,186
472,01	-9,5	-2,964
474,086	-8,5	-2,706
476,174	-7	-2,524
478,25	-6	-2,335
480,32	-5	-2,163
482,408	-5	-2,072
484,49	-3,5	-1,87
486,566	-3,5	-1,691
488,641	-2,5	-1,567
490,723	-2,5	-1,396
492,799	-1,5	-1,159
494,869	-1	-0,914
496,945	0	-0,692
499,033	0,5	-0,574
501,109	1,5	-0,368
503,185	2,5	-0,202
505,261	3	-0,002
507,336	3	-0,001
509,418	3	-0,002
511,494	2,5	-0,003
513,576	2,5	-0,005
515,658	2,5	-0,008
517,734	2,5	-0,013
519,816	2,5	-0,028
521,892	2	-0,061
523,974	1,5	-0,099
526,055	1	-0,165
528,143	1	-0,262
530,219	0	-0,574
532,295	-0,5	-0,774
534,371	-1	-0,978
536,453	-2	-1,233
538,529	-3	-1,444
540,599	-4,5	-1,704
542,68	-4,5	-1,869
544,756	-6,5	-2,112
546,838	-8	-2,287
548,92	-9	-2,493
550,996	-11	-2,668
553,072	-12,5	-2,84
555,154	-13,5	-2,941
557,23	-15	-3,196
559,311	-15	-3,471
561,399	-15,5	-3,5
563,475	-15,5	-3,499
565,557	-15,5	-3,498
567,633	-15	-3,497
569,709	-15,5	-3,495
571,785	-15	-3,491
573,861	-15	-3,484
575,948	-15	-3,475
578,024	-15	-3,451
580,1	-13,5	-3,388
582,176	-11,5	-3,289
584,252	-10,5	-3,107
586,328	-8,5	-2,852
588,398	-7	-2,559
590,474	-5,5	-2,348
592,55	-4,5	-2,133
594,625	-3,5	-1,886
596,707	-3	-1,773
598,777	-2,5	-1,549
600,853	-2	-1,376
602,929	-1	-1,124
605,005	-0,5	-0,87
607,087	0,5	-0,68
609,163	1	-0,564
611,239	2	-0,375
613,314	2,5	-0,286
615,39	2,5	-0,215
617,478	2,5	-0,002
619,554	3	-0,001
621,624	2,5	-0,002
623,7	3	-0,003
625,776	3	-0,005
627,858	3	-0,005
629,927	3	-0,011
632,015	3	-0,016
634,091	3	-0,023
636,167	2	-0,047
638,249	1,5	-0,083
640,325	1	-0,193
642,407	0	-0,4
644,483	0	-0,743
646,558	-1	-0,959
648,634	-1,5	-1,095
650,71	-1,5	-1,156
652,78	-2,5	-1,376
654,856	-2,5	-1,484
656,932	-4	-1,628
659,008	-5	-1,916
661,084	-7	-2,179
663,16	-8	-2,32
665,235	-9	-2,52
667,311	-11,5	-2,689
669,387	-13	-2,894
671,463	-14,5	-3,062
673,533	-15	-3,338
675,609	-15	-3,496
677,691	-15	-3,499
679,761	-15	-3,498
681,842	-15	-3,498
683,918	-15	-3,496
685,994	-15	-3,494
688,076	-15	-3,492
690,152	-15	-3,484
692,228	-14,5	-3,469
694,304	-14,5	-3,452
696,386	-14	-3,431
698,461	-12	-3,371
700,537	-12	-3,296
702,613	-9,5	-3,082
704,695	-8,5	-2,884
706,777	-7,5	-2,762
708,853	-7	-2,637
710,929	-5,5	-2,49
713,005	-5	-2,264
715,075	-4,5	-2,092
717,162	-3,5	-1,968
719,244	-3	-1,825
721,32	-2,5	-1,647
723,408	-2,5	-1,518
725,478	-1,5	-1,262
727,548	-1	-1,027
729,63	-0,5	-0,841
731,712	0	-0,655
733,787	2	-0,47
735,875	2	-0,362
737,945	2,5	-0,15
740,027	2,5	-0,004
742,103	2,5	-0,001
744,179	3	-0,002
746,255	3	-0,004
748,325	3	-0,008
750,4	2,5	-0,014
752,488	2,5	-0,028
754,558	2	-0,06
756,634	1,5	-0,113
758,71	1	-0,245
760,78	0	-0,413
762,856	0	-0,666
764,944	-0,5	-0,827
767,02	-1	-1,032
769,095	-2	-1,243
771,177	-1,5	-1,273
773,253	-2,5	-1,431
775,323	-3,5	-1,714
777,405	-4,5	-1,846
779,487	-5,5	-2,064
781,563	-7	-2,194
783,639	-8	-2,347
785,715	-9,5	-2,568
787,784	-12	-2,808
789,866	-12,5	-2,979
791,942	-14,5	-3,146
794,018	-15	-3,36
796,094	-15	-3,5
798,182	-15	-3,5
800,258	-15	-3,499
802,346	-15	-3,498
804,421	-15	-3,497
806,491	-15	-3,494
808,573	-15	-3,492
810,655	-15	-3,489
812,737	-14,5	-3,473
814,819	-14,5	-3,463
816,889	-14	-3,439
818,965	-13,5	-3,417
821,04	-12	-3,374
823,128	-11,5	-3,288
825,204	-10	-3,109
827,28	-8	-2,937
829,362	-7	-2,745
831,438	-6,5	-2,619
833,515	-5,5	-2,426
835,584	-4,5	-2,227
837,66	-3,5	-2,001
839,735	-3	-1,833
841,811	-2	-1,581
843,887	-2	-1,381
845,963	-1,5	-1,244
848,045	-1,5	-1,107
850,115	-0,5	-0,861
852,197	0,5	-0,643
854,273	2	-0,432
856,348	2,5	-0,257
858,43	2,5	-0,147
860,506	2,5	-0,001
862,582	2,5	-0,001
864,652	3	-0,003
866,728	3	-0,007
868,804	3	-0,016
870,88	2,5	-0,03
872,956	2,5	-0,054
875,037	1,5	-0,103
877,107	1	-0,24
879,183	0	-0,554
881,259	0	-0,853
883,329	-1	-1,073
885,405	-1,5	-1,278
887,481	-2,5	-1,472
889,557	-3,5	-1,693
891,626	-5,5	-1,923
893,708	-5,5	-2,082
895,784	-7	-2,324
897,854	-9	-2,554
899,931	-10,5	-2,727
902,012	-12	-2,87
904,088	-13	-2,996
906,164	-14,5	-3,252
908,24	-15	-3,476
910,315	-14,5	-3,5
912,385	-14,5	-3,498
914,461	-15	-3,496
916,543	-15	-3,492
918,613	-14,5	-3,484
920,689	-14,5	-3,465
922,771	-14	-3,446
924,841	-12,5	-3,372
926,916	-11,5	-3,28
928,986	-9	-2,987
931,056	-7,5	-2,71
933,132	-5,5	-2,426
935,208	-4,5	-2,225
937,284	-4	-2,016
939,354	-2,5	-1,752
941,43	-2	-1,51
943,505	-1,5	-1,246
945,587	-1	-1,024
947,663	0	-0,781
949,733	2,5	-0,355
951,809	3	-0,205
953,879	2,5	-0,001
955,955	2,5	-0,002
958,031	3	-0,004
960,107	3	-0,01
962,182	2,5	-0,022
964,258	2	-0,046
966,334	1,5	-0,16
968,41	0,5	-0,39
970,486	0	-0,5
972,562	0	-0,72
974,632	-1	-1,02
976,708	-1,5	-1,214
978,783	-2,5	-1,451
980,847	-4	-1,828
982,923	-5,5	-2,113
984,993	-7	-2,384
987,063	-10	-2,716
989,133	-12	-2,984
991,215	-14,5	-3,252
993,291	-14,5	-3,5
995,361	-14,5	-3,498
997,436	-14,5	-3,496
999,518	-14,5	-3,493
1001,588	-14,5	-3,486
1003,664	-14	-3,466
1005,74	-13,5	-3,442
1007,81	-12,5	-3,398
1009,886	-10,5	-3,234
1011,956	-8,5	-2,948
1014,031	-6,5	-2,592
1016,113	-5,5	-2,373
1018,183	-3,5	-2,071
1020,259	-3	-1,832
1022,335	-2,5	-1,563
1024,411	-1,5	-1,3
1026,481	-1	-1,042
1028,557	-0,5	-0,939
1030,639	0	-0,716
1032,708	1,5	-0,54
1034,784	3	-0,242
1036,86	2,5	-0,006
1038,942	3	-0,001
1041,018	2,5	-0,001
1043,094	3	-0,002
1045,17	2,5	-0,007
1047,252	3	-0,011
1049,321	3	-0,023
1051,403	2,5	-0,039
1053,473	2	-0,084
1055,555	1,5	-0,099
1057,631	1,5	-0,198
1059,707	0,5	-0,335
1061,783	0	-0,482
1063,871	0	-0,615
1065,946	-0,5	-0,785
1068,022	-2	-1,372
1070,098	-3	-1,566
1072,174	-4	-1,808
1074,244	-6,5	-2,15
1076,32	-6,5	-2,233
1078,396	-8	-2,39
1080,466	-10	-2,615
1082,542	-12,5	-2,889
1084,611	-13	-3,06
1086,687	-14,5	-3,252
1088,769	-14,5	-3,343
1090,839	-14,5	-3,5
1092,915	-14,5	-3,499
1094,991	-14,5	-3,499
1097,061	-14,5	-3,498
1099,137	-14,5	-3,496
1101,2	-14,5	-3,493
1103,276	-14,5	-3,485
1105,352	-14	-3,479
1107,422	-13,5	-3,46
1109,498	-13	-3,432
1111,574	-12,5	-3,414
1113,65	-11,5	-3,346
1115,72	-9,5	-3,18
1117,796	-8	-2,932
1119,865	-7,5	-2,756
1121,941	-5,5	-2,614
1124,017	-5	-2,424
1126,087	-4	-2,152
1128,169	-3	-1,908
1130,233	-2,5	-1,686
1132,321	-2	-1,536
1134,397	-1,5	-1,332
1136,466	-1	-1,074
1138,543	0	-0,79
1140,618	1,5	-0,562
1142,694	2	-0,421
1144,77	2,5	-0,218
1146,84	3	-0,002
1148,922	3	-0,001
1150,992	2,5	-0,002
1153,061	2,5	-0,004
1155,137	2,5	-0,009
1157,207	2	-0,021
1159,301	2,5	-0,028
1161,371	2	-0,045
1163,453	1,5	-0,078
1165,529	1	-0,184
1167,599	0	-0,36
1169,675	0	-0,597
1171,744	-0,5	-0,922
1173,82	-1	-1,074
1175,89	-2	-1,368
1177,966	-2,5	-1,504
1180,03	-3,5	-1,721
1182,106	-4,5	-1,92
1184,176	-6	-2,165
1186,258	-7	-2,256
1188,327	-7,5	-2,374
1190,403	-8	-2,504
1192,473	-9,5	-2,605
1194,549	-9,5	-2,652
1196,625	-9,5	-2,666
1198,695	-12	-2,912
1200,765	-12,5	-3,035
1202,835	-14	-3,274
1204,911	-14	-3,466
1206,986	-14,5	-3,499
1209,062	-14	-3,498
1211,132	-14	-3,498
1213,208	-14	-3,497
1215,284	-14	-3,495
1217,36	-14	-3,494
1219,43	-14	-3,489
1221,506	-14	-3,476
1223,581	-13,5	-3,459
1225,657	-13	-3,419
1227,733	-10,5	-3,314
1229,803	-9	-3,1
1231,879	-8	-2,906
1233,949	-6	-2,675
1236,025	-4,5	-2,322
1238,095	-3	-2,065
1240,17	-3	-1,87
1242,24	-2,5	-1,662
1244,322	-2	-1,451
1246,398	-1,5	-1,24
1248,468	-0,5	-0,941
1250,538	0	-0,679
1252,608	1,5	-0,561
1254,684	2,5	-0,263
1256,754	2,5	0
1258,829	2,5	-0,001
1260,899	3	-0,003
1262,975	3	-0,004
1265,045	2,5	-0,011
1267,121	3	-0,016
1269,197	3	-0,024
1271,267	2	-0,053
1273,349	1,5	-0,096
1275,418	1,5	-0,183
1277,494	1	-0,29
1279,558	0	-0,524
1281,634	0	-0,611
1283,704	0	-0,814
1285,78	-0,5	-0,976
1287,85	-1	-1,105
1289,92	-1	-1,213
1292,002	-1,5	-1,36
1294,077	-2	-1,502
1296,147	-3,5	-1,734
1298,217	-4	-1,946
1300,287	-6	-2,165
1302,357	-6,5	-2,353
1304,427	-9	-2,598
1306,503	-10,5	-2,852
1308,573	-12,5	-3,026
1310,648	-13,5	-3,264
1312,724	-14	-3,462
1314,794	-14	-3,499
1316,87	-14	-3,499
1318,94	-14	-3,498
1321,016	-13,5	-3,497
1323,092	-14	-3,496
1325,168	-14	-3,494
1327,238	-13,5	-3,487
1329,313	-13,5	-3,473
1331,389	-13	-3,448
1333,459	-11,5	-3,365
1335,529	-9,5	-3,217
1337,605	-8	-3,019
1339,675	-7,5	-2,805
1341,751	-6	-2,615
1343,821	-5	-2,423
1345,896	-3,5	-2,064
1347,966	-2,5	-1,871
1350,042	-2,5	-1,694
1352,112	-1,5	-1,5
1354,182	-1,5	-1,318
1356,252	-1	-1,088
1358,328	-0,5	-0,936
1360,398	0	-0,755
1362,474	0,5	-0,586
1364,543	3	-0,28
1366,613	3	-0,009
1368,689	2,5	-0,001
1370,765	2,5	-0,001
1372,841	3	-0,002
1374,911	3	-0,005
1376,987	3	-0,01
1379,057	2,5	-0,02
1381,133	2,5	-0,035
1383,202	2	-0,067
1385,284	1,5	-0,121
1387,36	1	-0,244
1389,436	0,5	-0,489
1391,5	0	-0,84
1393,576	-0,5	-0,996
1395,646	-1,5	-1,344
1397,722	-3	-1,618
1399,797	-5	-2,127
1401,873	-6,5	-2,341
1403,943	-9	-2,624
1406,013	-12	-3,009
1408,083	-14	-3,414
1410,159	-14	-3,499
1412,235	-14	-3,498
1414,317	-14	-3,492
1416,386	-13,5	-3,465
1418,462	-12	-3,417
1420,538	-10	-3,256
1422,614	-7,5	-2,921
1424,684	-6	-2,707
1426,76	-4,5	-2,397
1428,83	-3,5	-2,134
1430,906	-3	-1,897
1432,976	-2,5	-1,71
1435,051	-1,5	-1,419
1437,127	-1	-1,215
1439,209	-0,5	-0,944
1441,279	0,5	-0,613
1443,355	2	-0,385
1445,425	3	-0,108
1447,501	3	0
1449,577	3	-0,001
1451,646	3	-0,003
1453,716	3	-0,008
1455,786	2,5	-0,023
1457,856	2	-0,044
1459,932	2	-0,08
1462,002	1	-0,182
1464,078	0	-0,443
1466,148	0	-0,806
1468,223	-0,5	-0,958
1470,293	-1	-1,188
1472,363	-1,5	-1,412
1474,433	-3,5	-1,844
1476,509	-4,5	-2,102
1478,585	-6	-2,358
1480,655	-8	-2,563
1482,731	-10	-2,778
1484,801	-11,5	-2,994
1486,882	-13	-3,142
1488,952	-14	-3,483
1491,034	-13,5	-3,499
1493,104	-13,5	-3,499
1495,186	-14	-3,497
1497,256	-14	-3,494
1499,332	-13,5	-3,488
1501,396	-13,5	-3,468
1503,477	-12,5	-3,437
1505,541	-10,5	-3,292
1507,617	-8	-2,99
1509,687	-6,5	-2,761
1511,757	-4,5	-2,44
1513,827	-3,5	-2,158
1515,897	-3	-1,948
1517,967	-2	-1,644
1520,037	-1,5	-1,319
1522,112	-1	-1,066
1524,188	-0,5	-0,866
1526,264	0	-0,671
1528,334	2,5	-0,346
1530,404	3	-0,031
1532,48	2,5	-0,001
1534,55	2,5	-0,002
1536,62	3	-0,005
1538,689	2,5	-0,013
1540,765	2,5	-0,032
1542,841	2	-0,06
1544,917	1,5	-0,128
1546,987	0,5	-0,334
1549,057	0,5	-0,512
1551,127	0	-0,776
1553,197	-0,5	-1,08
1555,278	-1	-1,209
1557,348	-2,5	-1,481
1559,424	-3	-1,728
1561,494	-5	-2,021
1563,57	-6,5	-2,244
1565,64	-7,5	-2,462
1567,71	-9,5	-2,697
1569,786	-11,5	-2,908
1571,856	-13	-3,143
1573,925	-13,5	-3,344
1576,001	-13,5	-3,499
1578,077	-13,5	-3,499
1580,153	-13,5	-3,498
1582,229	-13,5	-3,496
1584,305	-13,5	-3,494
1586,375	-13,5	-3,488
1588,451	-13,5	-3,478
1590,521	-12,5	-3,45
1592,596	-12	-3,415
1594,672	-9	-3,273
1596,742	-7,5	-3,02
1598,818	-7	-2,857
1600,888	-5	-2,521
1602,964	-4,5	-2,364
1605,04	-3,5	-2,18
1607,116	-3	-2,039
1609,185	-2,5	-1,82
1611,255	-1,5	-1,574
1613,331	-1,5	-1,385
1615,401	-1	-1,134
1617,483	-0,5	-0,922
1619,559	0,5	-0,668
1621,629	2,5	-0,374
1623,711	2,5	-0,206
1625,781	3	0
1627,85	3	-0,001
1629,926	3	-0,003
1632,002	3	-0,006
1634,078	3	-0,012
1636,148	3	-0,024
1638,224	2,5	-0,048
1640,294	1,5	-0,114
1642,364	1	-0,24
1644,445	0,5	-0,448
1646,515	0	-0,73
1648,591	-0,5	-0,968
1650,661	-1	-1,165
1652,731	-1,5	-1,426
1654,807	-3	-1,643
1656,877	-4,5	-1,958
1658,941	-7	-2,254
1661,01	-8,5	-2,649
1663,086	-10,5	-2,816
1665,162	-13	-3,086
1667,232	-13,5	-3,439
1669,308	-13,5	-3,499
1671,384	-13,5	-3,498
1673,46	-13,5	-3,497
1675,53	-13,5	-3,495
1677,6	-13,5	-3,487
1679,669	-13	-3,47
1681,739	-12	-3,422
1683,815	-10,5	-3,33
1685,885	-8,5	-3,172
1687,955	-7,5	-2,91
1690,031	-6	-2,662
1692,101	-4,5	-2,396
1694,177	-3,5	-2,138
1696,246	-2,5	-1,843
1698,322	-1,5	-1,554
1700,392	-1	-1,249
1702,468	-0,5	-0,948
1704,544	0	-0,78
1706,614	1,5	-0,507
1708,69	2,5	-0,208
1710,754	2,5	0
1712,824	3	-0,002
1714,906	3	-0,005
1716,975	2,5	-0,012
1719,045	2,5	-0,036
1721,121	2	-0,065
1723,197	1,5	-0,15
1725,267	0,5	-0,353
1727,343	0	-0,653
1729,413	-0,5	-0,924
1731,488	-1	-1,214
1733,558	-2	-1,488
1735,634	-3	-1,714
1737,71	-3	-1,808
1775,922	-1	-1,249
1777,992	-2	-1,45
1780,068	-2,5	-1,709
1782,138	-4	-1,906
1784,213	-5,5	-2,128
1786,289	-6	-2,28
1788,365	-7	-2,469
1790,435	-9,5	-2,714
1792,511	-11	-2,931
1794,575	-13,5	-3,218
1796,651	-13,5	-3,396
1798,727	-13,5	-3,5
1800,796	-13,5	-3,499
1802,866	-13,5	-3,498
1804,942	-13	-3,496
1807,018	-13,5	-3,494
1809,088	-13,5	-3,487
1811,17	-13	-3,475
1813,24	-12,5	-3,45
1815,316	-11	-3,393
1817,38	-9	-3,252
1819,449	-8	-3,019
1821,525	-6,5	-2,83
1823,595	-5	-2,531
1825,665	-4	-2,274
1827,741	-3	-2,022
1829,805	-2,5	-1,719
1831,875	-1,5	-1,503
1833,951	-1	-1,268
1836,032	-0,5	-1,146
1838,108	-0,5	-0,925
1840,178	1,5	-0,583
1842,248	3	-0,256
1844,318	3	0
1846,394	3	-0,001
1848,464	3	-0,003
1850,54	3	-0,004
1852,61	3	-0,008
1854,685	3	-0,015
1856,761	2,5	-0,033
1858,831	2	-0,076
1860,901	1,5	-0,154
1862,971	0,5	-0,354
1865,041	0	-0,636
1867,111	0	-0,829
1869,187	-0,5	-1,081
1871,256	-1,5	-1,312
1873,332	-2	-1,515
1875,408	-3	-1,705
1877,484	-3,5	-1,932
1879,566	-5	-2,169
1881,636	-7,5	-2,47
1883,706	-9,5	-2,758
1885,782	-10,5	-2,878
1887,858	-11,5	-3,046
1889,927	-13,5	-3,231
1892,009	-13,5	-3,433
1894,079	-13,5	-3,499
1896,149	-13,5	-3,499
1898,225	-13,5	-3,498
1900,301	-13,5	-3,497
1902,371	-13,5	-3,494
1904,447	-13,5	-3,487
1906,522	-13	-3,472
1908,592	-12	-3,446
1910,668	-11,5	-3,403
1912,738	-10	-3,281
1914,808	-7,5	-3,022
1916,884	-6,5	-2,859
1918,954	-5,5	-2,546
1921,024	-4	-2,33
1923,094	-3,5	-2,096
1925,163	-2,5	-1,823
1927,245	-1,5	-1,658
1929,315	-1,5	-1,45
1931,391	-1	-1,25
1933,467	-1	-1,147
1935,537	-0,5	-0,98
1937,607	0	-0,792
1939,683	0,5	-0,636
1941,752	1,5	-0,422
1943,822	2,5	-0,184
1945,898	3	-0,027
1947,974	2,5	0
1950,044	2,5	-0,001
1952,12	3	-0,002
1954,184	2,5	-0,005
1956,254	3	-0,011
1958,329	2,5	-0,02
1960,399	2,5	-0,033
1962,469	2	-0,062
1964,557	1,5	-0,113
1966,627	1,5	-0,221
1968,703	0	-0,492
1970,773	0	-0,737
1972,849	-0,5	-0,974
1974,919	-1	-1,252
1976,988	-2	-1,535
1979,07	-2,5	-1,741
1981,14	-4	-1,971
1983,21	-4,5	-2,191
1985,28	-6	-2,325
1987,356	-7	-2,524
1989,426	-10	-2,808
1991,496	-11,5	-3,018
1993,572	-13	-3,316
1995,641	-13	-3,498
1997,717	-13	-3,499
1999,787	-13,5	-3,498
2001,857	-13,5	-3,497
2003,927	-13,5	-3,494
2006,003	-13	-3,49
2008,073	-13	-3,478
2010,142	-12	-3,447
2012,218	-11	-3,382
2014,294	-9,5	-3,239
2016,364	-7,5	-2,987
2018,428	-6	-2,68
2020,504	-4,5	-2,411
2022,574	-3,5	-2,133
2024,656	-3	-1,926
2026,726	-2	-1,606
2028,795	-1,5	-1,361
2030,871	-1	-1,145
2032,941	0	-0,792
2035,011	1	-0,5
2037,087	2,5	-0,217
2039,157	3	0
2041,227	3	-0,002
2043,297	3	-0,005
2045,373	2,5	-0,012
2047,442	3	-0,026
2049,512	2,5	-0,068
2051,582	1,5	-0,148
2053,658	1	-0,327
2055,74	0	-0,498
2057,81	0	-0,823
2059,886	-0,5	-1,129
2061,956	-1	-1,343
2064,032	-2	-1,499
2066,107	-3	-1,709
2068,177	-5	-1,982
2070,253	-6	-2,225
2072,335	-7	-2,448
2074,405	-8,5	-2,672
2076,475	-11,5	-2,971
2078,545	-13	-3,212
2080,62	-13,5	-3,476
2082,696	-13	-3,499
2084,766	-13	-3,498
2086,842	-13,5	-3,496
2088,906	-13	-3,491
2090,982	-12,5	-3,478
2093,058	-12,5	-3,462
2095,128	-11,5	-3,418
2097,198	-9	-3,28
2099,273	-7,5	-3,018
2101,337	-5	-2,641
2103,407	-4	-2,442
2105,483	-3,5	-2,28
2107,553	-3	-2,052
2109,629	-2,5	-1,862
2111,699	-1,5	-1,578
2113,769	-1	-1,354
2115,852	-0,5	-1,211
2117,92	-0,5	-0,997
2119,99	-0,5	-0,91
2122,06	1	-0,671
2124,136	2	-0,449
2126,206	3	-0,159
2128,276	3	-0,027
2130,352	2,5	-0,001
2132,428	3	-0,001
2134,497	2,5	-0,003
2136,567	3	-0,006
2138,643	3	-0,01
2140,713	2,5	-0,018
2142,789	2,5	-0,031
2144,865	2	-0,072
2146,935	1	-0,169
2148,999	0	-0,446
2151,075	0	-0,688
2153,144	-0,5	-0,993
2155,214	-1,5	-1,27
2157,284	-1,5	-1,48
2159,36	-3	-1,716
2161,43	-4	-1,989
2163,5	-5	-2,277
2165,57	-7,5	-2,485
2167,652	-9,5	-2,735
2169,715	-12,5	-3,07
2171,785	-13	-3,373
2173,861	-13	-3,499
2175,931	-13	-3,499
2178,001	-13	-3,497
2180,089	-13	-3,496
2182,159	-13	-3,492
2184,229	-12,5	-3,481
2186,298	-12,5	-3,457
2188,374	-11,5	-3,434
2190,444	-10	-3,35
2192,514	-7,5	-3,1
2194,59	-6	-2,89
2196,66	-5	-2,607
2198,73	-3,5	-2,256
2200,8	-3	-1,999
2202,876	-2	-1,736
2204,945	-1,5	-1,404
2207,021	-1	-1,157
2209,091	0	-0,887
2211,167	0,5	-0,642
2213,237	2	-0,412
2215,307	3	-0,205
2217,383	3	-0,001
2219,453	3	-0,002
2221,522	3	-0,004
2223,604	3	-0,007
2225,674	3	-0,011
2227,744	3	-0,021
2229,814	2,5	-0,038
2231,896	2	-0,061
2233,966	1,5	-0,093
2236,036	1,5	-0,235
2238,112	0,5	-0,386
2240,181	0	-0,589
2242,251	0	-0,835
2244,327	-0,5	-1,072
2246,403	-1	-1,282
2248,473	-1	-1,427
2250,549	-2	-1,616
2252,625	-3	-1,842
2254,695	-4	-2,088
2256,764	-6	-2,307
2258,84	-8	-2,634
2260,91	-10,5	-2,874
2262,986	-12,5	-3,13
2265,056	-12,5	-3,296
2267,132	-13	-3,5
2269,196	-13	-3,499
2271,266	-13	-3,498
2273,341	-13	-3,496
2275,417	-12,5	-3,494
2277,487	-12,5	-3,49
2279,557	-12,5	-3,48
2281,633	-12,5	-3,462
2283,703	-11,5	-3,426
2285,773	-10,5	-3,351
2287,843	-8,5	-3,217
2289,913	-8	-3,064
2291,982	-6	-2,792
2294,052	-5	-2,552
2296,122	-4	-2,337
2298,198	-3	-2,185
2300,268	-2,5	-1,95
2302,338	-1,5	-1,646
2304,414	-1,5	-1,388
2306,484	-1	-1,132
2308,553	-0,5	-0,853
2310,623	0,5	-0,661
2312,687	3	-0,184
2314,757	3	0
2316,827	3	-0,002
2318,897	3	-0,004
2320,973	3	-0,011
2323,043	2,5	-0,021
2325,113	2,5	-0,048
2327,188	2	-0,093
2329,258	1	-0,186
2331,334	0,5	-0,44
2333,398	0	-0,688
2335,474	-0,5	-1,001
2337,544	-1	-1,248
2339,614	-2	-1,583
2341,69	-3,5	-1,954
2343,759	-5,5	-2,279
2345,829	-8	-2,652
2347,893	-10,5	-2,976
2349,969	-12,5	-3,28
2352,045	-12,5	-3,5
2354,115	-12,5	-3,499
2356,185	-12,5	-3,497
2358,261	-12,5	-3,493
2360,337	-12	-3,481
2362,406	-11,5	-3,44
2364,482	-9,5	-3,348
2366,552	-7,5	-3,052
2368,622	-5,5	-2,764
2370,692	-4,5	-2,47
2372,768	-3,5	-2,249
2374,844	-2,5	-1,987
2376,914	-1,5	-1,745
2378,983	-1	-1,516
2381,065	-1	-1,229
2383,135	-0,5	-1,02
2385,205	0	-0,716
2387,275	1,5	-0,471
2389,351	3	-0,242
2391,427	3	-0,019
2393,497	3	-0,001
2395,572	3	-0,003
2397,648	3	-0,007
2399,718	2,5	-0,018
2401,788	2,5	-0,062
2403,858	1,5	-0,139
2405,934	0,5	-0,329
2408,01	0	-0,73
2410,08	0	-0,959
2412,15	-2	-1,647
2414,225	-3	-1,91
2416,301	-4,5	-2,184
2418,371	-5,5	-2,414
2420,441	-8	-2,713
2422,517	-11,5	-3,106
2424,593	-12	-3,361
2426,663	-12	-3,499
2428,739	-12	-3,498
2430,808	-12	-3,496
2432,878	-12	-3,493
2434,954	-12	-3,485
2437,03	-11,5	-3,459
2439,1	-9	-3,309
2441,17	-7	-3
2443,24	-4,5	-2,573
2445,316	-3	-2,182
2447,386	-2	-1,729
2449,455	-1	-1,324
2451,519	0	-0,928
2453,595	1,5	-0,518
2455,665	3	-0,015
2457,735	3	-0,002
2459,811	2,5	-0,012
2461,881	3	-0,019
2463,951	2,5	-0,029
2466,02	2	-0,072
2468,096	1,5	-0,156
2470,166	0,5	-0,326
2472,236	0	-0,65
2474,306	0	-0,908
2476,382	-0,5	-1,188
2478,452	-1,5	-1,571
2480,522	-3,5	-2,083
2482,591	-7	-2,6
2484,667	-9	-2,831
2486,737	-11,5	-3,089
2488,813	-12	-3,396
2490,883	-12	-3,5
2492,953	-12	-3,499
2495,035	-12	-3,497
2497,105	-12	-3,492
2499,175	-11,5	-3,472
2501,25	-10,5	-3,434
2503,32	-10	-3,341
2505,39	-6,5	-3,006
2507,466	-5	-2,673
2509,536	-3,5	-2,348
2511,606	-2	-1,873
2513,67	-1,5	-1,557
2515,746	-1	-1,27
2517,822	0	-0,831
2519,891	1	-0,575
2521,961	2,5	-0,263
2524,031	3	0
2526,113	3	-0,001
2528,183	3	-0,002
2530,253	2,5	-0,007
2532,323	3	-0,01
2534,399	2,5	-0,018
2536,474	2,5	-0,04
2538,544	2	-0,078
2540,62	1,5	-0,128
2542,696	1	-0,361
2544,766	0	-0,634
2546,836	0	-0,858
2548,912	-0,5	-1,137
2550,982	-1	-1,463
2553,052	-3	-1,895
2555,133	-4	-2,155
2557,209	-5,5	-2,434
2559,279	-7,5	-2,698
2561,349	-10	-2,98
2563,425	-12	-3,36
2565,501	-12	-3,5
2567,571	-12	-3,499
2569,641	-12	-3,498
2571,71	-12	-3,495
2573,786	-12	-3,491
2575,862	-11,5	-3,481
2577,932	-10,5	-3,444
2580,008	-9	-3,365
2582,084	-7,5	-3,215
2584,166	-5	-2,818
2586,236	-4,5	-2,593
2588,305	-3	-2,332
2590,381	-2,5	-2,106
2592,451	-1,5	-1,759
2594,521	-1	-1,434
2596,591	-0,5	-1,071
2598,667	0	-0,946
2600,737	0,5	-0,684
2602,813	1,5	-0,484
2604,883	3	-0,263
2606,958	2,5	-0,108
2609,028	2,5	-0,001
2611,104	2,5	-0,002
2613,174	2,5	-0,005
2615,244	2,5	-0,011
2617,322	2,5	-0,023
2619,39	2,5	-0,047
2621,46	1,5	-0,082
2623,535	1,5	-0,134
2625,611	1	-0,214
2627,687	0,5	-0,425
2629,757	0	-0,677
2631,827	-0,5	-1,018
2633,897	-1	-1,296
2635,979	-1,5	-1,482
2638,049	-2	-1,728
2640,124	-3,5	-1,97
2642,2	-5	-2,244
2644,27	-6	-2,491
2646,34	-9	-2,814
2648,416	-10,5	-3,025
2650,486	-12	-3,281
2652,562	-12	-3,5
2654,632	-12	-3,499
2656,696	-12	-3,496
2658,771	-12	-3,489
2660,853	-12	-3,48
2662,923	-10,5	-3,436
2664,993	-9,5	-3,387
2667,063	-7,5	-3,24
2669,133	-6,5	-3,041
2671,209	-5	-2,72
2673,279	-2,5	-2,176
2675,349	-2,5	-1,989
2677,424	-1,5	-1,726
2679,494	-1	-1,401
2681,57	-0,5	-0,992
2683,64	1	-0,681
2685,716	2	-0,424
2687,786	2,5	-0,169
2689,856	3	-0,001
2691,932	3	-0,001
2693,995	3	-0,003
2696,065	2,5	-0,006
2698,135	2,5	-0,012
2700,211	2,5	-0,027
2702,281	2	-0,069
2704,351	1	-0,208
2706,421	0	-0,532
2708,485	0	-0,823
2710,561	-0,5	-1,177
2712,63	-1	-1,434
2714,694	-2	-1,719
2716,758	-3,5	-2,022
2718,84	-5,5	-2,383
2720,916	-8	-2,695
2722,986	-9,5	-2,952
2725,056	-12	-3,5
2727,126	-12	-3,499
2729,201	-12	-3,496
2731,271	-12	-3,486
2733,341	-10,5	-3,446
2735,411	-8	-3,214
2737,481	-5,5	-2,906
2739,551	-4,5	-2,665
2741,621	-3	-2,18
2743,691	-1,5	-1,599
2745,76	-0,5	-1,246
2747,836	0,5	-0,681
2749,906	2,5	-0,133
2751,976	3	-0,001
2754,046	2,5	-0,006
2756,122	3	-0,032
2758,192	1,5	-0,108
2760,262	0,5	-0,468
2762,332	0	-0,92
2764,407	-0,5	-1,099
2766,477	-1,5	-1,505
2768,547	-3	-1,921
2770,617	-5	-2,273
2772,687	-6,5	-2,593
2774,763	-9	-2,921
2776,827	-11,5	-3,225
2778,903	-11,5	-3,327
2780,972	-11,5	-3,5
2783,042	-11,5	-3,498
2785,112	-11,5	-3,495
2787,182	-11,5	-3,49
2789,258	-10,5	-3,458
2791,328	-9	-3,345
2793,398	-6	-3,005
2795,474	-4	-2,635
2797,55	-3	-2,216
2799,619	-2	-1,817
2801,689	-1	-1,522
2803,753	-0,5	-1,305
2805,829	0	-0,952
2807,905	0	-0,688
2809,975	3	-0,372
2812,045	3	-0,009
2814,121	3	-0,002
2816,19	3	-0,008
2818,26	3	-0,025
2820,33	2	-0,087
2822,4	1	-0,356
2824,476	0	-0,784
2826,546	-0,5	-1,158
2828,616	-1,5	-1,504
2830,686	-3	-2,006
2832,762	-5	-2,45
2834,831	-9,5	-2,989
2836,901	-11	-3,5
2838,977	-11	-3,499
2841,047	-11	-3,496
2843,123	-11	-3,487
2845,199	-10,5	-3,442
2847,269	-9	-3,364
2849,339	-6,5	-3,089
2851,408	-4,5	-2,705
2853,484	-2,5	-2,192
2855,554	-1,5	-1,791
2857,624	-1	-1,456
2859,694	0	-1,061
2861,77	1	-0,696
2863,84	3	-0,24
2865,916	3	0
2867,985	3	-0,001
2870,061	3	-0,003
2872,131	3	-0,006
2874,207	3	-0,013
2876,277	3	-0,032
2878,347	2,5	-0,063
2880,417	2	-0,141
2882,487	1	-0,392
2884,557	0,5	-0,628
2886,638	0	-0,774
2888,708	0	-0,946
2890,778	0	-1,188
2892,848	-1	-1,428
2894,924	-2	-1,749
2896,994	-3	-2,038
2899,064	-5	-2,405
2901,14	-6	-2,626
2903,209	-9	-2,942
2905,279	-11	-3,289
2907,349	-11	-3,5
2909,419	-11	-3,499
2911,495	-11	-3,498
2913,571	-11	-3,496
2915,641	-11	-3,49
2917,711	-11	-3,471
2919,781	-10	-3,427
2921,85	-8,5	-3,296
2923,92	-6	-3,022
2925,99	-5,5	-2,866
2928,06	-4,5	-2,582
2930,13	-3	-2,295
2932,206	-2,5	-2,111
2934,276	-2	-1,866
2936,346	-1,5	-1,582
2938,415	-1,5	-1,48
2940,491	-0,5	-1,148
2942,561	-0,5	-0,954
2944,625	0	-0,828
2946,701	0,5	-0,682
2948,771	1	-0,515
2950,847	2,5	-0,341
2952,917	3	-0,114
2954,987	3	0
2957,056	3	-0,001
2959,132	3	-0,001
2961,208	3	-0,004
2963,278	3	-0,014
2965,348	3	-0,04
2967,418	2	-0,094
2969,494	2	-0,099
2971,564	1	-0,248
2973,633	0	-0,693
2975,703	0	-0,983
2977,779	-0,5	-1,267
2979,849	-1,5	-1,657
2981,919	-2,5	-1,896
2983,989	-3	-2,115
2986,065	-4,5	-2,358
2988,141	-5,5	-2,547
2990,211	-7,5	-2,85
2992,28	-10	-3,141
2994,35	-10,5	-3,401
2996,426	-10,5	-3,5
2998,496	-10,5	-3,499
3000,566	-10,5	-3,497
3002,636	-10,5	-3,492
3004,712	-10,5	-3,477
3006,782	-10	-3,457
3008,851	-8,5	-3,389
3010,927	-6	-3,047
3012,997	-4	-2,588
3015,079	-2,5	-2,174
3017,149	-1,5	-1,789
3019,219	-1	-1,374
3021,289	-0,5	-1,187
3023,365	0	-0,8
3025,435	2	-0,444
3027,504	3	-0,154
3029,574	2,5	-0,001
3031,644	2,5	-0,003
3033,72	3	-0,014
3035,814	2,5	-0,029
3037,884	2,5	-0,054
3039,954	2	-0,067
3042,03	1,5	-0,147
3044,099	1	-0,499
3046,169	0	-0,741
3048,239	0	-1,098
3050,309	-0,5	-1,44
3052,379	-1,5	-1,808
3054,455	-2,5	-2,119
3056,519	-4,5	-2,501
3058,589	-5	-2,655
3060,664	-8	-3,059
3062,74	-9,5	-3,5
3064,81	-9,5	-3,499
3066,874	-10	-3,496
3068,944	-9,5	-3,491
3071,014	-9	-3,475
3073,084	-9	-3,443
3075,16	-7	-3,379
3113,383	-3,5	-2,748
3115,453	-2,5	-2,423
3117,523	-2	-2,216
3119,599	-1,5	-2,096
3121,669	-1	-1,834
3123,739	-1	-1,603
3125,809	-0,5	-1,193
3127,879	0	-0,911
3129,955	1	-0,673
3132,03	3	-0,237
3134,1	3	-0,001
3136,176	3	-0,002
3138,246	3	-0,008
3140,322	3	-0,016
3142,392	2,5	-0,035
3144,462	1,5	-0,137
3146,532	1	-0,397
3148,601	0,5	-0,616
3150,677	0,5	-0,98
3152,747	0	-1,204
3154,817	0	-1,584
3156,887	-1	-1,861
3158,963	-1	-1,955
3161,033	-2,5	-2,265
3163,109	-3,5	-2,496
3165,179	-4	-2,656
3167,248	-6	-2,909
3169,324	-6,5	-3,001
3171,394	-7,5	-3,227
3173,458	-8	-3,475
3175,528	-8	-3,5
3177,598	-8	-3,499
3179,68	-7,5	-3,498
3181,75	-7,5	-3,496
3182,901	3	-0,001