File: ensaios_Ciclicos/_40perc/_2gap/entrada/_3.txt
Time (s)	Load (N)	Displacement (mm)
36,309	-15	-3,067
37,461	0,5	-0,098
38,619	-22,5	-3,482
39,771	1,5	-0,004
40,929	-22,5	-3,5
42,081	0,5	-0,42
43,233	-15,5	-2,545
44,391	-5	-1,466
45,543	-7,5	-1,565
46,695	-11,5	-2,492
47,846	-1,5	-0,539
49,01	-18	-3,408
50,168	1,5	-0,021
51,326	-22	-3,497
52,478	1,5	-0,007
53,636	-18,5	-2,93
54,788	-3,5	-1,099
55,946	-10,5	-1,86
57,11	-9,5	-2,22
58,268	-2,5	-0,775
59,426	-17,5	-3,285
60,596	1,5	-0,042
61,748	-21,5	-3,492
62,899	1,5	-0,002
64,063	-21,5	-3,418
65,221	0	-0,62
66,385	-13	-2,318
67,543	-5,5	-1,624
68,701	-6	-1,34
69,865	-12	-2,696
71,029	-0,5	-0,262
72,187	-20	-3,449
73,351	2	-0,01
74,509	-21,5	-3,498
75,668	1,5	-0,019
76,825	-19,5	-2,954
77,995	-3,5	-1,166
79,159	-9	-1,815
80,322	-9	-2,258
81,475	-2,5	-0,789
82,626	-15,5	-3,218
83,79	1	-0,052
84,96	-21,5	-3,49
86,118	1,5	-0,002
87,276	-21	-3,482
88,44	0,5	-0,566
89,598	-13,5	-2,413
90,756	-5	-1,597
91,92	-5	-1,27
93,078	-12	-2,734
94,236	0	-0,195
95,394	-20	-3,456
96,558	2	-0,008
97,71	-21	-3,498
98,867	1,5	-0,138
100,019	-17,5	-2,83
101,177	-3,5	-1,156
102,352	-8	-1,724
103,511	-9	-2,357
104,675	-1	-0,522
105,827	-17,5	-3,378
106,997	1,5	-0,017
108,155	-21	-3,496
109,313	1,5	-0,001
110,477	-20,5	-3,19
111,629	-0,5	-0,766
112,799	-11,5	-2,168
113,957	-6	-1,838
115,115	-3,5	-1,077
116,279	-13,5	-2,973
117,436	1	-0,112
118,6	-20	-3,477
119,758	2	-0,004
120,916	-20,5	-3,499
122,086	1,5	-0,406
123,252	-14,5	-2,553
124,408	-4	-1,504
125,572	-5,5	-1,448
126,73	-10	-2,569
127,888	-0,5	-0,368
129,041	-17,5	-3,389
130,204	2	-0,019
131,362	-20	-3,495
132,52	2	-0,001
133,684	-20	-3,247
134,841	0	-0,746
135,993	-11	-2,212
137,169	-5,5	-1,821
138,339	-3,5	-1,049
139,503	-13,5	-3,019
140,673	1,5	-0,077
141,833	-20	-3,486
142,989	2	-0,002
144,147	-20	-3,5
217,991	-13,5	-2,63
219,155	-3,5	-1,416
220,318	-5,5	-1,464
221,488	-9,5	-2,528
222,652	0	-0,405
223,81	-17	-3,41
224,968	2,5	-0,012
226,126	-19,5	-3,497
227,29	2,5	-0,007
228,454	-16	-2,894
229,612	-2,5	-1,062
230,776	-7,5	-1,875
231,94	-6,5	-2,132
233,11	-1	-0,764
234,274	-14,5	-3,222
235,45	2	-0,039
236,607	-19	-3,491
237,759	2,5	-0,002
238,921	-19	-3,306
240,081	0	-0,722
241,245	-10	-2,207
242,409	-5	-1,812
243,573	-3	-1,124
244,731	-11,5	-2,848
245,889	1	-0,152
247,053	-18,5	-3,465
248,207	2,5	-0,007
249,369	-19	-3,499
250,539	2,5	-0,237
251,697	-15	-2,749
252,855	-3	-1,209
254,019	-6,5	-1,746
255,183	-7,5	-2,263
256,34	-1	-0,699
257,51	-14,5	-3,3
258,668	2,5	-0,04
259,834	-19	-3,493
260,99	2,5	-0,001
262,148	-19	-3,444
263,306	0	-0,644
264,47	-11	-2,318
265,634	-4,5	-1,646
266,792	-3,5	-1,29
267,956	-10,5	-2,755
269,114	0,5	-0,221
270,272	-17,5	-3,455
271,436	2,5	-0,008
272,606	-19	-3,499
273,769	2,5	-0,007
274,927	-16,5	-2,968
276,085	-1,5	-0,992
277,243	-7,5	-1,961
278,401	-6	-2,047
279,571	-1,5	-0,88
280,735	-13	-3,155
281,893	2	-0,063
283,063	-19	-3,486
284,221	2,5	-0,003
285,391	-19	-3,497
286,555	1	-0,542
287,725	-10	-2,306
288,895	-4,5	-1,737
290,059	-3	-1,2
400,14	2	-0,262
401,298	-12,5	-2,655
402,462	-3	-1,294
403,62	-5,5	-1,606
404,778	-7,5	-2,353
405,942	0	-0,494
407,106	-15,5	-3,394
408,264	2,5	-0,016
409,428	-18	-3,496
410,592	2,5	0
411,75	-17	-3,078
412,919	-1,5	-0,988
414,077	-7	-1,943
415,241	-5,5	-2,025
416,405	-1,5	-0,887
417,563	-12,5	-3,118
418,721	1,5	-0,074
419,885	-18	-3,484
421,043	2,5	-0,004
422,207	-18	-3,5
423,371	1,5	-0,461
424,535	-10,5	-2,471
425,699	-3,5	-1,538
426,863	-3,5	-1,378
428,021	-9	-2,574
429,191	0	-0,34
430,348	-16	-3,426
431,512	2,5	-0,011
432,67	-18	-3,498
433,828	2,5	-0,005
434,992	-13,5	-2,82
436,15	-2	-1,122
437,314	-5,5	-1,758
438,466	-6	-2,212
439,624	-0,5	-0,707
440,794	-14	-3,271
441,952	2	-0,038
443,116	-18	-3,492
444,274	2,5	-0,001
445,444	-18	-3,27
446,608	0	-0,746
447,766	-9	-2,194
448,935	-4,5	-1,791
450,087	-2,5	-1,19
451,245	-10	-2,778
452,409	1	-0,155
453,567	-17	-3,454
454,731	2,5	-0,006
455,895	-18	-3,499
457,054	2,5	-0,103
458,211	-13,5	-2,815
459,381	-2,5	-1,256
460,539	-5	-1,664
461,703	-7	-2,308
462,861	0	-0,575
464,02	-15	-3,366
465,176	2,5	-0,025
466,334	-18	-3,495
467,492	2,5	-0,001
468,65	-16	-3,089
469,808	-1,5	-0,932
470,966	-7,5	-2,019
472,124	-5	-1,981
473,288	-1,5	-0,904
474,452	-12	-3,085
475,604	1,5	-0,079
476,768	-17,5	-3,485
477,926	2,5	-0,003
479,084	-18	-3,5
480,242	1	-0,512
481,4	-10,5	-2,444
482,558	-3,5	-1,55
483,722	-3	-1,328
484,885	-8,5	-2,642
486,044	0	-0,28
487,201	-15	-3,441
488,365	2,5	-0,01
489,535	-17,5	-3,498
490,693	2,5	-0,108
491,851	-13	-2,786
493,015	-2,5	-1,233
494,179	-5	-1,625
495,337	-7	-2,332
496,501	0	-0,588
497,659	-14,5	-3,341
498,817	2,5	-0,024
499,986	-17,5	-3,496
501,144	2,5	0
502,302	-17,5	-3,01
503,46	-1,5	-0,947
504,618	-6,5	-1,962
505,782	-5,5	-2,086
506,94	-1	-0,847
689,348	-17	-3,451
690,506	1	-0,558
691,67	-10	-2,434
692,827	-3	-1,535
693,985	-3	-1,364
695,143	-8	-2,625
696,301	0,5	-0,321
697,465	-15	-3,436
698,623	3	-0,01
699,781	-16,5	-3,498
700,939	2,5	-0,037
702,097	-14	-2,921
703,255	-1,5	-1,073
704,413	-5,5	-1,82
705,577	-5,5	-2,183
706,729	-0,5	-0,75
707,887	-12	-3,244
709,05	2,5	-0,037
710,208	-16,5	-3,491
711,372	2,5	-0,001
712,53	-16,5	-3,167
713,688	0	-0,796
714,852	-7	-2,06
716,01	-4	-1,922
717,174	-1,5	-0,967
718,338	-10,5	-3,021
719,496	2	-0,075
720,654	-16,5	-3,484
721,812	3	-0,003
722,97	-16,5	-3,499
724,128	1,5	-0,512
725,298	-9	-2,343
726,455	-3,5	-1,647
727,613	-2,5	-1,262
728,771	-8,5	-2,75
729,929	0,5	-0,196
731,087	-15,5	-3,46
732,251	2,5	-0,007
733,415	-17	-3,498
734,573	2,5	-0,126
735,731	-14	-2,837
736,895	-2	-1,209
738,053	-4,5	-1,733
739,217	-5,5	-2,267
740,369	-0,5	-0,647
741,527	-12,5	-3,282
742,685	2,5	-0,031
743,843	-16,5	-3,493
745,006	2,5	-0,001
746,164	-16,5	-3,175
747,322	-0,5	-0,801
748,48	-7	-2,07
749,638	-4,5	-1,903
750,796	-1,5	-1,012
751,954	-10,5	-2,993
753,118	1,5	-0,078
754,276	-16,5	-3,484
755,434	2,5	-0,003
756,592	-16,5	-3,499
757,75	1,5	-0,542
758,908	-9	-2,356
760,066	-3	-1,58
761,224	-3	-1,303
762,381	-8,5	-2,734
763,539	1	-0,177
764,697	-16	-3,467
765,861	3	-0,005
767,025	-16,5	-3,499
768,183	2,5	-0,34
769,341	-10,5	-2,528
770,499	-2,5	-1,468
771,657	-3	-1,441
772,815	-7,5	-2,622
773,973	0,5	-0,293
775,131	-15,5	-3,438
776,289	3	-0,01
777,447	-16,5	-3,498
778,605	2,5	-0,06
779,763	-13	-2,799
780,926	-1,5	-1,188
782,084	-4,5	-1,7
783,242	-5,5	-2,221
784,4	-0,5	-0,695
785,564	-12	-3,273
786,722	2	-0,051
787,88	-16,5	-3,489
789,044	3	-0,002
790,202	-16,5	-3,491
791,362	1,5	-0,465
792,524	-10	-2,506
793,682	-2,5	-1,478
794,84	-3	-1,441
795,998	-7,5	-2,644
797,162	0,5	-0,266
979,389	-16	-3,498
980,553	2,5	-0,104
981,711	-13	-2,866
982,869	-1,5	-1,176
984,027	-4,5	-1,754
985,191	-5,5	-2,313
986,349	0	-0,639
987,507	-12	-3,279
988,671	2,5	-0,032
989,828	-16	-3,493
990,98	2,5	-0,001
992,138	-15,5	-3,241
993,296	-1	-0,784
994,454	-7,5	-2,248
995,612	-3,5	-1,8
996,77	-2	-1,162
997,928	-9	-2,86
999,086	1	-0,169
1000,244	-15,5	-3,471
1001,402	2,5	-0,006
1002,572	-16	-3,499
1003,73	1,5	-0,395
1004,894	-11	-2,638
1006,052	-2,5	-1,416
1007,203	-3,5	-1,599
1008,361	-6,5	-2,428
1009,519	0	-0,55
1010,677	-13,5	-3,349
1011,841	2,5	-0,025
1012,999	-15,5	-3,495
1014,157	3	-0,001
1015,315	-15	-3,125
1016,467	-0,5	-0,804
1017,625	-6,5	-2,149
1018,783	-4	-1,82
1019,941	-1,5	-1,142
1021,105	-9	-2,846
1022,263	1,5	-0,155
1023,415	-15	-3,461
1024,579	2,5	-0,007
1025,736	-16	-3,498
1026,894	2,5	-0,143
1028,052	-13,5	-2,811
1029,21	-2	-1,216
1030,374	-4	-1,707
1031,533	-5,5	-2,288
1032,696	0	-0,648
1033,854	-12	-3,308
1035,012	2,5	-0,032
1036,17	-15,5	-3,492
1037,328	3	-0,001
1038,486	-16	-3,246
1039,638	0	-0,707
1040,796	-7,5	-2,256
1041,953	-3,5	-1,717
1043,112	-2	-1,234
1044,269	-8,5	-2,792
1045,433	1	-0,191
1046,591	-15	-3,458
1047,761	2,5	-0,007
1048,919	-16	-3,498
1050,077	2,5	-0,102
1051,235	-13	-2,89
1052,393	-1,5	-1,088
1053,557	-5	-1,839
1054,715	-4,5	-2,107
1055,867	-1	-0,879
1057,037	-11,5	-3,221
1058,195	2	-0,063
1059,352	-15,5	-3,488
1060,516	3	-0,003
1061,674	-15,5	-3,5
1062,832	1,5	-0,463
1063,99	-10,5	-2,584
1065,148	-2	-1,358
1066,306	-3,5	-1,573
1067,47	-6	-2,43
1068,628	-0,5	-0,645
1069,786	-12,5	-3,347
1070,938	2,5	-0,029
1072,096	-15,5	-3,493
1073,254	2,5	-0,001
1074,412	-15,5	-3,243
1075,57	0	-0,766
1076,728	-7,5	-2,229
1077,885	-3	-1,782
1079,043	-2	-1,209
1080,201	-7,5	-2,75
1081,365	0,5	-0,19
1082,517	-15	-3,456
1083,675	2,5	-0,009
1084,839	-15,5	-3,498
1086,003	2,5	-0,009
1087,161	-14,5	-2,985
1088,319	-1,5	-1,015
1089,477	-5,5	-1,99
1090,635	-4	-1,92
1091,787	-1,5	-1,125
1092,945	-8	-2,831
1094,097	1	-0,202
1095,254	-15	-3,448
1096,412	2,5	-0,011
1097,576	-15,5	-3,497
1098,734	3	0
1099,892	-15	-3,117
1101,044	0	-0,79
1102,202	-7	-2,168
1103,36	-3	-1,679
1104,524	-2,5	-1,276
1105,676	-7,5	-2,69
1106,834	0,5	-0,28
1107,992	-14,5	-3,426
1109,156	2,5	-0,014
1110,314	-15,5	-3,496
1111,472	2,5	-0,001
1112,629	-15,5	-3,184
1113,787	0	-0,813
1114,945	-6,5	-2,108
1116,103	-3,5	-1,861
1117,267	-1,5	-1,092
1118,425	-8	-2,887
1119,583	1	-0,132
1120,741	-15	-3,468
1121,899	3	-0,006
1123,057	-15,5	-3,498
1124,221	2,5	-0,196
1125,379	-12	-2,799
1126,531	-1,5	-1,209
1127,689	-4,5	-1,764
1128,847	-4,5	-2,219
1130,004	-1	-0,78
1131,162	-10,5	-3,189
1132,32	1,5	-0,059
1133,484	-15,5	-3,487
1134,648	2,5	-0,002
1135,806	-15,5	-3,5
1136,958	2	-0,439
1138,116	-10	-2,571
1139,274	-2	-1,37
1140,438	-3,5	-1,631
1141,596	-5,5	-2,37
1142,754	0	-0,636
1143,912	-12	-3,299
1145,07	2,5	-0,048
1146,222	-15	-3,488
1147,379	3	-0,003
1148,543	-15	-3,5
1149,701	2	-0,409
1150,859	-10,5	-2,595
1152,017	-2	-1,373
1153,181	-4	-1,608
1154,333	-5,5	-2,374
1155,503	0	-0,561
1156,667	-13	-3,364
1157,825	2,5	-0,031
1158,983	-15,5	-3,493
1160,141	3	-0,002
1161,299	-15,5	-3,5
1162,457	1,5	-0,504
1163,615	-9,5	-2,496
1164,779	-2,5	-1,525
1165,93	-3	-1,512
1167,088	-6	-2,467
1168,246	0	-0,522
1169,404	-12,5	-3,375
1170,562	2,5	-0,024
1171,72	-15,5	-3,494
1172,884	2,5	-0,001
1174,042	-15,5	-3,28
1175,194	0	-0,767
1176,352	-7,5	-2,28
1177,516	-3	-1,72
1178,674	-2	-1,26
1179,832	-8	-2,773
1180,996	0,5	-0,186
1182,153	-15	-3,459
1183,311	2,5	-0,008
1184,469	-15,5	-3,498
1185,621	2,5	-0,09
1186,791	-11,5	-2,76
1187,949	-2	-1,256
1189,113	-3,5	-1,629
1190,271	-5,5	-2,366
1191,429	0	-0,549
1192,587	-13	-3,368
1193,745	2,5	-0,021
1194,903	-15,5	-3,495
1196,055	2,5	-0,001
1197,225	-14	-3,054
1198,377	-1	-0,955
1199,534	-5	-1,955
1200,692	-4	-2,046
1201,85	-0,5	-0,875
1203,008	-10	-3,099
1204,166	2	-0,064
1205,318	-15	-3,486
1206,476	3	-0,002
1207,634	-15,5	-3,475
1208,786	0,5	-0,557
1209,944	-8,5	-2,42
1211,102	-2,5	-1,627
1212,26	-2,5	-1,303
1213,424	-8	-2,79
1214,582	1	-0,172
1215,734	-15	-3,46
1216,897	2,5	-0,007
1218,067	-15,5	-3,499
1219,225	2,5	-0,299
1220,383	-10	-2,62
1221,541	-2	-1,396
1222,693	-3,5	-1,569
1223,851	-5,5	-2,393
1225,015	0	-0,588
1226,173	-13	-3,37
1227,331	2,5	-0,023
1228,489	-15,5	-3,496
1229,641	2,5	-0,001
1230,799	-15	-3,142
1231,951	-0,5	-0,834
1269,311	0	-0,364
1270,468	-14	-3,43
1271,626	2,5	-0,014
1272,784	-15	-3,497
1273,942	2,5	0
1275,1	-13,5	-3,02
1276,258	-1	-1,055
1277,422	-4,5	-1,884
1278,58	-4,5	-2,138
1279,738	-0,5	-0,766
1280,902	-11,5	-3,276
1282,054	2,5	-0,041
1283,212	-15	-3,491
1284,376	3	-0,002
1285,534	-15	-3,247
1286,692	0	-0,779
1287,849	-7,5	-2,259
1289,007	-3	-1,815
1290,165	-1,5	-1,11
1291,323	-8,5	-2,896
1292,487	1,5	-0,112
1293,645	-15	-3,478
1294,803	3	-0,004
1295,961	-15	-3,5
1297,119	1,5	-0,46
1298,277	-10,5	-2,629
1299,435	-2	-1,386
1300,599	-3	-1,556
1301,757	-6	-2,47
1302,909	0	-0,49
1304,067	-13,5	-3,402
1341,408	-2	-1,336
1342,566	-3,5	-1,616
1343,727	-5,5	-2,389
1344,888	0	-0,575
1346,04	-12,5	-3,345
1347,192	2	-0,031
1348,35	-15	-3,494
1349,508	2,5	-0,001
1350,666	-15	-3,165
1351,824	-0,5	-0,922
1352,982	-5	-2,015
1354,14	-4	-2,006
1355,298	-0,5	-0,94
1356,456	-10	-3,075
1357,613	2	-0,083
1358,771	-15	-3,486
1359,923	2,5	-0,003
1361,087	-15	-3,388
1362,245	0	-0,653
1363,403	-6,5	-2,25
1364,561	-3	-1,739
1365,731	-1,5	-1,144
1366,883	-8,5	-2,881
1368,041	1,5	-0,116
1369,205	-15	-3,482
1370,363	3	-0,003
1371,521	-15	-3,5
1372,685	1	-0,555
1373,837	-8	-2,42
1374,994	-2,5	-1,6
1376,152	-1,5	-1,268
1377,316	-7,5	-2,715
1378,468	1	-0,201
1379,626	-15	-3,456
1380,784	3	-0,007
1381,942	-15	-3,499
1383,1	2	-0,298
1384,258	-9	-2,557
1385,41	-2,5	-1,467
1386,568	-3	-1,469
1387,726	-6	-2,536
1388,884	0,5	-0,309
1390,042	-14,5	-3,443
1391,2	2,5	-0,01
1392,351	-15	-3,498
1393,509	2,5	-0,18
1394,667	-11	-2,73
1395,819	-2	-1,218
1396,977	-3,5	-1,659
1398,129	-5	-2,359
1399,287	0	-0,529
1400,451	-14	-3,412
1401,615	2,5	-0,014
1402,767	-15	-3,497
1403,925	2,5	0
1405,083	-12,5	-2,911
1406,241	-1,5	-1,105
1407,399	-4	-1,789
1408,563	-5	-2,241
1409,714	0	-0,698
1410,872	-12	-3,312
1412,03	2,5	-0,034
1413,188	-15	-3,493
1414,352	2,5	-0,001
1415,504	-15	-3,198
1416,668	-0,5	-0,905
1417,826	-5,5	-2,03
1418,984	-4	-1,995
1420,142	-1	-0,93
1421,3	-10	-3,112
1422,458	2	-0,076
1423,616	-15	-3,487
1424,774	3	-0,002
1425,932	-15	-3,45
1427,09	0	-0,594
1428,247	-7,5	-2,336
1429,412	-3,5	-1,79
1430,569	-1	-1,147
1431,721	-8,5	-2,882
1432,885	1,5	-0,112
1434,043	-15	-3,479
1435,201	3	-0,004
1436,359	-15	-3,5
1437,511	1,5	-0,464
1438,669	-7,5	-2,444
1439,827	-2,5	-1,615
1440,985	-2	-1,285
1442,143	-7	-2,721
1443,295	1	-0,209
1444,452	-15	-3,459
1445,61	2,5	-0,007
1446,768	-15	-3,499
1447,926	2,5	-0,217
1449,078	-10	-2,666
1450,242	-2	-1,364
1451,4	-3	-1,498
1452,558	-6	-2,519
1453,716	0,5	-0,37
1454,874	-14	-3,417
1456,026	3	-0,012
1457,184	-15	-3,498
1458,342	3	-0,096
1459,5	-11	-2,785
1460,652	-1,5	-1,222
1461,822	-3	-1,596
1462,973	-5	-2,321
1464,131	0	-0,598
1465,289	-12,5	-3,354
1466,447	3	-0,024
1467,605	-15	-3,494
1468,763	2,5	-0,001
1469,921	-14,5	-3,166
1471,079	-0,5	-0,862
1472,237	-5,5	-2,068
1473,395	-3,5	-1,947
1474,553	-0,5	-0,946
1475,705	-9	-3,019
1476,863	2	-0,07
1478,021	-15	-3,484
1479,179	3	-0,002
1480,336	-15	-3,407
1481,488	0	-0,65
1482,646	-6	-2,242
1483,81	-3,5	-1,81
1484,968	-1	-1,079
1486,126	-8,5	-2,879
1487,284	1,5	-0,133
1488,436	-15	-3,468
1489,594	3	-0,005
1490,752	-15	-3,499
1491,91	2	-0,35
1493,068	-8,5	-2,531
1494,226	-2	-1,459
1495,378	-3	-1,492
1496,535	-6	-2,487
1497,693	0,5	-0,39
1498,851	-14	-3,427
1500,003	2,5	-0,015
1501,167	-15	-3,497
1502,325	2,5	-0,001
1503,483	-13	-2,924
1504,641	-1,5	-1,102
1505,793	-4	-1,818
1506,951	-4,5	-2,169
1508,109	0	-0,752
1509,273	-11	-3,25
1510,431	2,5	-0,04
1511,583	-15	-3,491
1512,747	2,5	-0,001
1513,905	-14,5	-3,222
1515,062	0	-0,749
1516,214	-6	-2,19
1517,372	-3,5	-1,826
1518,53	-1	-1,078
1519,688	-9	-2,938
1520,846	1,5	-0,109
1522,004	-15	-3,479
1523,162	2,5	-0,003
1524,32	-15	-3,439
1525,478	0,5	-0,638
1526,636	-7	-2,299
1527,794	-3	-1,728
1528,952	-1	-1,128
1530,11	-9	-2,947
1531,262	1,5	-0,118
1532,426	-15	-3,479
1533,583	3	-0,004
1534,741	-15	-3,499
1535,893	2	-0,323
1537,057	-9	-2,588
1538,221	-1,5	-1,437
1539,379	-3	-1,445
1540,537	-6	-2,605
1541,695	0,5	-0,323
1542,853	-13,5	-3,435
1544,005	3	-0,011
1545,163	-15	-3,498
1546,315	2,5	-0,096
1547,473	-12	-2,827
1548,637	-1,5	-1,198
1549,794	-4	-1,722
1550,958	-4,5	-2,297
1552,11	0	-0,584
1553,274	-12	-3,36
1554,432	3	-0,027
1555,59	-15	-3,494
1556,742	3	-0,001
1557,9	-15	-3,161
1559,059	0	-0,866
1560,216	-5	-1,979
1561,38	-3,5	-2,115
1562,538	-0,5	-0,81
1563,69	-10	-3,206
1564,848	2,5	-0,045
1566,006	-15	-3,49
1567,163	3	-0,002
1568,321	-15	-3,244
1569,479	0	-0,811
1570,637	-5,5	-2,019
1571,795	-3,5	-1,992
1572,953	-0,5	-0,88
1574,105	-9,5	-3,155
1575,263	2	-0,053
1576,427	-15	-3,49
1577,591	3	-0,002
1578,749	-15	-3,243
1579,901	0	-0,735
1581,059	-7	-2,201
1582,217	-3	-1,799
1583,375	-1	-1,068
1584,533	-8	-2,965
1585,69	1,5	-0,088
1586,848	-14,5	-3,483
1588,006	3	-0,004
1589,164	-15	-3,499
1590,322	1,5	-0,431
1591,48	-9	-2,596
1592,638	-2	-1,446
1593,79	-3	-1,557
1594,948	-6	-2,507
1596,106	0	-0,476
1597,264	-13,5	-3,409
1598,422	2,5	-0,016
1599,58	-15	-3,497
1600,732	2,5	0
1601,889	-15	-3,122
1603,047	-0,5	-0,933
1604,205	-5,5	-2,04
1605,357	-4	-2,018
1606,515	-1,5	-1
1607,673	-8,5	-2,972
1608,837	1,5	-0,095
1609,989	-15	-3,481
1611,147	2,5	-0,004
1612,305	-15	-3,499
1613,463	1,5	-0,481
1614,621	-8,5	-2,509
1615,773	-2,5	-1,478
1616,931	-3	-1,564
1618,089	-5,5	-2,505
1619,246	0	-0,495
1620,398	-13	-3,39
1621,562	2,5	-0,019
1622,72	-15	-3,495
1623,878	2,5	-0,001
1625,036	-15	-3,25
1626,194	0	-0,732
1627,352	-8	-2,359
1628,51	-2,5	-1,695
1629,662	-2	-1,252
1630,826	-7,5	-2,785
1631,984	0,5	-0,2
1633,142	-14,5	-3,467
1634,3	2,5	-0,006
1635,458	-15	-3,499
1636,616	2,5	-0,148
1637,773	-12	-2,844
1638,931	-1	-1,146
1640,089	-5	-1,919
1641,241	-4	-2,131
1642,399	-1	-0,984
1643,557	-9,5	-3,074
1644,721	1,5	-0,085
1645,879	-15	-3,482
1647,031	3	-0,003
1648,189	-15	-3,499
1649,347	2	-0,363
1650,505	-11	-2,769
1651,663	-1,5	-1,305
1652,815	-3,5	-1,725
1653,972	-4,5	-2,265
1655,13	-0,5	-0,714
1656,288	-11	-3,308
1657,458	2	-0,033
1658,61	-15	-3,492
1659,768	2,5	-0,001
1660,926	-15	-3,349
1662,084	0	-0,655
1663,236	-7,5	-2,348
1664,394	-3	-1,719
1665,552	-2	-1,237
1666,71	-7,5	-2,801
1667,868	0,5	-0,178
1669,026	-14,5	-3,468
1670,178	2,5	-0,006
1671,348	-15	-3,499
1672,512	2,5	-0,33
1673,669	-9,5	-2,572
1674,821	-2	-1,392
1675,979	-3	-1,468
1677,143	-6	-2,582
1678,301	0,5	-0,276
1679,453	-14	-3,437
1680,617	2,5	-0,008
1681,775	-15	-3,498
1682,933	2,5	-0,21
1684,085	-10,5	-2,679
1685,243	-2	-1,337
1686,407	-3	-1,467
1687,565	-6	-2,554
1688,717	0,5	-0,332
1689,874	-13,5	-3,432
1691,032	2,5	-0,01
1692,19	-15	-3,498
1693,342	2,5	-0,083
1694,5	-10,5	-2,764
1695,658	-1,5	-1,258
1696,816	-3	-1,588
1697,968	-5	-2,377
1699,126	0	-0,505
1700,284	-12	-3,373
1701,442	2,5	-0,021
1702,594	-15	-3,494
1703,752	2,5	-0,001
1704,91	-14	-3,076
1706,068	-0,5	-0,882
1707,225	-5	-1,984
1708,378	-4	-2,054
1709,541	-0,5	-0,82
1710,699	-10	-3,206
1711,857	2	-0,046
1713,009	-15	-3,488
1714,167	3	-0,002
1715,325	-15	-3,267
1716,501	0	-0,828
1717,653	-5,5	-2,074
1718,811	-3,5	-1,952
1719,969	-1	-0,919
1721,127	-8,5	-3,06
1722,279	1,5	-0,068
1723,437	-15	-3,481
1724,595	3	-0,003
1725,752	-15	-3,5
1726,91	1,5	-0,441
1728,062	-8,5	-2,502
1729,22	-2	-1,45
1730,378	-2,5	-1,503
1731,53	-5,5	-2,452
1732,688	0	-0,463
1733,84	-12,5	-3,393
1734,998	2,5	-0,015
1736,156	-15	-3,496
1737,314	3	0
1738,466	-14	-3,052
1739,624	0	-0,932
1740,788	-5	-1,968
1741,945	-3,5	-2,042
1743,103	-0,5	-0,884
1744,261	-9	-3,139
1745,413	2	-0,062
1746,571	-15	-3,486
1747,729	3	-0,002
1748,881	-14,5	-3,45
1750,039	1	-0,586
1751,197	-7,5	-2,375
1752,355	-2,5	-1,614
1753,507	-2	-1,331
1754,665	-6,5	-2,754
1755,823	1	-0,169
1756,987	-14	-3,468
1758,139	3	-0,006
1759,296	-15	-3,499
1760,46	2,5	-0,274
1761,618	-9,5	-2,623
1762,776	-2	-1,405
1763,928	-2,5	-1,477
1765,092	-6	-2,543
1766,25	0,5	-0,335
1767,408	-13,5	-3,425
1768,56	3	-0,011
1769,718	-15	-3,497
1770,87	3	-0,053
1772,022	-11	-2,753
1773,192	-1,5	-1,288
1774,35	-3	-1,595
1775,508	-5	-2,341
1776,665	0	-0,626
1777,823	-11	-3,315
1778,975	2,5	-0,025
1780,133	-15	-3,494
1781,297	3	-0,001
1782,449	-13	-3,043
1783,607	-1	-0,953
1784,771	-4,5	-1,874
1785,929	-4	-2,131
1787,081	-0,5	-0,808
1788,251	-10,5	-3,263
1789,409	2,5	-0,037
1790,567	-14,5	-3,492
1791,719	3	-0,001
1792,877	-14	-3,095
1794,035	-0,5	-0,858
1795,192	-4,5	-1,971
1796,344	-3	-1,961
1797,502	-0,5	-0,9
1798,66	-9	-3,095
1799,818	2	-0,053
1800,976	-14,5	-3,488
1802,134	3	-0,002
1803,304	-15	-3,316
1804,468	-0,5	-0,741
1805,626	-5,5	-2,131
1806,778	-3,5	-1,929
1807,936	-0,5	-0,932
1809,094	-9	-3,078
1810,246	2	-0,052
1811,404	-15	-3,489
1812,567	2,5	-0,001
1813,725	-14,5	-3,236
1814,883	0	-0,752
1816,035	-5,5	-2,14
1817,199	-3	-1,858
1818,363	-1	-1,015
1819,515	-8	-2,99
1820,673	1,5	-0,078
1821,831	-14,5	-3,483
1822,989	3	-0,002
1824,141	-14,5	-3,486
1825,299	1,5	-0,491
1826,457	-7	-2,334
1827,615	-2,5	-1,676
1828,776	-1,5	-1,238
1829,924	-7	-2,727
1831,082	1	-0,172
1832,24	-14	-3,465
1833,404	3	-0,006
1834,562	-15	-3,498
1835,72	2,5	-0,226
1836,884	-8,5	-2,619
1838,036	-1,5	-1,345
1839,194	-2,5	-1,542
1840,352	-5	-2,432
1841,51	0	-0,435
1842,662	-12	-3,384
1843,82	3	-0,019
1844,984	-15	-3,495
1846,142	3	0
1847,293	-12,5	-2,963
1848,457	-1	-0,988
1849,615	-4	-1,863
1850,773	-4,5	-2,147
1851,925	-0,5	-0,754
1853,089	-10,5	-3,226
1854,247	2	-0,039
1855,405	-15	-3,49
1856,557	2,5	-0,002
1857,715	-15	-3,255
1858,873	0	-0,734
1860,031	-5,5	-2,144
1861,183	-3,5	-1,872
1862,341	-1	-1,031
1863,499	-8	-2,952
1864,674	2	-0,078
1865,826	-14,5	-3,48
1866,984	2,5	-0,004
1868,142	-15	-3,5
1869,294	1,5	-0,438
1870,452	-7,5	-2,455
1871,61	-2	-1,497
1872,768	-2,5	-1,439
1873,92	-5,5	-2,541
1875,078	0	-0,362
1876,236	-12,5	-3,414
1877,394	2,5	-0,013
1878,546	-15	-3,496
1879,704	3	0
1880,868	-11,5	-2,918
1882,025	-1	-1,077
1883,177	-3,5	-1,782
1884,336	-4,5	-2,201
1885,499	0	-0,651
1886,657	-10,5	-3,29
1887,809	2,5	-0,04
1888,967	-14,5	-3,492
1890,125	3	-0,001
1891,283	-14	-3,196
1892,435	0	-0,728
1893,593	-5,5	-2,16
1894,751	-3	-1,82
1895,921	-0,5	-1,014
1897,073	-8	-2,912
1898,231	1,5	-0,099
1899,388	-14,5	-3,481
1900,546	3	-0,002
1901,704	-14,5	-3,426
1902,862	0,5	-0,607
1904,014	-7	-2,332
1905,166	-2,5	-1,653
1906,324	-1,5	-1,197
1907,482	-7	-2,792
1908,64	1,5	-0,14
1909,792	-14	-3,464
1910,95	3	-0,005
1912,108	-14,5	-3,499
1913,266	2	-0,296
1914,418	-9	-2,59
1915,576	-2	-1,448
1916,734	-2	-1,413
1917,885	-6	-2,602
1919,043	0,5	-0,342
1920,201	-13	-3,414
1921,359	2,5	-0,012
1922,513	-14,5	-3,497
1923,669	2,5	-0,012
1924,827	-10,5	-2,789
1925,979	-1,5	-1,149
1927,137	-3,5	-1,739
1928,289	-4,5	-2,167
1929,447	-0,5	-0,721
1930,605	-10,5	-3,242
1931,763	2,5	-0,037
1932,921	-15	-3,49
1934,079	3	-0,001
1935,236	-14,5	-3,186
1936,4	-0,5	-0,791
1937,552	-5,5	-2,122
1938,71	-3	-1,877
1939,868	-0,5	-0,93
1941,026	-8,5	-3,054
1942,178	2	-0,077
1943,348	-14,5	-3,488
1944,512	2,5	-0,002
1945,664	-14,5	-3,395
1946,822	0,5	-0,586
1947,986	-6	-2,265
1949,144	-3	-1,734
1950,296	-1,5	-1,205
1951,453	-6,5	-2,768
1952,611	1	-0,173
1953,769	-14	-3,462
1954,921	3	-0,006
1992,263	0	-0,484
1993,421	-12	-3,371
1994,579	3	-0,02
1995,737	-14,5	-3,495
1996,889	3	-0,001
1998,047	-13	-3,054
1999,205	-0,5	-0,942
2000,357	-4	-1,939
2001,515	-4	-2,082
2002,673	0	-0,833
2003,825	-9,5	-3,154
2004,988	2,5	-0,05
2006,146	-14,5	-3,49
2007,304	3	-0,002
2008,462	-14,5	-3,28
2009,62	0	-0,707
2010,778	-5	-2,132
2011,936	-3	-1,826
2013,094	-0,5	-1,089
2014,252	-8	-2,851
2015,41	1,5	-0,12
2016,568	-14	-3,469
2017,726	3	-0,005
2018,884	-15	-3,499
2020,042	2	-0,306
2021,199	-9	-2,633
2022,357	-2	-1,36
2023,515	-2,5	-1,516
2024,673	-5,5	-2,478
2025,837	0,5	-0,39
2026,995	-13	-3,405
2028,153	2,5	-0,013
2101,673	2,5	-0,016
2102,831	-14,5	-3,496
2103,989	2,5	0
2105,147	-12	-2,965
2106,299	-0,5	-0,941
2107,457	-4,5	-1,925
2108,615	-3,5	-2,033
2109,772	-0,5	-0,888
2110,924	-8,5	-3,098
2112,082	1,5	-0,068
2113,258	-14,5	-3,488
2114,41	3	-0,002
2115,568	-14,5	-3,382
2116,732	0,5	-0,622
2117,89	-6	-2,223
2119,042	-2,5	-1,763
2120,2	-1,5	-1,156
2121,358	-7	-2,843
2122,516	1,5	-0,132
2123,668	-14	-3,465
2124,832	3	-0,005
2125,99	-14,5	-3,499
2127,148	2,5	-0,258
2128,299	-10	-2,678
2129,457	-1,5	-1,321
2130,627	-2,5	-1,49
2131,779	-5	-2,48
2132,943	0	-0,352
2134,101	-12,5	-3,427
2135,253	2,5	-0,012
2136,411	-14,5	-3,496
2137,569	2,5	-0,003
2138,727	-10,5	-2,837
2139,885	-1,5	-1,169
2141,043	-3,5	-1,67
2142,201	-4,5	-2,324
2143,359	0	-0,607
2144,51	-10,5	-3,321
2145,668	2,5	-0,023
2146,832	-14,5	-3,495
2147,996	2,5	0
2149,154	-12,5	-2,952
2150,312	-1	-1,043
2151,47	-4	-1,856
2152,622	-3,5	-2,098
2153,78	-0,5	-0,758
2154,938	-9	-3,195
2156,096	2,5	-0,042
2157,254	-14,5	-3,49
2158,412	3	-0,001
2159,57	-14,5	-3,268
2160,728	0	-0,686
2161,879	-6	-2,205
2163,037	-2,5	-1,752
2164,195	-1,5	-1,114
2165,353	-7	-2,881
2166,517	1,5	-0,125
2167,669	-13,5	-3,466
2168,821	3	-0,006
2169,979	-14,5	-3,499
2171,137	2,5	-0,341
2172,289	-8,5	-2,57
2173,453	-2	-1,433
2174,611	-2,5	-1,47
2175,769	-5,5	-2,481
2176,927	0	-0,406
2178,085	-12,5	-3,402
2179,243	3	-0,014
2180,401	-14,5	-3,497
2181,552	3	-0,007
2182,71	-11	-2,864
2183,868	-1	-1,067
2185,026	-4	-1,837
2186,184	-4	-2,162
2187,342	0	-0,72
2188,5	-9,5	-3,26
2189,652	2	-0,048
2190,81	-14	-3,488
2191,968	3	-0,002
2193,12	-14,5	-3,407
2194,278	1	-0,632
2195,436	-6	-2,271
2196,593	-2,5	-1,723
2197,751	-1	-1,186
2198,909	-6,5	-2,804
2200,067	1,5	-0,168
2201,225	-13,5	-3,459
2202,383	3	-0,006
2203,541	-14,5	-3,498
2204,699	3	-0,256
2205,857	-9	-2,63
2207,015	-1,5	-1,338
2208,173	-2,5	-1,55
2209,331	-5	-2,487
2210,489	0,5	-0,353
2211,641	-12,5	-3,419
2212,805	3	-0,011
2213,956	-14	-3,497
2215,114	3	0
2216,272	-11,5	-2,901
2217,43	-1	-1,157
2218,582	-3,5	-1,803
2219,746	-4,5	-2,237
2220,91	0	-0,631
2222,062	-10	-3,322
2223,22	2,5	-0,036
2224,384	-14	-3,494
2225,542	3	-0,001
2226,694	-14	-3,201
2227,852	0	-0,767
2229,016	-5,5	-2,08
2230,174	-3	-1,882
2231,326	-1	-1,04
2232,489	-8	-3,027
2233,647	1,5	-0,079
2234,8	-14,5	-3,482
2235,957	3	-0,004
2237,115	-14,5	-3,498
2238,279	1,5	-0,517
2239,437	-7	-2,378
2240,601	-2,5	-1,698
2241,759	-1,5	-1,233
2242,911	-6	-2,68
2244,069	0,5	-0,24
2245,227	-13,5	-3,455
2246,385	3	-0,008
2247,537	-14,5	-3,498
2248,701	2,5	-0,095
2249,858	-10	-2,828
2251,01	-1	-1,1
2252,168	-3,5	-1,821
2253,332	-3,5	-2,184
2254,484	0	-0,772
2255,642	-9	-3,159
2256,812	1,5	-0,066
2257,964	-14	-3,485
2259,122	3	-0,004
2260,274	-14,5	-3,499
2261,432	2,5	-0,369
2262,584	-7,5	-2,501
2263,742	-2	-1,5
2264,9	-2,5	-1,538
2266,058	-5,5	-2,484
2267,209	0	-0,456
2268,373	-12	-3,4
2269,531	2,5	-0,02
2270,683	-14,5	-3,494
2271,835	2,5	-0,001
2272,999	-13,5	-3,188
2274,157	-0,5	-0,824
2275,309	-6	-2,18
2276,467	-3	-1,853
2277,625	-1	-1,109
2278,777	-7,5	-2,866
2279,935	1	-0,139
2281,093	-13,5	-3,466
2282,251	3	-0,006
2283,403	-14	-3,499
2284,56	2,5	-0,206
2285,718	-8,5	-2,667
2286,87	-1,5	-1,25
2288,028	-3	-1,6
2289,186	-5	-2,425
2290,344	0	-0,524
2291,496	-11	-3,351
2292,66	2,5	-0,03
2293,824	-14	-3,494
2294,976	2,5	-0,001
2296,134	-13,5	-3,266
2297,292	0	-0,706
2298,45	-6	-2,288
2299,602	-2,5	-1,698
2300,76	-1,5	-1,313
2301,918	-5,5	-2,618
2303,069	0	-0,46
2304,221	-11	-3,364
2305,385	2,5	-0,029
2306,537	-13,5	-3,492
2307,695	3	-0,001
2308,853	-13,5	-3,333
2310,005	0,5	-0,648
2311,163	-6,5	-2,373
2312,321	-2	-1,628
2313,485	-1,5	-1,3
2314,637	-5,5	-2,612
2315,795	0	-0,468
2316,959	-12	-3,406
2318,111	2,5	-0,027
2319,269	-13,5	-3,493
2320,432	2,5	-0,002
2321,59	-13,5	-3,47
2322,742	1,5	-0,488
2323,9	-7,5	-2,58
2325,058	-1,5	-1,393
2326,21	-3	-1,701
2327,368	-4	-2,294
2328,532	0	-0,639
2329,69	-10,5	-3,328
2330,848	2	-0,045
2332,006	-13,5	-3,488
2333,17	3	-0,003
2334,322	-13,5	-3,499
2335,48	2,5	-0,294
2336,638	-9	-2,768
2337,789	-1	-1,186
2338,947	-4	-1,889
2340,105	-3,5	-2,076
2341,257	-0,5	-1,019
2342,415	-7,5	-2,971
2343,573	1,5	-0,105
2344,731	-13	-3,474
2345,883	3	-0,007
2347,041	-13,5	-3,498
2348,199	2,5	-0,001
2349,357	-11,5	-2,963
2350,515	-0,5	-0,991
2351,673	-4	-1,964
2352,837	-3,5	-2,066
2498,598	2,5	-0,358
2499,756	-7,5	-2,674
2500,908	-1,5	-1,319
2502,066	-2,5	-1,676
2503,218	-4	-2,369
2504,376	0	-0,62
2505,534	-10	-3,351
2506,686	2,5	-0,032
2507,844	-12,5	-3,493
2509,002	2,5	-0,001
2510,154	-12,5	-3,326
2511,312	0	-0,658
2512,469	-5,5	-2,369
2513,621	-2,5	-1,623
2514,779	-1	-1,312
2515,937	-5,5	-2,724
2517,089	1	-0,295
2518,247	-11,5	-3,44
2519,405	2,5	-0,011
2520,557	-12,5	-3,497
2521,715	3	0
2522,873	-11	-3,051
2524,025	-0,5	-0,905
2525,183	-3,5	-2,085
2526,341	-3	-1,898
2527,493	-0,5	-1,148
2528,651	-6	-2,837
2529,815	1	-0,264
2530,972	-11,5	-3,438
2532,124	3	-0,015
2533,282	-12,5	-3,496
2534,44	3	-0,001
2571,734	-6	-2,352
2572,886	-2	-1,618
2574,044	-1,5	-1,329
2575,202	-5	-2,63
2576,36	0,5	-0,403
2577,512	-9,5	-3,378
2578,67	2,5	-0,033
2579,828	-12	-3,492
2580,98	3	-0,002
2582,137	-12	-3,48
2583,295	2	-0,482
2584,447	-7,5	-2,569
2585,605	-1	-1,367
2586,763	-2	-1,611
2587,915	-3,5	-2,348
2589,073	0	-0,635
2590,231	-8,5	-3,31
2591,383	2,5	-0,048
2592,541	-12	-3,488
2593,705	3	-0,002
2594,857	-12,5	-3,5
2596,015	3	-0,256
2597,173	-9,5	-2,844
2598,325	-1	-1,16
2599,482	-3,5	-1,953
2600,64	-2,5	-1,941
2601,792	-1	-1,248
2602,95	-5	-2,752
2604,108	0,5	-0,38
2605,26	-10	-3,398
2606,418	2,5	-0,036
2715,972	-4	-2,43
2717,13	0	-0,656
2718,282	-7,5	-3,269
2719,44	2	-0,058
2720,598	-11,5	-3,487
2721,755	3	-0,003
2722,907	-11,5	-3,499
2724,077	2,5	-0,336
2725,235	-6	-2,605
2726,387	-1,5	-1,403
2727,545	-2,5	-1,698
2728,703	-3	-2,254
2729,855	0	-0,844
2731,013	-6,5	-3,091
2732,171	1,5	-0,136
2733,329	-11,5	-3,473
2734,481	2,5	-0,011
2735,639	-12	-3,498
2736,791	2,5	-0,001
2737,949	-11,5	-3,217
2739,107	0	-0,742
2740,264	-5,5	-2,342
2741,416	-1,5	-1,627
2742,574	-1,5	-1,548
2743,732	-4	-2,485
2744,884	0	-0,578
2746,048	-9	-3,32
2747,2	2	-0,06
2748,352	-11,5	-3,486
2749,51	3	-0,004
2750,668	-11,5	-3,499
3149,249	0	-0,882
3150,401	-1,5	-2,073
3151,565	-1,5	-1,919
3152,723	0	-0,974
3153,875	-3,5	-2,948
3155,033	1,5	-0,1
3156,191	-7,5	-3,479
3157,343	3	-0,004
3158,501	-8	-3,5
3159,539	2,5	-0,001