File: ensaios_Ciclicos/_50perc/_3gap/entrada/_1.txt
Time (s)	Load (N)	Displacement (mm)
0	0	-0,026
2,163	1	-0,114
4,299	1	-0,13
6,435	1	-0,174
8,571	1,5	-0,226
10,707	1,5	-0,009
12,843	1,5	-0,006
14,979	1,5	0
17,114	1,5	-0,053
19,25	1,5	-0,128
21,392	1,5	-0,19
23,528	2	-0,137
25,664	1,5	-0,086
27,8	2	-0,031
29,936	1,5	-0,036
32,072	1,5	-0,057
34,207	2	-0,109
36,349	1,5	-0,059
38,485	2	-0,036
40,621	2	-0,001
42,757	2	-0,001
44,893	2	-0,001
47,035	2	-0,001
49,171	2	0
51,306	2	-0,001
53,442	2	-0,001
55,578	2	-0,001
57,714	2,5	-0,002
59,85	2	-0,002
61,992	2,5	-0,002
64,14	2,5	-0,002
66,276	2	-0,002
68,411	2,5	-0,001
70,546	2	-0,002
72,682	2,5	-0,002
74,824	2,5	-0,002
76,96	2,5	-0,002
79,096	2	-0,002
81,232	2	-0,002
83,368	2	-0,001
85,504	2	-0,002
87,639	2,5	-0,002
89,787	2	-0,002
91,923	2,5	-0,002
94,059	2,5	-0,002
96,195	2,5	-0,003
98,337	2,5	-0,002
100,473	2,5	-0,002
102,609	2,5	-0,003
104,744	2,5	-0,003
106,88	2,5	-0,002
109,016	2,5	-0,002
111,152	2,5	-0,002
113,288	2,5	-0,001
115,424	2,5	-0,001
117,566	2	-0,001
119,707	2,5	-0,001
121,843	2,5	-0,003
123,979	2,5	-0,036
126,121	2,5	-0,149
128,257	2	-0,178
130,393	1,5	-0,405
132,535	1,5	-0,53
134,671	0,5	-0,641
136,807	0	-0,779
138,942	-0,5	-0,857
141,078	-0,5	-0,851
143,214	-0,5	-0,926
145,35	-1	-0,936
147,486	-1	-0,961
149,628	-1	-1,038
151,764	-2	-1,129
153,9	-1,5	-1,095
156,035	-2	-1,228
158,171	-2	-1,349
160,307	-2,5	-1,369
162,443	-2,5	-1,433
164,585	-3	-1,53
166,721	-3	-1,551
168,863	-3	-1,63
170,999	-3	-1,616
173,134	-3	-1,621
175,276	-3,5	-1,704
177,412	-3,5	-1,756
179,548	-3,5	-1,824
181,69	-4	-1,86
183,832	-4	-1,969
185,974	-4,5	-2,061
188,11	-4,5	-2,113
190,246	-5	-2,134
192,387	-5	-2,19
194,523	-5	-2,151
196,665	-4,5	-2,122
198,801	-5	-2,153
200,937	-5	-2,164
203,073	-5,5	-2,222
205,209	-5	-2,29
207,345	-5	-2,214
209,48	-5	-2,208
211,628	-5,5	-2,331
213,764	-5,5	-2,336
215,9	-6	-2,44
218,042	-6,5	-2,513
220,178	-7	-2,592
222,32	-7	-2,611
224,456	-7	-2,573
226,591	-7	-2,593
228,727	-7	-2,645
230,863	-7	-2,66
232,999	-7,5	-2,759
235,141	-8	-2,801
237,283	-7,5	-2,756
239,419	-7,5	-2,74
241,555	-7,5	-2,722
243,696	-7,5	-2,757
245,832	-7,5	-2,709
247,968	-7,5	-2,724
250,11	-8	-2,764
252,246	-7,5	-2,796
254,382	-8	-2,857
256,524	-8,5	-2,886
258,66	-8,5	-2,87
260,796	-8	-2,848
262,931	-8,5	-2,895
265,067	-8	-2,868
267,215	-9	-2,997
269,351	-9	-2,99
271,487	-9	-3,036
273,623	-9	-3,042
275,759	-9	-3,041
277,895	-9	-2,992
280,03	-9	-3,001
282,166	-8	-2,954
284,302	-8	-2,953
286,45	-9,5	-3,097
288,586	-9,5	-3,128
290,728	-10,5	-3,279
292,87	-11	-3,311
295,011	-11	-3,33
297,147	-11	-3,327
299,295	-12	-3,37
301,443	-12	-3,397
303,579	-12	-3,392
305,721	-11,5	-3,39
307,857	-12	-3,383
309,993	-12	-3,392
312,135	-12	-3,406
314,276	-13	-3,432
316,412	-13	-3,432
318,554	-12,5	-3,432
320,69	-13	-3,442
322,826	-13	-3,448
324,968	-13,5	-3,45
327,11	-13,5	-3,456
329,246	-13	-3,454
331,382	-13	-3,451
333,523	-13	-3,457
335,659	-13	-3,457
337,801	-13	-3,462
339,937	-13	-3,454
342,085	-13,5	-3,459
344,221	-13	-3,457
346,363	-13	-3,458
348,504	-13,5	-3,461
350,64	-13	-3,459
352,776	-13	-3,462
354,912	-13,5	-3,466
357,048	-13,5	-3,462
359,19	-13	-3,456
361,326	-13	-3,451
363,468	-13,5	-3,47
365,609	-13,5	-3,472
367,745	-13,5	-3,469
369,887	-13,5	-3,472
372,023	-13,5	-3,465
374,165	-13,5	-3,465
376,307	-13,5	-3,471
378,455	-13,5	-3,48
380,603	-13,5	-3,484
382,75	-13,5	-3,486
384,886	-13,5	-3,489
387,034	-13,5	-3,491
389,17	-13,5	-3,49
391,312	-13,5	-3,493
393,448	-13,5	-3,491
395,59	-13,5	-3,492
397,732	-13,5	-3,488
399,867	-13,5	-3,486
402,009	-13,5	-3,487
404,151	-13,5	-3,487
406,287	-14	-3,488
408,423	-13,5	-3,486
410,559	-13,5	-3,483
412,695	-13,5	-3,482
414,837	-13,5	-3,486
416,973	-13,5	-3,484
419,108	-13,5	-3,481
421,244	-13,5	-3,481
423,38	-13,5	-3,48
425,516	-13,5	-3,478
427,658	-13,5	-3,481
429,812	-13,5	-3,482
431,948	-13,5	-3,481
434,089	-13,5	-3,48
436,225	-13,5	-3,48
438,367	-13,5	-3,48
440,509	-13,5	-3,478
442,657	-13	-3,465
444,805	-13	-3,456
446,947	-12,5	-3,446
449,083	-12,5	-3,433
451,225	-12,5	-3,437
453,366	-12,5	-3,451
455,508	-13	-3,461
457,644	-12,5	-3,443
459,78	-13	-3,452
461,922	-12,5	-3,458
464,058	-13	-3,452
466,206	-12	-3,424
468,342	-12	-3,415
470,483	-12	-3,413
472,619	-12	-3,407
474,762	-12	-3,404
476,897	-11,5	-3,384
479,045	-11,5	-3,4
481,187	-12	-3,406
483,329	-11,5	-3,403
485,471	-12	-3,412
487,612	-12	-3,409
489,748	-12	-3,422
491,89	-12	-3,42
494,038	-12,5	-3,429
496,174	-12	-3,414
498,31	-11,5	-3,395
500,452	-11,5	-3,394
502,588	-11	-3,371
504,723	-11	-3,369
506,859	-11,5	-3,371
508,995	-11,5	-3,368
511,143	-10,5	-3,359
513,285	-10,5	-3,33
515,427	-10,5	-3,325
517,575	-11	-3,345
519,717	-10,5	-3,324
521,853	-9,5	-3,289
523,988	-9	-3,292
526,13	-9,5	-3,287
528,266	-9,5	-3,201
530,402	-9	-3,15
532,538	-9	-3,096
534,674	-9	-3,06
536,816	-9	-3,11
538,957	-9,5	-3,213
541,093	-9	-3,144
543,229	-8,5	-3,106
545,377	-9,5	-3,206
547,525	-9	-3,155
549,661	-9	-3,121
551,803	-9	-3,167
553,951	-9,5	-3,225
556,093	-10	-3,277
558,234	-10,5	-3,307
560,37	-10,5	-3,306
562,506	-10	-3,309
564,66	-10,5	-3,352
566,796	-10,5	-3,332
568,938	-10,5	-3,343
571,074	-11	-3,338
573,216	-10,5	-3,32
575,351	-10	-3,276
577,499	-10,5	-3,331
579,635	-9,5	-3,248
581,771	-9,5	-3,184
583,913	-9	-3,149
586,049	-9	-3,121
588,185	-8	-3,078
590,321	-8	-3,025
592,457	-8,5	-3,072
594,598	-8,5	-3,075
596,734	-8,5	-3,09
598,87	-8,5	-3,062
601,012	-9	-3,112
603,148	-9,5	-3,171
605,284	-9	-3,148
607,426	-9	-3,183
609,567	-10	-3,235
611,703	-9	-3,2
613,845	-9,5	-3,245
615,993	-10,5	-3,327
618,135	-10,5	-3,35
620,277	-10,5	-3,351
622,419	-10,5	-3,357
624,561	-10,5	-3,335
626,708	-11	-3,349
628,844	-10,5	-3,353
630,986	-11,5	-3,388
633,122	-11	-3,382
635,264	-10,5	-3,376
637,412	-11,5	-3,391
639,548	-11,5	-3,383
641,684	-11	-3,385
643,826	-11,5	-3,393
645,967	-12	-3,413
648,103	-11,5	-3,413
650,239	-11,5	-3,4
652,381	-11,5	-3,409
654,517	-10,5	-3,378
656,659	-10,5	-3,366
658,801	-10,5	-3,353
660,943	-10,5	-3,344
663,084	-10	-3,269
665,226	-10	-3,263
667,362	-9	-3,214
669,498	-9	-3,172
671,64	-8,5	-3,121
673,776	-8,5	-3,11
675,912	-8,5	-3,065
678,06	-8,5	-3,142
680,201	-8	-3,086
682,343	-9	-3,142
684,485	-9	-3,129
686,621	-8	-3,086
688,757	-8	-3,037
690,899	-8	-3,04
693,047	-8,5	-3,078
695,183	-9	-3,157
697,319	-9	-3,172
699,46	-9	-3,216
701,602	-10	-3,289
703,744	-10	-3,264
705,886	-10	-3,278
708,028	-10	-3,256
710,164	-9,5	-3,229
712,3	-8,5	-3,136
714,442	-9	-3,107
716,589	-9	-3,207
718,737	-9,5	-3,271
720,879	-10	-3,322
723,015	-10	-3,323
725,151	-9,5	-3,274
727,287	-10	-3,308
729,429	-10	-3,31
731,571	-9,5	-3,336
733,712	-10,5	-3,381
735,854	-10,5	-3,37
738,002	-10	-3,286
740,144	-10,5	-3,326
742,292	-11,5	-3,4
744,44	-12	-3,412
746,576	-11,5	-3,412
748,718	-11,5	-3,421
750,859	-11,5	-3,42
752,995	-11,5	-3,426
755,131	-11	-3,404
757,267	-11	-3,403
759,403	-10,5	-3,388
761,539	-11	-3,398
763,681	-11	-3,406
765,829	-11	-3,424
767,97	-11,5	-3,437
770,112	-11,5	-3,439
772,248	-11,5	-3,446
774,384	-11,5	-3,438
776,52	-11,5	-3,445
778,656	-12	-3,451
780,798	-12	-3,458
782,934	-12	-3,455
785,075	-12	-3,454
787,215	-12	-3,457
789,347	-12	-3,462
791,489	-12,5	-3,468
793,625	-12,5	-3,471
795,761	-12	-3,472
797,903	-12	-3,471
800,045	-12,5	-3,473
802,181	-12	-3,474
804,328	-12	-3,475
806,47	-12,5	-3,477
808,606	-12,5	-3,478
810,742	-12	-3,474
812,884	-12,5	-3,474
815,026	-12,5	-3,477
817,18	-12,5	-3,482
819,328	-12,5	-3,484
821,469	-12,5	-3,487
823,617	-12,5	-3,488
825,759	-12,5	-3,49
827,901	-12,5	-3,492
830,037	-12,5	-3,493
832,173	-12,5	-3,495
834,309	-12,5	-3,495
836,451	-12,5	-3,493
838,598	-12,5	-3,494
840,746	-12,5	-3,494
842,888	-12,5	-3,494
845,024	-12,5	-3,495
847,166	-12,5	-3,496
849,308	-12,5	-3,496
851,45	-12,5	-3,496
853,586	-12,5	-3,496
855,721	-13	-3,496
857,869	-12,5	-3,496
860,011	-12,5	-3,497
862,159	-12,5	-3,497
864,295	-12,5	-3,498
866,443	-12,5	-3,498
868,591	-12,5	-3,498
870,739	-12,5	-3,498
872,88	-12,5	-3,499
875,028	-12,5	-3,499
877,17	-12,5	-3,499
879,318	-12,5	-3,499
881,46	-12,5	-3,499
883,608	-12,5	-3,499
885,75	-12,5	-3,499
887,898	-12,5	-3,5
890,039	-12,5	-3,474
892,193	-12,5	-3,293
894,335	-12	-3,212
896,489	-11,5	-3,061
898,631	-10,5	-3
900,779	-10,5	-2,946
902,921	-10	-2,864
905,069	-9,5	-2,757
907,216	-8,5	-2,692
909,358	-9	-2,641
911,506	-8	-2,635
913,654	-7	-2,507
915,796	-6	-2,4
917,944	-6	-2,333
920,086	-5,5	-2,283
922,234	-4,5	-2,198
924,382	-4,5	-2,083
926,529	-4	-1,956
928,671	-3	-1,9
930,819	-3	-1,845
932,961	-3	-1,785
935,109	-2	-1,715
937,245	-2,5	-1,679
939,387	-2	-1,639
941,529	-2	-1,557
943,67	-1,5	-1,506
945,812	-1,5	-1,476
947,96	-1,5	-1,384
950,102	-1	-1,271
952,244	-1	-1,231
954,38	-1	-1,184
956,528	-0,5	-1,136
958,67	-0,5	-1,096
960,811	0	-1,019
962,953	0	-1,011
965,095	0	-0,934
967,237	0	-0,82
969,379	0	-0,749
971,521	0	-0,692
973,669	0	-0,623
975,811	0,5	-0,498
977,952	1	-0,357
980,094	1	-0,296
982,242	1	-0,249
984,378	1	-0,241
986,514	1	-0,251
988,662	1	-0,226
990,798	1	-0,242
992,946	1	-0,226
995,081	1	-0,211
997,223	1,5	-0,166
999,365	2	-0,088
1001,501	1,5	-0,096
1003,637	1,5	-0,1
1005,779	1,5	-0,112
1007,921	1,5	-0,093
1010,063	2	-0,091
1012,21	2	-0,087
1014,346	2	-0,098
1016,494	2	-0,071
1018,63	2	-0,064
1020,772	2,5	-0,054
1022,914	2	-0,056
1025,062	1,5	-0,091
1027,204	2,5	-0,058
1029,346	2,5	-0,032
1031,487	2,5	-0,028
1033,629	2,5	-0,02
1035,765	2,5	-0,019
1037,907	2,5	-0,016
1040,055	2,5	-0,013
1042,191	2,5	-0,012
1044,333	2,5	-0,007
1046,481	2,5	-0,006
1048,623	2,5	-0,004
1050,764	2,5	-0,003
1052,906	2,5	-0,002
1055,048	3	-0,002
1057,19	2,5	-0,002
1059,332	2,5	-0,001
1061,474	2,5	-0,001
1063,616	2,5	-0,001
1065,751	2,5	-0,001
1067,893	2,5	-0,001
1070,041	2,5	-0,148
1072,177	2,5	-0,147
1074,325	2	-0,368
1076,467	0,5	-0,606
1078,615	0	-0,813
1080,751	-0,5	-0,914
1082,886	-1	-1,083
1085,034	-1,5	-1,238
1087,17	-2	-1,439
1089,312	-2	-1,612
1091,454	-2	-1,7
1093,596	-2,5	-1,778
1095,732	-2,5	-1,867
1097,868	-3	-2,074
1100,015	-4	-2,271
1102,157	-4	-2,316
1104,299	-4,5	-2,483
1106,441	-5,5	-2,641
1108,583	-6	-2,802
1110,725	-7,5	-3,006
1112,873	-8,5	-3,238
1115,015	-9,5	-3,357
1117,151	-11	-3,435
1119,292	-12	-3,469
1121,434	-12	-3,48
1123,576	-12	-3,49
1125,718	-12	-3,494
1127,86	-12	-3,497
1130,008	-12	-3,499
1132,144	-12	-3,499
1134,286	-12	-3,499
1136,421	-12	-3,5
1138,557	-12	-3,432
1140,705	-11,5	-3,166
1142,841	-11	-3,098
1144,983	-10	-2,971
1147,125	-9	-2,836
1149,273	-7,5	-2,607
1151,409	-6,5	-2,506
1153,544	-6	-2,475
1155,686	-5,5	-2,367
1157,828	-5	-2,253
1159,976	-4	-2,15
1162,118	-3	-1,95
1164,26	-2	-1,714
1166,396	-1,5	-1,539
1168,538	-2	-1,617
1170,673	-1,5	-1,5
1172,815	-1	-1,365
1174,951	-1,5	-1,36
1177,093	-1	-1,23
1179,229	-1	-1,162
1181,371	-0,5	-1,074
1183,513	0	-0,974
1185,649	0	-0,897
1187,79	0	-0,761
1189,926	0	-0,65
1192,068	0	-0,541
1194,21	0,5	-0,374
1196,352	1	-0,308
1198,5	1,5	-0,162
1200,642	1,5	-0,095
1202,778	2	-0,08
1204,925	2	-0,048
1207,067	2,5	-0,033
1209,215	2,5	-0,018
1211,351	2,5	-0,013
1213,493	3	-0,01
1215,635	3	-0,006
1217,771	3	-0,004
1219,907	2,5	-0,002
1222,042	2,5	-0,002
1224,184	2,5	-0,001
1226,32	2,5	-0,001
1228,456	2,5	-0,001
1230,592	2,5	0
1232,74	2,5	-0,108
1234,876	2,5	-0,072
1237,018	2,5	-0,042
1239,16	2,5	-0,125
1241,301	1,5	-0,392
1243,455	0	-0,625
1245,603	-0,5	-0,929
1247,745	-0,5	-1,032
1249,893	-1	-1,172
1252,035	-1,5	-1,291
1254,183	-1,5	-1,446
1256,325	-1,5	-1,598
1258,46	-2	-1,661
1260,608	-2,5	-1,858
1262,744	-3	-2,075
1264,892	-3,5	-2,257
1267,028	-4	-2,362
1269,17	-4	-2,45
1271,312	-4,5	-2,521
1273,454	-5	-2,614
1275,589	-5	-2,625
1277,737	-5,5	-2,805
1279,879	-6	-2,932
1282,021	-6,5	-3,024
1284,169	-8,5	-3,239
1286,311	-9,5	-3,335
1288,453	-10	-3,392
1290,595	-10	-3,41
1292,737	-10,5	-3,432
1294,878	-10,5	-3,441
1297,02	-11	-3,449
1299,156	-11	-3,448
1301,304	-11,5	-3,468
1303,446	-11,5	-3,471
1305,588	-11,5	-3,474
1307,73	-11,5	-3,463
1309,872	-11,5	-3,465
1312,013	-11,5	-3,468
1314,161	-11,5	-3,475
1316,303	-12	-3,48
1318,445	-12	-3,482
1320,587	-12	-3,485
1322,735	-12	-3,491
1324,877	-12	-3,493
1327,013	-12	-3,495
1329,154	-12	-3,497
1331,296	-12	-3,498
1333,438	-12	-3,499
1335,586	-12	-3,499
1337,728	-12	-3,499
1339,864	-12	-3,5
1342,012	-12	-3,497
1344,154	-12	-3,388
1346,295	-12	-3,332
1348,449	-12	-3,206
1350,591	-11,5	-3,096
1352,739	-10	-2,894
1354,887	-8	-2,723
1357,023	-6,5	-2,537
1359,171	-6	-2,467
1361,307	-6	-2,43
1363,448	-5,5	-2,368
1365,596	-4,5	-2,155
1367,744	-3,5	-1,995
1369,886	-3	-1,865
1372,028	-3	-1,888
1374,17	-3	-1,807
1376,312	-2	-1,63
1378,454	-2	-1,552
1380,601	-1	-1,397
1382,743	-1	-1,288
1384,885	-1	-1,328
1387,027	-1	-1,23
1389,169	-0,5	-1,119
1391,311	-0,5	-1
1393,447	0	-0,933
1395,595	0	-0,853
1397,736	0	-0,779
1399,878	0	-0,682
1402,02	0	-0,615
1404,162	0	-0,484
1406,298	0,5	-0,411
1408,446	1	-0,28
1410,588	1	-0,235
1412,73	1	-0,155
1414,878	1,5	-0,125
1417,013	1,5	-0,113
1419,149	1,5	-0,122
1421,291	1,5	-0,127
1423,427	1,5	-0,1
1425,569	2	-0,078
1427,723	2	-0,075
1429,859	2	-0,062
1432,007	2	-0,046
1434,148	1,5	-0,095
1436,29	2	-0,07
1438,432	2	-0,057
1440,58	2,5	-0,056
1442,716	2	-0,056
1444,852	2	-0,039
1446,994	2,5	-0,026
1449,136	2,5	-0,022
1451,277	3	-0,018
1453,419	3	-0,014
1455,561	3	-0,01
1457,697	3	-0,005
1459,833	3	-0,004
1461,969	2,5	-0,003
1464,117	3	-0,002
1466,259	3	-0,002
1468,407	3	-0,001
1470,542	3	-0,001
1472,69	3	-0,001
1474,832	3	-0,036
1476,968	2,5	-0,13
1479,122	2,5	-0,333
1481,258	2	-0,401
1483,4	1,5	-0,532
1485,541	1	-0,594
1487,683	0,5	-0,645
1489,825	0	-0,727
1491,973	0	-0,775
1494,109	0	-0,832
1496,257	-0,5	-0,934
1498,399	-0,5	-0,916
1500,541	-0,5	-1,019
1502,682	-0,5	-1,054
1504,83	-1	-1,23
1506,966	-1	-1,352
1509,108	-1	-1,397
1511,256	-1,5	-1,53
1513,392	-2	-1,636
1515,528	-1,5	-1,63
1517,67	-2	-1,851
1519,806	-2	-1,76
1521,947	-2	-1,815
1524,089	-2	-1,834
1526,231	-2,5	-1,863
1528,367	-2	-1,959
1530,509	-2,5	-1,986
1532,651	-3	-2,165
1534,787	-3	-2,207
1536,935	-3,5	-2,24
1539,088	-3,5	-2,362
1541,23	-4	-2,411
1543,372	-4,5	-2,547
1545,52	-5	-2,665
1547,662	-5	-2,694
1549,798	-5	-2,666
1551,946	-5	-2,686
1554,088	-4,5	-2,766
1556,229	-7	-2,955
1558,377	-7,5	-3,131
1560,513	-9	-3,293
1562,655	-9,5	-3,348
1564,809	-10	-3,405
1566,945	-9,5	-3,408
1569,087	-11	-3,454
1571,235	-11	-3,466
1573,376	-11,5	-3,47
1575,524	-11,5	-3,474
1577,666	-11,5	-3,478
1579,808	-11,5	-3,484
1581,944	-11,5	-3,489
1584,092	-11,5	-3,492
1586,234	-11,5	-3,496
1588,37	-12	-3,496
1590,511	-11,5	-3,498
1592,665	-12	-3,499
1594,807	-12	-3,499
1596,955	-11,5	-3,499
1599,103	-11,5	-3,5
1601,245	-11,5	-3,498
1603,387	-12	-3,499
1605,535	-12	-3,499
1607,682	-11,5	-3,499
1609,824	-12	-3,499
1611,966	-11,5	-3,5
1614,114	-11,5	-3,406
1616,262	-11,5	-3,236
1618,404	-10,5	-3,145
1620,552	-9,5	-2,984
1622,688	-8,5	-2,842
1624,83	-6,5	-2,648
1626,977	-5,5	-2,423
1629,125	-5	-2,289
1631,267	-3,5	-2,107
1633,409	-3,5	-2,045
1635,563	-3	-2,036
1637,699	-3	-1,936
1639,841	-3	-1,905
1641,989	-2,5	-1,825
1644,136	-2	-1,688
1646,272	-4	-2,043
1648,426	-3	-1,949
1650,568	-3	-1,936
1652,71	-3	-1,854
1654,846	-2,5	-1,765
1657	-3	-1,84
1659,148	-2,5	-1,823
1661,289	-3	-1,788
1663,437	-2	-1,681
1665,573	-2,5	-1,703
1667,721	-1,5	-1,645
1669,863	-1,5	-1,546
1672,011	-1,5	-1,523
1674,147	-1,5	-1,519
1676,301	-1	-1,434
1678,442	-1	-1,379
1680,59	-0,5	-1,17
1682,732	-1,5	-1,6
1684,88	-1,5	-1,519
1687,022	-1	-1,43
1689,158	-1	-1,394
1691,3	-1	-1,286
1693,442	-0,5	-1,234
1695,589	-0,5	-1,064
1697,737	-0,5	-0,989
1699,873	0	-0,957
1702,015	0	-0,864
1704,163	0	-0,726
1706,311	0	-0,593
1708,453	0	-0,781
1710,595	0	-0,694
1712,736	0	-0,745
1714,878	0	-0,656
1717,02	0	-0,526
1719,168	0,5	-0,418
1721,31	1	-0,383
1723,452	0,5	-0,467
1725,594	0,5	-0,458
1727,736	0,5	-0,355
1729,877	1	-0,389
1732,025	1	-0,368
1734,167	0,5	-0,508
1736,321	1	-0,408
1738,457	0,5	-0,489
1740,605	0,5	-0,429
1742,753	0	-0,558
1744,895	0	-0,81
1747,03	0	-0,836
1749,172	0	-0,796
1751,32	0	-0,7
1753,462	0	-0,608
1755,61	0	-0,489
1757,758	0	-0,532
1759,9	0	-0,449
1762,036	1	-0,285
1764,19	1	-0,231
1766,331	1	-0,197
1768,479	1,5	-0,118
1770,621	1,5	-0,113
1772,763	2	-0,067
1774,911	2	-0,05
1777,053	2	-0,038
1779,195	2,5	-0,031
1781,331	2	-0,032
1783,472	2,5	-0,023
1785,608	2,5	-0,014
1787,756	2,5	-0,008
1789,898	2,5	-0,007
1792,04	2,5	-0,004
1794,176	2,5	-0,004
1796,324	2,5	-0,003
1798,46	2,5	-0,002
1800,607	2,5	-0,002
1802,743	2,5	-0,001
1804,879	2,5	-0,001
1807,021	2,5	-0,001
1809,163	2,5	0
1811,305	2,5	-0,022
1813,441	2,5	-0,053
1815,583	2,5	-0,242
1817,718	2,5	-0,242
1819,86	2,5	-0,294
1822,002	2,5	-0,318
1824,144	2	-0,421
1826,28	1,5	-0,48
1828,422	1,5	-0,546
1830,564	1,5	-0,544
1832,7	1,5	-0,489
1834,841	1,5	-0,475
1836,989	1,5	-0,535
1839,137	1	-0,605
1841,273	1,5	-0,44
1843,427	2	-0,519
1845,569	1,5	-0,575
1847,711	0,5	-0,614
1849,853	0	-0,686
1852,001	0,5	-0,719
1854,142	0	-0,769
1856,29	0	-0,823
1858,432	-0,5	-0,889
1860,58	0	-0,901
1862,722	0	-0,861
1864,87	-0,5	-0,862
1867,012	0	-0,891
1869,148	0	-0,837
1871,295	-0,5	-0,95
1873,431	-0,5	-0,957
1875,579	-0,5	-1,099
1877,721	-0,5	-1,166
1879,863	-1	-1,206
1882,005	-0,5	-1,155
1884,141	-1	-1,26
1886,283	-1	-1,316
1888,424	-1	-1,382
1890,566	-1,5	-1,412
1892,708	-1,5	-1,446
1894,85	-1,5	-1,614
1896,992	-2	-1,622
1899,14	-2	-1,74
1901,282	-2	-1,774
1903,424	-2,5	-1,873
1905,559	-2	-1,898
1907,707	-2,5	-1,973
1909,849	-3	-2,077
1911,997	-3	-2,141
1914,133	-3	-2,162
1916,275	-3	-2,261
1918,417	-3,5	-2,338
1920,565	-4	-2,418
1922,706	-4	-2,49
1924,854	-4,5	-2,581
1926,99	-4,5	-2,601
1929,132	-4,5	-2,63
1931,274	-4,5	-2,67
1933,416	-5	-2,732
1935,564	-6	-2,877
1937,7	-6	-2,939
1939,853	-6	-3,022
1941,995	-7,5	-3,153
1944,137	-8	-3,29
1946,279	-8,5	-3,333
1948,433	-9,5	-3,405
1950,575	-10	-3,413
1952,717	-10,5	-3,44
1954,859	-10,5	-3,454
1957,001	-10,5	-3,452
1959,142	-11	-3,46
1961,278	-11	-3,468
1963,42	-11	-3,48
1965,568	-11,5	-3,486
1967,716	-11,5	-3,49
1969,858	-11,5	-3,494
1972	-11,5	-3,494
1974,142	-11,5	-3,496
1976,277	-11,5	-3,497
1978,419	-11,5	-3,497
1980,567	-11,5	-3,498
1982,709	-11,5	-3,498
1984,851	-11,5	-3,499
1986,993	-11,5	-3,499
1989,135	-12	-3,499
1991,283	-11,5	-3,499
1993,418	-11,5	-3,499
1995,566	-11,5	-3,5
1997,708	-11,5	-3,499
1999,856	-11,5	-3,499
2001,998	-11,5	-3,499
2004,146	-11,5	-3,499
2006,282	-11,5	-3,499
2008,436	-11,5	-3,456
2010,577	-11,5	-3,37
2012,719	-10,5	-3,176
2014,861	-10,5	-3,168
2017,009	-10	-3,013
2019,151	-9	-2,944
2021,293	-9,5	-2,928
2023,429	-9	-2,901
2025,565	-9	-2,902
2027,706	-8	-2,772
2029,848	-7,5	-2,71
2031,996	-7	-2,571
2034,138	-5,5	-2,52
2036,28	-5,5	-2,486
2038,422	-5,5	-2,452
2040,576	-5	-2,325
2042,712	-5	-2,299
2044,859	-4,5	-2,267
2047,001	-4,5	-2,189
2049,143	-3,5	-2,091
2051,291	-3	-2,016
2053,433	-3	-1,879
2055,581	-2,5	-1,81
2057,723	-3,5	-2,143
2059,871	-3	-2,009
2062,006	-3	-2,042
2064,154	-3	-1,962
2066,296	-2,5	-1,905
2068,444	-2	-1,766
2070,586	-2	-1,71
2072,734	-2	-1,662
2074,876	-1,5	-1,589
2077,018	-1	-1,545
2079,16	-0,5	-1,436
2081,301	-1	-1,317
2083,437	-0,5	-1,365
2085,579	-0,5	-1,32
2087,727	-0,5	-1,239
2089,869	-0,5	-1,147
2092,011	0	-1,022
2094,153	0	-0,812
2096,295	0	-0,698
2098,436	0	-0,604
2100,584	0,5	-0,492
2102,72	0,5	-0,358
2104,874	0,5	-0,234
2107,022	1	-0,174
2109,164	1,5	-0,148
2111,306	1,5	-0,108
2113,454	2	-0,082
2115,589	2	-0,071
2117,731	2	-0,068
2119,873	2,5	-0,059
2122,021	2	-0,048
2124,163	2,5	-0,043
2126,305	2,5	-0,036
2128,453	2,5	-0,023
2130,595	3	-0,016
2132,736	3	-0,011
2134,878	2,5	-0,009
2137,014	3	-0,008
2139,156	3	-0,008
2141,298	3	-0,007
2143,44	3	-0,006
2145,582	3	-0,004
2147,73	3	-0,004
2149,877	3	-0,003
2152,025	3	-0,002
2154,167	2,5	-0,002
2156,315	3	-0,001
2158,457	3	-0,001
2160,605	2,5	-0,006
2162,747	3	-0,005
2164,889	3	-0,004
2167,03	2,5	-0,003
2169,178	2,5	-0,002
2171,326	3	-0,002
2173,462	2,5	-0,002
2175,604	3	-0,002
2177,746	2,5	-0,001
2179,888	3	-0,001
2182,024	2,5	-0,001
2184,166	3	-0,001
2186,307	2,5	-0,001
2188,455	2,5	-0,001
2190,597	2,5	-0,001
2192,739	3	0
2194,893	2,5	-0,157
2197,029	2,5	-0,202
2199,171	2,5	-0,204
2201,307	2,5	-0,248
2203,449	1,5	-0,358
2205,596	1	-0,508
2207,744	1	-0,605
2209,892	0	-0,733
2212,028	0	-0,754
2214,176	0	-0,819
2216,312	-0,5	-0,86
2218,448	-0,5	-0,956
2220,595	-0,5	-1,094
2222,743	-1	-1,27
2224,891	-1	-1,356
2227,039	-1	-1,448
2229,181	-1,5	-1,529
2231,323	-1,5	-1,6
2233,471	-2	-1,745
2235,619	-2,5	-1,932
2237,76	-2,5	-2,03
2239,902	-3	-2,112
2242,044	-2,5	-2,111
2244,192	-3	-2,212
2246,328	-3	-2,316
2248,47	-3,5	-2,485
2250,612	-4,5	-2,626
2252,748	-5	-2,805
2254,896	-6	-2,992
2257,031	-6	-3,04
2259,179	-7	-3,214
2261,321	-8	-3,338
2263,475	-10	-3,439
2265,629	-11	-3,474
2267,777	-10,5	-3,476
2269,913	-11	-3,485
2272,067	-11	-3,492
2274,202	-11	-3,495
2276,344	-11	-3,496
2278,486	-11	-3,498
2280,628	-11	-3,498
2282,776	-11	-3,499
2284,924	-11	-3,499
2287,066	-11,5	-3,5
2289,208	-11	-3,494
2291,355	-11	-3,382
2293,497	-11	-3,203
2295,645	-10,5	-3,089
2297,787	-11	-3,352
2299,929	-11	-3,272
2302,077	-10,5	-3,079
2304,219	-9	-2,858
2306,361	-7	-2,706
2308,508	-5	-2,391
2310,65	-5	-2,346
2312,792	-4,5	-2,232
2314,94	-3,5	-2,077
2317,076	-3	-1,88
2319,224	-2	-1,737
2321,372	-1,5	-1,566
2323,52	-1	-1,326
2325,661	-0,5	-1,184
2327,803	0	-0,964
2329,945	0	-0,791
2332,099	0,5	-0,495
2334,241	0,5	-0,312
2336,383	1	-0,236
2338,525	1,5	-0,132
2340,667	1,5	-0,113
2342,814	2	-0,068
2344,956	2	-0,037
2347,098	2,5	-0,021
2349,24	2,5	-0,01
2351,394	2,5	-0,006
2353,53	2,5	-0,006
2355,672	2,5	-0,004
2357,82	2,5	-0,002
2359,955	2,5	-0,001
2362,103	2,5	0
2364,251	2,5	-0,147
2366,393	2,5	-0,273
2368,541	1,5	-0,509
2370,683	0,5	-0,634
2372,831	0,5	-0,714
2374,973	0	-0,856
2377,115	0	-0,842
2379,262	-0,5	-0,971
2381,398	0	-0,996
2383,546	-0,5	-1,14
2385,688	-1	-1,26
2387,83	-1	-1,38
2389,972	-1	-1,447
2392,12	-1,5	-1,601
2394,262	-2	-1,701
2396,403	-2	-1,776
2398,539	-2	-1,76
2400,687	-2,5	-1,911
2402,823	-2,5	-2,031
2404,965	-3	-2,107
2407,101	-3	-2,224
2409,237	-3,5	-2,33
2411,385	-3,5	-2,512
2413,533	-4,5	-2,662
2415,68	-5	-2,811
2417,822	-6	-2,994
2419,97	-6,5	-3,15
2422,112	-7,5	-3,29
2424,266	-9,5	-3,402
2426,402	-10	-3,44
2428,538	-10,5	-3,454
2430,673	-11	-3,476
2432,809	-10,5	-3,479
2434,963	-11	-3,484
2437,099	-11	-3,489
2439,241	-11	-3,494
2441,383	-11	-3,496
2443,531	-11	-3,498
2445,673	-11	-3,499
2447,82	-11	-3,5
2449,962	-11	-3,5
2452,11	-11	-3,372
2454,252	-11	-3,305
2456,4	-10,5	-3,092
2458,536	-9	-2,949
2460,678	-8	-2,834
2462,818	-7,5	-2,72
2464,962	-6,5	-2,616
2467,103	-5,5	-2,454
2469,245	-5,5	-2,435
2471,387	-5	-2,326
2473,523	-4,5	-2,3
2475,665	-4	-2,186
2477,807	-4	-2,14
2479,949	-3	-2,027
2482,091	-3	-1,939
2484,232	-2,5	-1,889
2486,368	-2,5	-1,82
2488,522	-1,5	-1,578
2490,658	-1	-1,54
2492,806	-1	-1,379
2494,948	-0,5	-1,186
2497,102	-0,5	-1,07
2499,25	0	-0,973
2501,391	0	-0,908
2503,527	0	-0,712
2505,663	0	-0,649
2507,805	0	-0,449
2509,941	0,5	-0,312
2512,083	1	-0,166
2514,225	1,5	-0,087
2516,361	1,5	-0,083
2518,496	2,5	-0,051
2520,638	2,5	-0,041
2522,78	2,5	-0,03
2524,922	2,5	-0,026
2527,07	2,5	-0,015
2529,206	2,5	-0,01
2531,36	2,5	-0,006
2533,496	2,5	-0,003
2535,643	2,5	-0,002
2537,785	2,5	-0,002
2539,921	2,5	-0,001
2542,063	2	-0,001
2544,205	2,5	-0,001
2546,347	2,5	-0,003
2548,495	2,5	-0,047
2550,631	2,5	-0,126
2552,772	2	-0,274
2554,914	2	-0,364
2557,056	1,5	-0,44
2559,198	1,5	-0,513
2561,34	0,5	-0,616
2563,482	0	-0,758
2565,624	-0,5	-0,845
2567,766	-0,5	-0,943
2569,901	-0,5	-1,039
2572,043	-0,5	-1,078
2574,179	-0,5	-1,205
2576,327	-1	-1,386
2578,469	-1,5	-1,539
2580,617	-1,5	-1,646
2582,759	-1,5	-1,733
2584,901	-2	-1,874
2587,043	-2,5	-1,946
2589,178	-2,5	-2,019
2591,326	-3	-2,078
2593,462	-3	-2,136
2595,598	-3	-2,231
2597,74	-3	-2,271
2599,882	-3,5	-2,395
2602,018	-3,5	-2,469
2604,166	-4,5	-2,624
2606,301	-5	-2,72
2608,443	-5,5	-2,828
2610,579	-5,5	-2,961
2612,721	-6,5	-3,054
2614,869	-7	-3,19
2617,011	-7,5	-3,215
2619,147	-8	-3,293
2621,283	-9	-3,333
2623,424	-9	-3,386
2625,56	-10	-3,408
2627,708	-10	-3,438
2629,85	-10,5	-3,464
2631,986	-10	-3,45
2634,122	-10,5	-3,458
2636,264	-10	-3,444
2638,412	-10,5	-3,45
2640,559	-10,5	-3,476
2642,701	-11	-3,481
2644,849	-10,5	-3,486
2646,997	-11	-3,491
2649,139	-11	-3,492
2651,275	-11	-3,493
2653,411	-11	-3,492
2655,559	-11	-3,494
2657,7	-11	-3,494
2659,836	-11	-3,495
2661,984	-11	-3,496
2664,126	-11	-3,497
2666,268	-11	-3,497
2668,41	-11	-3,498
2670,552	-10,5	-3,498
2672,7	-11	-3,499
2674,841	-11	-3,499
2676,983	-11	-3,5
2679,125	-11	-3,479
2681,267	-10,5	-3,332
2683,409	-11	-3,239
2685,545	-10	-3,154
2687,687	-10	-3,086
2689,829	-9,5	-3,03
2691,97	-9	-2,942
2694,112	-8,5	-2,939
2696,248	-8,5	-2,924
2698,39	-8	-2,906
2700,532	-7,5	-2,775
2702,674	-6,5	-2,661
2704,822	-5,5	-2,586
2706,964	-5,5	-2,53
2709,1	-4,5	-2,435
2711,247	-4,5	-2,37
2713,383	-4,5	-2,318
2715,537	-3	-2,164
2717,679	-3	-2,158
2719,821	-3	-2,123
2721,957	-3	-2,086
2724,099	-2,5	-2,019
2726,241	-2,5	-1,9
2728,376	-2	-1,768
2730,518	-1,5	-1,722
2732,66	-1,5	-1,657
2734,802	-1,5	-1,627
2736,938	-1,5	-1,559
2739,08	-1	-1,482
2741,222	-1	-1,51
2743,358	-1,5	-1,464
2745,499	-1	-1,408
2747,641	-1	-1,405
2749,783	-1	-1,277
2751,925	-0,5	-1,239
2754,061	-0,5	-1,219
2756,197	-0,5	-1,242
2758,339	-1	-1,208
2760,487	0	-1,058
2762,622	0	-1,069
2764,776	0	-1
2766,918	0	-0,951
2769,06	0	-0,905
2771,208	0	-0,803
2773,35	0	-0,71
2775,504	0	-0,589
2777,64	0,5	-0,5
2779,776	0,5	-0,48
2781,911	0,5	-0,4
2784,06	0,5	-0,341
2786,195	1	-0,248
2788,337	1	-0,208
2790,479	1	-0,187
2792,621	1,5	-0,16
2794,763	1,5	-0,146
2796,905	1,5	-0,104
2799,052	2	-0,083
2801,194	2	-0,067
2803,342	2	-0,058
2805,484	2	-0,041
2807,626	2	-0,032
2809,768	2	-0,029
2811,916	2	-0,023
2814,058	2,5	-0,019
2816,193	2,5	-0,016
2818,335	2,5	-0,012
2820,477	2,5	-0,009
2822,619	2,5	-0,008
2824,761	2,5	-0,006
2826,897	2,5	-0,006
2829,039	3	-0,005
2831,187	2,5	-0,004
2833,328	2,5	-0,004
2835,47	2,5	-0,002
2837,606	2,5	-0,002
2839,754	2,5	-0,001
2841,89	2,5	-0,001
2844,032	2,5	-0,001
2846,174	3	-0,001
2848,316	2,5	-0,001
2850,457	2,5	-0,001
2852,599	3	-0,001
2854,735	3	-0,001
2856,877	2,5	0
2859,013	2,5	-0,018
2861,149	2,5	-0,042
2863,291	2,5	-0,071
2865,427	2,5	-0,108
2867,568	2,5	-0,191
2869,716	2,5	-0,324
2871,864	1,5	-0,453
2874,006	1	-0,589
2876,154	0,5	-0,706
2878,29	0	-0,737
2880,432	0	-0,788
2882,574	0	-0,95
2884,715	-0,5	-1,016
2886,857	-0,5	-1,126
2888,999	-0,5	-1,192
2891,141	-1	-1,332
2893,283	-1,5	-1,405
2895,425	-1	-1,471
2897,561	-1,5	-1,603
2899,703	-1,5	-1,648
2901,845	-1,5	-1,667
2903,992	-1,5	-1,69
2906,14	-1,5	-1,785
2908,282	-2	-1,91
2910,424	-2,5	-2,03
2912,566	-2,5	-2,176
2914,708	-3	-2,307
2916,85	-3	-2,405
2919,004	-4	-2,6
2921,139	-3,5	-2,626
2923,275	-3,5	-2,546
2925,417	-3,5	-2,589
2927,565	-4	-2,644
2929,713	-4	-2,699
2931,855	-4,5	-2,749
2933,997	-4,5	-2,816
2936,139	-5	-2,924
2938,28	-5,5	-2,959
2940,422	-5,5	-2,994
2942,57	-6	-3,074
2944,712	-6,5	-3,183
2946,854	-6,5	-3,222
2948,996	-6,5	-3,246
2951,138	-7	-3,305
2953,28	-8	-3,338
2955,427	-8	-3,359
2957,569	-7,5	-3,332
2959,705	-8	-3,346
2961,847	-8	-3,371
2963,995	-8,5	-3,392
2966,143	-9	-3,421
2968,291	-9	-3,432
2970,427	-9	-3,429
2972,568	-9,5	-3,444
2974,71	-9,5	-3,455
2976,858	-10	-3,469
2979,006	-10	-3,484
2981,142	-10	-3,487
2983,284	-10	-3,49
2985,42	-10	-3,492
2987,568	-10	-3,495
2989,703	-10	-3,497
2991,857	-10	-3,498
2993,999	-10,5	-3,498
2996,135	-10,5	-3,498
2998,277	-10,5	-3,498
3000,419	-10,5	-3,498
3002,561	-10,5	-3,498
3004,709	-10,5	-3,498
3006,851	-10	-3,498
3008,992	-10	-3,498
3011,14	-10	-3,498
3013,282	-10	-3,498
3015,43	-10	-3,498
3017,578	-10	-3,498
3019,72	-10	-3,498
3021,862	-10	-3,498
3024,01	-10	-3,498
3026,145	-10	-3,498
3028,287	-10	-3,498
3030,429	-10	-3,498
3032,571	-10	-3,498
3034,707	-10	-3,498
3036,849	-10	-3,499
3038,997	-10	-3,499
3041,133	-10	-3,499
3043,274	-10	-3,499
3045,416	-10	-3,499
3047,564	-10	-3,5
3049,7	-10	-3,455
3051,842	-10	-3,477
3053,984	-10	-3,412
3056,132	-10	-3,306
3058,274	-10	-3,277
3060,421	-9,5	-3,221
3062,557	-9,5	-3,248
3064,705	-10	-3,199
3066,853	-9	-3,09
3069,001	-8	-2,956
3071,149	-7,5	-2,838
3073,285	-6,5	-2,764
3075,427	-6,5	-2,752
3077,562	-5,5	-2,63
3079,698	-5,5	-2,663
3081,84	-5	-2,522
3083,982	-4,5	-2,392
3086,118	-4,5	-2,418
3088,26	-4	-2,348
3090,396	-3,5	-2,263
3092,538	-3,5	-2,26
3094,68	-3,5	-2,248
3096,827	-3	-2,172
3098,975	-3	-2,054
3101,111	-2	-1,964
3103,253	-2	-1,946
3105,389	-2	-1,893
3107,537	-1,5	-1,882
3109,673	-1,5	-1,867
3111,821	-1,5	-1,861
3113,962	-1,5	-1,832
3116,098	-1,5	-1,827
3118,24	-1,5	-1,782
3120,382	-1	-1,726
3122,524	-1,5	-1,665
3124,66	-1,5	-1,638
3126,802	-1	-1,534
3128,944	-1	-1,538
3131,079	-1	-1,55
3133,215	-1	-1,544
3135,369	-0,5	-1,402
3137,505	-0,5	-1,334
3139,647	-0,5	-1,268
3141,783	-0,5	-1,407
3143,931	0	-1,145
3146,067	0	-0,89
3148,214	0	-0,646
3150,35	0	-0,567
3152,492	0,5	-0,415
3154,634	1	-0,317
3156,776	1	-0,247
3158,912	1	-0,228
3161,054	1,5	-0,113
3163,202	1,5	-0,111
3165,343	2	-0,076
3167,491	2	-0,058
3169,633	2,5	-0,052
3171,781	2	-0,067
3173,929	2,5	-0,041
3176,071	2,5	-0,03
3178,207	3	-0,024
3180,343	2,5	-0,022
3182,484	2,5	-0,011
3184,626	2,5	-0,009
3186,762	2,5	-0,006
3188,904	2,5	-0,005
3191,052	2,5	-0,003
3193,194	2,5	-0,003
3193,29	2,5	-0,001