File: ensaios_Ciclicos/_50perc/_3gap/entrada/_3.txt
Time (s)	Load (N)	Displacement (mm)
0	0	-0,036
2,189	0	-0,542
4,301	-1	-0,64
6,419	-0,5	-0,607
8,531	0	-0,6
10,643	-1	-0,739
12,755	-1	-0,756
14,867	-1,5	-0,863
16,978	-3	-0,967
19,09	-3	-1,026
21,202	-3,5	-1,134
23,314	-3,5	-1,179
25,426	-4	-1,222
27,538	-4,5	-1,331
29,65	-4,5	-1,427
31,762	-5	-1,492
33,875	-5	-1,51
35,985	-5,5	-1,597
38,097	-5,5	-1,694
40,209	-6	-1,776
42,321	-6	-1,866
44,433	-6	-1,89
46,545	-6	-1,865
48,663	-6,5	-1,922
50,78	-7	-2,04
52,892	-8	-2,136
55,004	-7,5	-2,175
57,122	-8	-2,233
59,24	-8	-2,249
61,358	-9	-2,397
63,47	-9	-2,479
65,582	-9	-2,518
67,694	-10	-2,556
69,811	-10,5	-2,689
71,929	-10,5	-2,795
74,041	-12	-2,924
76,153	-12	-2,892
78,277	-13	-3,025
80,389	-13	-3,117
82,501	-14	-3,202
84,619	-15	-3,317
86,73	-15	-3,366
88,848	-16	-3,408
90,96	-15,5	-3,38
93,072	-16,5	-3,418
95,184	-16,5	-3,433
97,302	-17	-3,451
99,414	-16,5	-3,432
101,532	-16	-3,39
103,649	-15	-3,372
105,761	-15	-3,348
107,879	-14,5	-3,315
110,003	-14,5	-3,295
112,115	-15	-3,312
114,245	-14,5	-3,324
116,357	-15,5	-3,388
118,475	-14,5	-3,298
120,598	-13,5	-3,223
122,716	-12,5	-3,107
124,834	-13	-3,186
126,946	-13,5	-3,282
129,064	-14	-3,296
131,176	-14,5	-3,3
133,294	-15	-3,389
135,406	-15	-3,434
137,523	-16,5	-3,456
139,635	-16,5	-3,465
141,753	-17	-3,481
143,871	-17	-3,482
145,995	-16,5	-3,487
148,107	-17	-3,488
150,225	-17	-3,49
152,337	-17	-3,493
154,449	-17	-3,495
156,566	-17	-3,496
158,678	-17	-3,497
160,796	-17	-3,498
162,908	-17	-3,498
165,026	-17	-3,499
167,144	-17	-3,5
169,262	-17	-3,489
171,38	-17	-3,454
173,503	-17	-3,219
175,615	-16	-3,084
177,739	-14,5	-2,942
179,857	-14	-2,83
181,975	-13	-2,766
184,105	-12	-2,553
186,217	-11	-2,535
188,335	-10	-2,403
190,453	-9	-2,228
192,57	-8	-2,158
194,694	-7,5	-2,007
196,806	-6	-1,883
198,918	-6,5	-1,85
201,036	-5	-1,627
203,154	-4,5	-1,569
205,272	-3,5	-1,361
207,383	-3	-1,19
209,495	-2,5	-1,14
211,613	-2	-1,023
213,737	-1,5	-0,915
215,855	-1,5	-0,846
217,985	-0,5	-0,637
220,103	0	-0,414
222,221	0	-0,224
224,333	0,5	-0,162
226,444	1	-0,117
228,562	1,5	-0,081
230,68	1,5	-0,048
232,792	1,5	-0,032
234,922	1,5	-0,027
237,046	2	-0,02
239,164	2	-0,016
241,288	2	-0,008
243,411	2	-0,007
245,535	2	-0,005
247,659	2	-0,003
249,783	2	-0,002
251,901	2	-0,002
254,019	2	-0,002
256,143	2	-0,002
258,261	2	-0,003
260,378	2	-0,003
262,502	2	-0,002
264,62	2	-0,003
266,744	2	-0,003
268,868	2	-0,004
270,98	2	-0,004
273,098	2	-0,004
275,222	2	-0,004
277,345	2	-0,002
279,469	2	-0,002
281,587	1,5	-0,001
283,705	2	-0,001
285,823	1,5	0
287,935	2	0
290,053	2	-0,001
292,177	1,5	-0,027
294,295	2	-0,207
296,412	2	-0,294
298,536	2	-0,26
300,66	1	-0,499
302,79	0	-0,649
304,908	-0,5	-0,82
307,038	-1	-1
309,162	-1,5	-1,067
311,297	-3	-1,296
313,415	-3	-1,337
315,539	-3	-1,405
317,67	-3	-1,549
319,793	-4	-1,749
321,911	-4,5	-1,935
324,029	-5	-2,03
326,165	-5,5	-2,12
328,289	-6	-2,314
330,406	-7,5	-2,557
332,53	-8	-2,667
334,66	-9,5	-2,902
336,772	-10	-2,996
338,89	-10,5	-3,117
341,008	-11,5	-3,264
343,138	-14,5	-3,406
345,262	-15	-3,451
347,385	-15	-3,472
349,509	-15,5	-3,482
351,633	-15,5	-3,485
353,757	-16	-3,489
355,875	-16	-3,49
357,999	-15,5	-3,489
360,123	-15,5	-3,487
362,241	-15,5	-3,488
364,364	-16	-3,494
366,488	-15,5	-3,487
368,612	-15,5	-3,494
370,73	-16	-3,496
372,848	-15,5	-3,497
374,966	-15,5	-3,498
377,09	-15,5	-3,498
379,214	-15,5	-3,499
381,326	-15,5	-3,499
383,443	-15,5	-3,499
385,567	-15,5	-3,5
387,685	-15,5	-3,489
389,809	-15,5	-3,344
391,927	-15,5	-3,242
394,045	-15	-3,205
396,169	-15	-3,158
398,287	-15	-3,078
400,404	-14,5	-2,984
402,516	-14	-3,013
404,64	-14,5	-3,009
406,758	-14,5	-3
408,876	-14	-2,99
410,994	-14	-3,01
413,112	-14	-3,038
415,236	-13,5	-2,965
417,359	-14,5	-3,09
419,477	-14,5	-3,054
421,601	-14,5	-3,029
423,725	-14	-2,93
425,843	-15	-3,08
427,961	-15	-3,118
430,085	-14	-2,997
432,209	-13,5	-2,877
434,326	-12,5	-2,797
436,444	-12	-2,765
438,562	-11	-2,649
440,686	-11	-2,62
442,804	-10,5	-2,545
444,916	-9,5	-2,485
447,034	-8,5	-2,353
449,158	-9,5	-2,43
451,288	-9	-2,343
453,405	-8	-2,217
455,523	-7	-2,137
457,653	-6	-2,034
459,765	-7	-2,049
461,889	-5,5	-1,988
464,001	-6,5	-2,05
466,125	-5,5	-1,855
468,243	-6	-1,898
470,36	-5,5	-1,898
472,479	-5,5	-1,82
474,602	-4,5	-1,679
476,726	-4	-1,558
478,838	-4	-1,557
480,962	-3	-1,383
483,08	-3	-1,384
485,198	-3	-1,364
487,315	-3	-1,368
489,445	-2,5	-1,224
491,563	-3	-1,198
493,687	-2	-1,12
495,805	-1,5	-1,004
497,923	-1,5	-0,999
500,047	-1,5	-0,964
502,165	-1,5	-1,059
504,282	-1,5	-0,991
506,406	-0,5	-0,808
508,524	-0,5	-0,686
510,648	0	-0,577
512,766	0	-0,524
514,89	0	-0,483
517,014	0	-0,244
519,138	0,5	-0,171
521,256	1	-0,127
523,385	1,5	-0,072
525,497	1,5	-0,076
527,627	1,5	-0,062
529,745	1,5	-0,048
531,869	2	-0,036
533,987	2	-0,036
536,105	2	-0,031
538,229	2	-0,021
540,346	2	-0,014
542,47	2	-0,008
544,594	2	-0,006
546,706	2	-0,007
548,824	2	-0,006
550,96	2	-0,004
553,084	2	-0,003
555,202	2	-0,003
557,331	2	-0,002
559,449	2	-0,001
561,579	2	0
563,697	2	-0,001
565,821	2	-0,027
567,939	2	-0,14
570,063	1,5	-0,098
572,181	2	-0,289
574,31	1	-0,485
576,428	0	-0,644
578,552	-1	-0,918
580,676	-1	-0,91
582,8	-1	-0,961
584,924	-1,5	-1,071
587,054	-2	-1,157
589,172	-1,5	-1,098
591,29	-2	-1,076
593,407	-1,5	-0,959
595,525	-1,5	-1,022
597,649	-2	-1,165
599,767	-2,5	-1,261
601,885	-1,5	-0,982
604,009	-1,5	-1,049
606,127	-1,5	-1,07
608,245	-2	-1,123
610,368	-2	-1,237
612,492	-2,5	-1,272
614,616	-2,5	-1,307
616,74	-2,5	-1,241
618,858	-2,5	-1,176
620,976	-1,5	-1,065
623,094	-1,5	-1,091
625,218	-2	-1,164
627,335	-1,5	-1,147
629,453	-1,5	-0,992
631,571	-0,5	-0,837
633,695	0	-0,776
635,813	0	-0,659
637,937	0	-0,614
640,055	0	-0,631
642,179	0	-0,708
644,296	-1	-0,824
646,426	-1	-0,958
648,55	-1,5	-1,072
650,662	-2	-1,144
652,774	-2	-1,198
654,898	-2,5	-1,393
657,016	-3	-1,472
659,146	-3	-1,617
661,264	-3,5	-1,728
663,387	-4	-1,891
665,511	-4,5	-2,042
667,635	-5,5	-2,242
669,759	-6	-2,372
671,883	-6	-2,486
674,001	-7	-2,615
676,126	-8	-2,74
678,249	-9	-2,946
680,366	-9,5	-3,002
682,49	-10	-3,107
684,608	-10,5	-3,236
686,726	-11	-3,249
688,85	-11,5	-3,309
690,974	-13,5	-3,398
693,092	-13	-3,406
695,21	-13,5	-3,439
697,327	-14	-3,456
699,445	-14,5	-3,472
701,569	-14,5	-3,478
703,693	-14,5	-3,487
705,823	-15	-3,491
707,947	-15	-3,496
710,065	-15	-3,498
712,183	-15	-3,499
714,301	-15	-3,496
716,424	-14,5	-3,235
718,542	-14	-3,148
720,666	-12,5	-2,948
722,79	-11	-2,758
724,914	-10,5	-2,67
727,032	-9	-2,533
729,156	-8	-2,327
731,273	-6,5	-2,168
733,391	-5,5	-1,988
735,509	-4,5	-1,723
737,633	-3,5	-1,603
739,751	-3	-1,538
741,869	-3,5	-1,486
743,993	-2,5	-1,382
746,117	-2,5	-1,288
748,241	-2	-1,194
750,37	-1,5	-1,066
752,488	-2	-1,11
754,612	-1,5	-0,989
756,73	-1	-0,893
758,848	-0,5	-0,804
760,972	-0,5	-0,737
763,096	-0,5	-0,675
765,214	0	-0,629
767,337	0	-0,54
769,461	0	-0,384
771,579	0	-0,251
773,703	0,5	-0,187
775,827	1	-0,09
777,945	1,5	-0,074
780,063	1,5	-0,054
782,199	2	-0,03
784,317	2	-0,026
786,452	2	-0,013
788,577	2,5	-0,01
790,695	2,5	-0,008
792,806	2,5	-0,005
794,924	2	-0,004
797,048	2	-0,003
799,172	2	-0,002
801,29	2	-0,002
803,407	2	-0,001
805,537	2	-0,001
807,655	2	0
809,785	2	-0,18
811,903	2	-0,218
814,027	2	-0,261
816,151	1,5	-0,404
818,269	1	-0,494
820,386	0,5	-0,556
822,51	0	-0,667
824,652	-0,5	-0,876
826,77	-0,5	-0,935
828,888	-1,5	-0,988
831,012	-1,5	-1,054
833,136	-1,5	-1,085
835,254	-1,5	-1,164
837,383	-1,5	-1,25
839,501	-2	-1,302
841,619	-2	-1,255
843,737	-2	-1,248
845,867	-2,5	-1,415
847,985	-3	-1,574
850,103	-3	-1,67
852,227	-3	-1,709
854,339	-3,5	-1,769
856,462	-3	-1,702
858,58	-3	-1,737
860,704	-3	-1,695
862,828	-3	-1,74
864,946	-3	-1,719
867,07	-3,5	-1,839
869,2	-4	-1,983
871,324	-4	-2,071
873,435	-4	-2,068
875,547	-4,5	-2,171
877,665	-5	-2,308
879,783	-5	-2,285
881,913	-5	-2,373
884,037	-5	-2,312
886,161	-5	-2,362
888,291	-5	-2,36
890,402	-5,5	-2,356
892,52	-5	-2,392
894,644	-5,5	-2,395
896,762	-6	-2,489
898,88	-7	-2,652
901,004	-7	-2,7
903,128	-7,5	-2,789
905,246	-8	-2,851
907,364	-8,5	-2,957
909,481	-9	-3,089
911,605	-10	-3,184
913,717	-10	-3,235
915,841	-10,5	-3,25
917,965	-10,5	-3,296
920,089	-11	-3,316
922,213	-11	-3,348
924,331	-11	-3,331
926,46	-12	-3,36
928,578	-11	-3,357
930,708	-12,5	-3,415
932,826	-12,5	-3,413
934,95	-12,5	-3,427
937,068	-13	-3,443
939,192	-13	-3,448
941,315	-13	-3,447
943,439	-13,5	-3,452
945,557	-13,5	-3,468
947,669	-14	-3,472
949,793	-14	-3,482
951,911	-14	-3,487
954,029	-14	-3,491
956,147	-14	-3,493
958,271	-14	-3,495
960,388	-14	-3,495
962,512	-14	-3,496
964,636	-14	-3,498
966,754	-14	-3,498
968,878	-14	-3,498
971,002	-14	-3,499
973,12	-14	-3,499
975,238	-14	-3,499
977,361	-14	-3,5
979,479	-14	-3,494
981,603	-14	-3,461
983,721	-14	-3,438
985,839	-14	-3,5
987,957	-14	-3,5
990,081	-14	-3,498
992,199	-14	-3,488
994,322	-14	-3,4
996,44	-14	-3,394
998,57	-14	-3,293
1000,688	-13,5	-3,256
1002,818	-13,5	-3,156
1004,93	-13	-3,078
1007,054	-12	-3,027
1009,172	-12	-2,915
1011,29	-10,5	-2,734
1013,419	-9	-2,611
1015,537	-9	-2,618
1017,661	-8,5	-2,518
1019,779	-8	-2,482
1021,903	-9	-2,474
1024,021	-7,5	-2,437
1026,145	-7,5	-2,375
1028,263	-8	-2,434
1030,392	-7,5	-2,428
1032,51	-7,5	-2,374
1034,628	-7,5	-2,322
1036,752	-6	-2,218
1038,876	-5,5	-2,145
1040,994	-4,5	-1,976
1043,124	-4,5	-1,863
1045,242	-4	-1,82
1047,365	-3,5	-1,674
1049,495	-2,5	-1,45
1051,607	-2,5	-1,379
1053,719	-3	-1,569
1055,843	-3	-1,449
1057,955	-2,5	-1,453
1060,073	-2,5	-1,427
1062,197	-2	-1,381
1064,314	-2	-1,35
1066,432	-2	-1,312
1068,556	-1,5	-1,24
1070,674	-2	-1,219
1072,798	-1,5	-1,206
1074,922	-1,5	-1,193
1077,046	-1	-1,067
1079,164	-1	-1,014
1081,288	-1	-0,932
1083,405	-1	-0,879
1085,535	-0,5	-0,792
1087,653	0	-0,735
1089,771	0	-0,629
1091,889	0	-0,618
1094,013	0	-0,62
1096,131	0	-0,642
1098,255	0	-0,559
1100,378	0	-0,46
1102,496	0	-0,477
1104,614	0	-0,461
1106,732	0	-0,366
1108,856	0	-0,39
1110,974	0	-0,382
1113,098	0	-0,45
1115,216	0	-0,44
1117,333	0	-0,334
1119,451	0,5	-0,283
1121,575	0,5	-0,224
1123,693	1	-0,17
1125,817	1	-0,101
1127,929	1	-0,104
1130,053	1,5	-0,073
1132,171	1,5	-0,065
1134,288	1,5	-0,068
1136,406	1,5	-0,083
1138,53	1,5	-0,088
1140,654	1,5	-0,088
1142,778	1,5	-0,082
1144,896	1,5	-0,091
1147,02	1,5	-0,091
1149,138	1,5	-0,093
1151,25	1,5	-0,096
1153,367	1	-0,105
1155,479	1	-0,1
1157,597	1,5	-0,099
1159,721	1,5	-0,081
1161,839	1,5	-0,094
1163,963	1	-0,11
1166,081	0,5	-0,17
1168,199	0,5	-0,198
1170,31	0,5	-0,246
1172,428	0,5	-0,317
1174,558	0	-0,271
1176,676	0	-0,296
1178,794	0	-0,337
1180,912	0,5	-0,338
1183,036	0	-0,289
1185,16	0,5	-0,194
1187,283	1	-0,16
1189,401	1	-0,162
1191,519	1	-0,134
1193,631	1,5	-0,129
1195,749	1	-0,147
1197,867	0,5	-0,212
1199,985	1	-0,198
1202,109	1	-0,167
1204,22	0,5	-0,21
1206,356	1	-0,2
1208,474	0,5	-0,229
1210,598	1	-0,177
1212,71	1	-0,165
1214,834	1	-0,18
1216,952	1	-0,145
1219,064	1	-0,16
1221,187	1,5	-0,124
1223,305	1	-0,141
1225,429	1	-0,147
1227,547	1	-0,133
1229,671	1	-0,115
1231,795	1	-0,132
1233,907	0,5	-0,237
1236,031	0	-0,403
1238,149	0	-0,354
1240,266	0	-0,478
1242,39	0	-0,739
1244,508	-0,5	-0,788
1246,632	-0,5	-0,807
1248,744	-0,5	-0,965
1250,868	-0,5	-0,934
1252,986	-1,5	-1,185
1255,104	-1,5	-1,202
1257,227	-2	-1,257
1259,345	-2	-1,31
1261,475	-2	-1,203
1263,587	-2	-1,259
1265,723	-1,5	-1,261
1267,841	-2	-1,42
1269,965	-2,5	-1,466
1272,083	-3	-1,664
1274,212	-3	-1,572
1276,33	-3	-1,62
1278,448	-3,5	-1,699
1280,572	-4	-1,765
1282,69	-3,5	-1,734
1284,808	-4	-1,772
1286,926	-3,5	-1,682
1289,05	-3,5	-1,722
1291,173	-4	-1,777
1293,297	-3,5	-1,773
1295,409	-4,5	-1,873
1297,539	-4	-1,782
1299,657	-3,5	-1,787
1301,775	-3	-1,687
1303,899	-3	-1,594
1306,029	-3	-1,502
1308,147	-3	-1,486
1310,258	-3	-1,538
1312,376	-3	-1,554
1314,494	-3	-1,472
1316,606	-2,5	-1,521
1318,724	-3	-1,516
1320,842	-3	-1,58
1322,96	-3	-1,693
1325,078	-3	-1,644
1327,195	-3	-1,582
1329,313	-3	-1,577
1331,437	-3	-1,552
1333,555	-3	-1,612
1335,673	-3	-1,644
1337,797	-4	-1,816
1339,915	-4	-1,874
1342,039	-4,5	-1,984
1344,156	-5,5	-2,159
1346,28	-5,5	-2,134
1348,398	-6	-2,183
1350,522	-6,5	-2,292
1352,646	-6	-2,24
1354,758	-6,5	-2,34
1356,876	-8	-2,516
1359	-9	-2,615
1361,118	-8,5	-2,568
1363,241	-10	-2,734
1365,353	-10	-2,845
1367,471	-11,5	-3,005
1369,595	-13	-3,06
1371,719	-13	-3,17
1373,837	-13,5	-3,252
1375,955	-13,5	-3,314
1378,079	-13,5	-3,456
1380,196	-13,5	-3,5
1382,308	-13,5	-3,499
1384,432	-13	-3,499
1386,556	-13,5	-3,499
1388,674	-13,5	-3,499
1390,798	-13,5	-3,499
1392,916	-13,5	-3,498
1395,033	-13,5	-3,498
1397,151	-13,5	-3,497
1399,269	-13,5	-3,496
1401,387	-13,5	-3,495
1403,505	-13,5	-3,495
1405,623	-13,5	-3,494
1407,741	-13,5	-3,488
1409,865	-13	-3,487
1411,983	-13	-3,491
1414,106	-13,5	-3,49
1416,218	-13,5	-3,491
1418,342	-13	-3,492
1420,466	-13,5	-3,492
1422,584	-13,5	-3,494
1424,708	-13,5	-3,492
1426,832	-13,5	-3,492
1428,944	-13	-3,491
1431,074	-13	-3,494
1433,197	-13,5	-3,492
1435,315	-13,5	-3,491
1437,439	-13,5	-3,491
1439,551	-13	-3,484
1441,669	-13	-3,48
1443,793	-13	-3,474
1445,905	-12,5	-3,459
1448,023	-12,5	-3,455
1450,134	-12,5	-3,452
1452,252	-12,5	-3,454
1454,37	-12	-3,437
1456,488	-12	-3,416
1458,606	-11,5	-3,39
1460,724	-10,5	-3,378
1462,836	-10	-3,287
1464,954	-9,5	-3,217
1467,077	-9,5	-3,255
1469,195	-8,5	-3,138
1471,313	-8	-3,007
1473,431	-8,5	-3,061
1475,549	-9	-3,146
1477,667	-9	-3,102
1479,785	-9	-3,108
1481,909	-9	-3,18
1484,032	-9,5	-3,241
1486,156	-10	-3,272
1488,274	-10,5	-3,342
1490,386	-10	-3,245
1492,504	-9,5	-3,191
1494,628	-9,5	-3,205
1496,746	-9	-3,2
1498,864	-10	-3,25
1500,976	-9,5	-3,23
1503,099	-9,5	-3,262
1505,211	-9,5	-3,211
1507,329	-9,5	-3,238
1509,447	-9,5	-3,21
1511,565	-10	-3,27
1513,689	-10	-3,298
1515,813	-10,5	-3,348
1517,937	-10,5	-3,334
1520,048	-10,5	-3,322
1522,178	-10,5	-3,358
1524,296	-10,5	-3,358
1526,408	-10,5	-3,333
1528,538	-10,5	-3,338
1530,656	-11	-3,382
1532,768	-11	-3,36
1534,892	-11,5	-3,395
1537,009	-11	-3,387
1539,133	-11,5	-3,416
1541,251	-12	-3,421
1543,369	-11	-3,387
1545,493	-11	-3,398
1547,611	-11,5	-3,404
1549,735	-12	-3,43
1551,853	-12	-3,432
1553,971	-12	-3,44
1556,082	-12	-3,436
1558,212	-12,5	-3,461
1560,33	-12,5	-3,462
1562,448	-13	-3,469
1564,566	-13	-3,454
1566,684	-12,5	-3,461
1568,802	-13	-3,467
1570,926	-13	-3,482
1573,043	-13	-3,485
1575,155	-12,5	-3,462
1577,279	-13	-3,466
1579,403	-13	-3,468
1581,521	-12,5	-3,466
1583,639	-12,5	-3,464
1585,757	-12,5	-3,458
1587,875	-12,5	-3,452
1589,998	-12,5	-3,463
1592,122	-13	-3,464
1594,24	-12,5	-3,464
1596,364	-12,5	-3,466
1598,476	-13	-3,47
1600,594	-12,5	-3,467
1602,712	-12,5	-3,468
1604,83	-12,5	-3,462
1606,948	-12,5	-3,462
1609,065	-12	-3,432
1611,183	-12	-3,432
1613,307	-12	-3,446
1615,431	-12,5	-3,463
1617,543	-12,5	-3,46
1619,661	-12,5	-3,458
1621,785	-12,5	-3,464
1623,902	-12,5	-3,446
1626,026	-12,5	-3,454
1628,15	-12,5	-3,461
1630,262	-12	-3,418
1632,392	-10,5	-3,368
1634,516	-11	-3,367
1636,628	-10	-3,325
1638,74	-10,5	-3,35
1640,864	-11,5	-3,405
1642,987	-12	-3,429
1645,105	-12	-3,428
1647,223	-11,5	-3,42
1649,347	-12	-3,426
1651,465	-10,5	-3,36
1653,589	-10,5	-3,362
1655,701	-9	-3,183
1657,819	-9	-3,167
1659,936	-9	-3,198
1662,06	-9	-3,176
1664,178	-8,5	-3,052
1666,296	-8	-3,014
1668,42	-7,5	-2,933
1670,532	-7,5	-2,855
1672,65	-6	-2,758
1674,774	-7	-2,804
1676,891	-7	-2,766
1679,015	-7,5	-2,801
1681,139	-6	-2,618
1683,263	-5,5	-2,509
1685,381	-5	-2,435
1687,499	-5	-2,434
1689,623	-5,5	-2,512
1691,735	-5	-2,391
1693,852	-4,5	-2,216
1695,976	-4,5	-2,196
1698,1	-4,5	-2,252
1700,218	-4	-2,206
1702,342	-4	-2,192
1704,46	-4,5	-2,213
1706,584	-4,5	-2,248
1708,702	-4	-2,057
1710,826	-3,5	-2,007
1712,943	-2,5	-1,628
1715,067	-2,5	-1,578
1717,185	-2	-1,434
1719,303	-2	-1,322
1721,421	-1,5	-1,236
1723,539	-1,5	-1,216
1725,657	-1	-1,028
1727,775	-0,5	-0,911
1729,893	-1	-0,991
1732,01	-1	-1,048
1734,134	-1,5	-1,195
1736,258	-1,5	-1,32
1738,382	-1,5	-1,44
1740,506	-1,5	-1,422
1742,618	-1,5	-1,253
1744,742	-1,5	-1,288
1746,859	-1,5	-1,352
1748,977	-1,5	-1,4
1751,101	-1,5	-1,407
1753,219	-2	-1,508
1755,337	-2	-1,487
1757,455	-2	-1,466
1759,573	-2	-1,46
1761,691	-1,5	-1,422
1763,809	-2	-1,501
1765,926	-2	-1,538
1768,044	-2	-1,622
1770,168	-2,5	-1,562
1772,29	-2	-1,593
1774,404	-2	-1,656
1776,522	-2,5	-1,715
1778,64	-2,5	-1,682
1780,764	-2,5	-1,66
1782,881	-2,5	-1,733
1784,999	-2,5	-1,757
1787,129	-2,5	-1,644
1789,247	-2	-1,558
1791,365	-2	-1,473
1793,483	-2	-1,552
1795,607	-2	-1,502
1797,731	-2	-1,511
1799,842	-1,5	-1,39
1801,966	-2	-1,323
1804,078	-1,5	-1,218
1806,196	-1,5	-1,155
1808,314	-1,5	-1,064
1810,432	-1	-0,967
1812,55	-1	-0,898
1814,668	-0,5	-0,86
1816,785	0	-0,786
1818,915	-0,5	-0,887
1821,033	0	-0,69
1823,151	0	-0,674
1825,275	0	-0,693
1827,393	0	-0,65
1829,511	0	-0,698
1831,623	0	-0,64
1833,74	1,5	-0,512
1835,858	1,5	-0,512
1837,982	1	-0,42
1840,1	2	-0,306
1842,23	2	-0,264
1844,348	2	-0,058
1846,466	2,5	0
1848,584	2	-0,001
1850,702	2	0
1852,819	2,5	-0,001
1854,937	2	-0,001
1857,055	2,5	-0,002
1859,173	2	-0,004
1861,291	2	-0,004
1863,415	2	-0,004
1865,533	2	-0,004
1867,651	2	-0,004
1869,774	2	-0,005
1871,892	2	-0,007
1874,016	2	-0,008
1876,14	2	-0,009
1878,264	2	-0,014
1880,376	2	-0,017
1882,494	2	-0,019
1884,618	2	-0,018
1886,735	2	-0,016
1888,853	2	-0,018
1890,977	2	-0,02
1893,095	2	-0,025
1895,213	2	-0,032
1897,331	1,5	-0,036
1899,449	1,5	-0,046
1901,573	1,5	-0,04
1903,685	2	-0,045
1905,802	1,5	-0,045
1907,926	1,5	-0,045
1910,044	1,5	-0,044
1912,162	1,5	-0,05
1914,286	1,5	-0,066
1916,404	1,5	-0,054
1918,522	2	-0,049
1920,64	1,5	-0,054
1922,763	1,5	-0,049
1924,881	2	-0,055
1926,999	1,5	-0,043
1929,117	1,5	-0,052
1931,235	1	-0,07
1933,347	1	-0,134
1935,465	0,5	-0,197
1937,583	0,5	-0,237
1939,706	0	-0,35
1941,824	0	-0,419
1943,942	0	-0,69
1946,06	0	-0,674
1948,184	0	-0,763
1950,308	-0,5	-0,807
1952,42	-0,5	-0,944
1954,544	-0,5	-0,909
1956,661	-1	-0,968
1958,779	-1	-1,123
1960,897	-1,5	-1,245
1963,027	-2	-1,345
1965,145	-2,5	-1,548
1967,263	-3,5	-1,782
1969,381	-3,5	-1,84
1971,499	-4,5	-2,038
1973,623	-5,5	-2,2
1975,734	-5	-2,234
1977,852	-6,5	-2,374
1979,976	-7	-2,478
1982,094	-8	-2,642
1984,212	-10,5	-2,865
1986,33	-11	-2,914
1988,454	-11,5	-3,109
1990,566	-13	-3,288
1992,683	-13	-3,456
1994,801	-13	-3,5
1996,919	-13	-3,5
1999,037	-13	-3,499
2001,161	-12,5	-3,5
2003,285	-13	-3,5
2005,397	-12,5	-3,499
2007,515	-12,5	-3,498
2009,638	-12,5	-3,498
2011,762	-12,5	-3,498
2013,874	-12,5	-3,496
2015,992	-12,5	-3,494
2018,116	-12,5	-3,491
2020,228	-12,5	-3,49
2022,346	-12,5	-3,482
2024,464	-12	-3,468
2026,581	-12	-3,452
2028,699	-11	-3,412
2030,817	-10	-3,344
2032,935	-9	-3,274
2035,053	-8,5	-3,131
2037,171	-6,5	-2,854
2039,289	-5,5	-2,668
2041,407	-4	-2,358
2043,525	-3,5	-2,182
2045,648	-3,5	-2,052
2047,766	-2,5	-1,808
2049,884	-2	-1,633
2052,002	-1,5	-1,435
2054,114	-1,5	-1,341
2056,238	-1	-1,073
2058,362	-0,5	-0,799
2060,474	0,5	-0,54
2062,597	1,5	-0,415
2064,721	1	-0,481
2066,833	2	-0,163
2068,951	2	0
2071,069	2	-0,001
2073,187	2	-0,003
2075,305	2,5	-0,006
2077,423	2	-0,006
2079,54	2	-0,012
2081,658	2	-0,023
2083,782	2	-0,037
2085,9	1,5	-0,055
2088,012	1	-0,123
2090,13	0,5	-0,217
2092,254	0	-0,412
2094,366	0	-0,484
2096,483	0	-0,618
2098,595	-0,5	-0,877
2100,713	-1	-1,026
2102,843	-1	-0,945
2104,961	-1	-1,163
2107,091	-1,5	-1,264
2109,209	-2	-1,418
2111,327	-2	-1,542
2113,451	-3	-1,714
2115,568	-4	-2,001
2117,698	-4,5	-2,032
2119,816	-5,5	-2,218
2121,934	-6	-2,378
2124,052	-7,5	-2,608
2126,17	-8	-2,677
2128,288	-10	-2,928
2130,406	-10,5	-3,056
2132,523	-12,5	-3,3
2134,647	-12,5	-3,475
2136,765	-12,5	-3,499
2138,883	-12,5	-3,499
2141,001	-12,5	-3,499
2143,125	-12,5	-3,498
2145,243	-12,5	-3,497
2147,355	-12,5	-3,494
2149,472	-12,5	-3,49
2151,596	-12	-3,487
2153,714	-12	-3,483
2155,832	-12	-3,478
2157,95	-11,5	-3,461
2160,068	-11,5	-3,438
2162,18	-10,5	-3,406
2164,298	-9,5	-3,376
2166,415	-9	-3,289
2168,533	-8,5	-3,239
2170,651	-7,5	-3,052
2172,775	-6	-2,869
2174,893	-6	-2,772
2177,011	-5	-2,602
2179,135	-5,5	-2,712
2181,247	-4,5	-2,5
2183,365	-4,5	-2,415
2185,476	-3,5	-2,258
2187,594	-3	-2,061
2189,712	-3	-1,825
2191,824	-2,5	-1,796
2193,942	-2,5	-1,816
2196,06	-2,5	-1,752
2198,184	-2,5	-1,696
2200,302	-2	-1,617
2202,419	-2	-1,658
2204,537	-2	-1,684
2206,655	-1,5	-1,541
2208,773	-1,5	-1,333
2210,891	-1,5	-1,237
2213,015	-1,5	-1,405
2215,133	-1,5	-1,511
2217,263	-1,5	-1,321
2219,381	-1	-1,065
2221,498	-0,5	-0,761
2223,616	0	-0,65
2225,74	0	-0,611
2227,858	0	-0,7
2229,976	1	-0,572
2232,094	1,5	-0,471
2234,212	1,5	-0,602
2236,336	1,5	-0,499
2238,459	0	-0,672
2240,577	0	-0,63
2242,695	0,5	-0,676
2244,813	1,5	-0,539
2246,937	0,5	-0,6
2249,061	1,5	-0,517
2251,179	0,5	-0,598
2253,297	1	-0,556
2255,42	0,5	-0,621
2257,538	0,5	-0,653
2259,656	1	-0,572
2261,78	0	-0,688
2263,898	-0,5	-0,805
2266,016	-0,5	-0,973
2268,134	-0,5	-1,09
2270,252	-1	-1,122
2272,369	-1	-1,27
2274,487	-1,5	-1,382
2276,605	-1,5	-1,472
2278,723	-1,5	-1,381
2280,841	-1,5	-1,52
2282,959	-2	-1,54
2285,077	-1,5	-1,417
2287,195	-2	-1,502
2289,312	-1,5	-1,586
2291,43	-2	-1,645
2293,554	-1,5	-1,425
2295,672	-2	-1,647
2297,79	-2	-1,748
2299,908	-2,5	-1,838
2302,026	-2,5	-1,896
2304,144	-3	-1,986
2306,261	-3	-2,097
2308,379	-3	-2,124
2310,497	-3,5	-2,161
2312,609	-3	-2,216
2314,733	-3,5	-2,313
2316,851	-3,5	-2,377
2318,969	-4	-2,424
2321,081	-4,5	-2,538
2323,211	-5,5	-2,719
2325,334	-6	-2,925
2327,452	-7	-3,036
2329,57	-7	-3,019
2331,694	-7,5	-3,15
2333,818	-8,5	-3,252
2335,93	-8	-3,284
2338,054	-9,5	-3,363
2340,172	-10	-3,4
2342,289	-10,5	-3,424
2344,407	-10,5	-3,446
2346,525	-11	-3,46
2348,643	-11	-3,468
2350,761	-11,5	-3,475
2352,879	-11,5	-3,484
2354,997	-11,5	-3,486
2357,121	-12	-3,489
2359,238	-11,5	-3,491
2361,362	-12	-3,494
2363,48	-12	-3,496
2365,598	-12	-3,497
2367,71	-12	-3,498
2369,828	-12	-3,498
2371,952	-12	-3,499
2374,07	-12	-3,499
2376,188	-12	-3,5
2378,311	-11,5	-3,437
2380,429	-11,5	-3,354
2382,547	-12	-3,284
2384,665	-12	-3,207
2386,783	-11	-3,122
2388,901	-10,5	-3,037
2391,013	-10,5	-3,014
2393,131	-10	-2,971
2395,242	-10	-2,954
2397,354	-9	-2,899
2399,478	-8,5	-2,789
2401,596	-7,5	-2,658
2403,714	-6,5	-2,518
2405,832	-5,5	-2,372
2407,95	-5	-2,259
2410,074	-4,5	-2,172
2412,191	-4	-2,077
2414,315	-3,5	-1,988
2416,427	-3,5	-1,959
2418,551	-3	-1,798
2420,669	-2,5	-1,744
2422,793	-2,5	-1,678
2424,911	-2,5	-1,594
2427,029	-1,5	-1,476
2429,153	-1,5	-1,388
2431,27	-1,5	-1,325
2433,388	-1	-1,117
2435,506	-0,5	-1,001
2437,63	-0,5	-0,892
2439,748	0	-0,792
2441,866	0	-0,643
2443,984	0	-0,488
2446,102	0	-0,469
2448,219	0	-0,384
2450,337	0	-0,32
2452,455	0,5	-0,214
2454,567	0,5	-0,196
2456,679	0,5	-0,18
2458,797	1	-0,139
2460,915	1,5	-0,117
2463,033	1	-0,084
2465,144	1,5	-0,076
2467,262	1,5	-0,051
2469,386	2	-0,034
2471,504	2	-0,026
2473,622	2	-0,024
2475,74	2	-0,015
2477,864	2	-0,01
2479,988	2	-0,006
2482,111	2	-0,004
2484,229	2	-0,003
2486,347	2,5	-0,002
2488,465	2	-0,002
2490,589	2	-0,002
2492,707	2	-0,001
2494,825	2	-0,001
2496,937	2	-0,001
2499,054	2,5	0
2501,172	2,5	-0,066
2503,29	2	-0,122
2505,408	2	-0,138
2507,526	2	-0,196
2509,65	2,5	-0,243
2511,774	1,5	-0,355
2513,886	1,5	-0,462
2516,004	1	-0,511
2518,121	0,5	-0,548
2520,233	0,5	-0,607
2522,357	0,5	-0,727
2524,475	0	-0,861
2526,593	-0,5	-0,983
2528,711	-1	-1,111
2530,829	-1	-1,162
2532,947	-1	-1,289
2535,058	-1,5	-1,287
2537,176	-1	-1,371
2539,288	-1,5	-1,442
2541,418	-1,5	-1,57
2543,536	-2	-1,633
2545,654	-2	-1,718
2547,766	-2	-1,703
2549,89	-2	-1,743
2552,013	-2	-1,847
2554,131	-2,5	-1,868
2556,243	-2,5	-1,892
2558,355	-2,5	-1,92
2560,473	-2,5	-1,977
2562,597	-3	-2,038
2564,709	-3	-2,084
2566,833	-3	-2,144
2568,95	-3,5	-2,227
2571,074	-3,5	-2,274
2573,192	-3,5	-2,359
2575,31	-4	-2,465
2577,434	-4,5	-2,574
2579,546	-4,5	-2,576
2581,658	-4,5	-2,662
2583,776	-5,5	-2,827
2585,894	-5,5	-2,927
2588,011	-5,5	-2,938
2590,123	-6	-3,007
2592,247	-6,5	-3,102
2594,365	-7,5	-3,192
2596,483	-8	-3,29
2598,601	-8,5	-3,339
2600,725	-8,5	-3,358
2602,843	-9	-3,378
2604,96	-9	-3,376
2607,072	-9	-3,386
2609,202	-9	-3,407
2611,32	-9,5	-3,408
2613,438	-9,5	-3,415
2615,556	-9,5	-3,418
2617,674	-9,5	-3,423
2619,792	-9,5	-3,438
2621,915	-10	-3,443
2624,033	-10	-3,451
2626,145	-9,5	-3,44
2628,263	-10	-3,438
2630,393	-10	-3,453
2632,511	-9,5	-3,457
2634,629	-10	-3,454
2636,747	-10	-3,461
2638,865	-10	-3,455
2640,982	-9,5	-3,455
2643,1	-10	-3,458
2645,224	-10	-3,461
2647,342	-10	-3,459
2649,46	-10	-3,457
2651,578	-10	-3,461
2653,702	-10	-3,466
2655,82	-10	-3,47
2657,937	-10,5	-3,468
2660,055	-10,5	-3,472
2662,173	-10	-3,473
2664,297	-10,5	-3,474
2666,421	-10,5	-3,475
2668,539	-10	-3,478
2670,663	-10,5	-3,481
2672,781	-10	-3,482
2674,91	-10,5	-3,488
2677,028	-10,5	-3,488
2679,146	-10,5	-3,488
2681,27	-10,5	-3,491
2683,388	-10,5	-3,492
2685,512	-10,5	-3,494
2687,63	-10,5	-3,495
2689,748	-10,5	-3,494
2691,86	-10,5	-3,493
2693,977	-10,5	-3,492
2696,101	-10,5	-3,492
2698,219	-10,5	-3,493
2700,337	-10,5	-3,493
2702,455	-10,5	-3,494
2704,573	-10,5	-3,495
2706,697	-10,5	-3,496
2708,809	-10,5	-3,496
2710,932	-10,5	-3,497
2713,05	-10,5	-3,497
2715,168	-10,5	-3,498
2717,292	-10,5	-3,498
2719,41	-10,5	-3,499
2721,528	-10,5	-3,498
2723,646	-10,5	-3,498
2725,764	-10,5	-3,499
2727,881	-10,5	-3,498
2729,999	-10,5	-3,499
2732,117	-10,5	-3,499
2734,235	-10,5	-3,499
2736,353	-10,5	-3,499
2738,471	-10,5	-3,5
2740,589	-10,5	-3,5
2742,707	-10,5	-3,478
2744,83	-10,5	-3,419
2746,942	-10,5	-3,327
2749,066	-10,5	-3,257
2751,184	-10	-3,164
2753,308	-9,5	-3,06
2755,42	-9,5	-2,999
2757,538	-9	-2,941
2759,662	-8,5	-2,868
2761,779	-9	-2,939
2763,891	-8,5	-2,938
2766,015	-9	-2,934
2768,133	-8,5	-2,881
2770,251	-8	-2,83
2772,375	-7,5	-2,773
2774,493	-7,5	-2,794
2776,611	-7,5	-2,784
2778,734	-7,5	-2,754
2780,852	-7	-2,717
2782,982	-6	-2,599
2785,1	-6,5	-2,583
2787,212	-6	-2,604
2789,324	-6	-2,628
2791,442	-6,5	-2,629
2793,566	-6	-2,594
2795,684	-6	-2,605
2797,801	-5,5	-2,583
2799,919	-5,5	-2,457
2802,037	-5,5	-2,483
2804,161	-5	-2,417
2806,279	-5	-2,316
2808,397	-4,5	-2,188
2810,515	-4	-2,178
2812,633	-4	-2,174
2814,744	-4	-2,242
2816,868	-4	-2,19
2818,992	-4	-2,139
2821,11	-3,5	-2,103
2823,228	-3,5	-2,124
2825,346	-3,5	-2,072
2827,464	-3	-2,056
2829,582	-3	-2,014
2831,7	-3	-1,966
2833,817	-3	-1,887
2835,935	-3	-1,839
2838,059	-2,5	-1,814
2840,177	-2	-1,747
2842,295	-2,5	-1,736
2844,413	-2	-1,634
2846,531	-2	-1,7
2848,649	-2	-1,704
2850,772	-2	-1,648
2852,89	-2	-1,633
2855,014	-2	-1,567
2857,132	-1,5	-1,562
2859,25	-1,5	-1,489
2861,38	-1,5	-1,439
2863,498	-1,5	-1,398
2865,622	-1	-1,313
2867,739	-1	-1,314
2869,857	-1	-1,32
2871,981	-1	-1,28
2874,099	-1	-1,258
2876,211	-1	-1,284
2878,329	-1	-1,294
2880,447	-1	-1,26
2882,571	-1	-1,239
2884,688	-1	-1,223
2886,806	-1	-1,203
2888,924	-1	-1,224
2891,042	-1	-1,267
2893,166	-0,5	-1,217
2895,284	-0,5	-1,217
2897,402	-1	-1,28
2899,52	-0,5	-1,27
2901,643	-1	-1,193
2903,761	-0,5	-1,228
2905,885	-1	-1,212
2907,997	-0,5	-1,168
2910,115	-0,5	-1,194
2912,233	-0,5	-1,147
2914,357	0	-1,018
2916,475	0	-0,932
2918,599	0	-0,8
2920,717	0	-0,742
2922,828	0	-0,742
2924,946	0	-0,748
2927,064	0	-0,689
2929,188	0	-0,618
2931,306	0	-0,612
2933,424	0	-0,554
2935,542	0	-0,522
2937,653	0	-0,521
2939,771	0	-0,452
2941,889	0	-0,431
2944,007	0	-0,433
2946,125	0	-0,4
2948,243	0,5	-0,311
2950,361	0	-0,275
2952,479	0	-0,242
2954,596	0,5	-0,164
2956,72	1	-0,142
2958,838	1	-0,134
2960,962	1,5	-0,095
2963,074	1,5	-0,1
2965,198	1,5	-0,074
2967,316	1,5	-0,068
2969,434	1,5	-0,064
2971,552	1,5	-0,055
2973,669	1,5	-0,054
2975,787	1,5	-0,064
2977,905	1,5	-0,062
2980,023	1,5	-0,076
2982,141	1,5	-0,098
2984,259	1	-0,114
2986,371	1,5	-0,112
2988,489	1	-0,113
2990,606	1,5	-0,086
2992,718	1,5	-0,066
2994,836	2	-0,046
2996,96	2	-0,053
2999,09	2	-0,034
3001,202	2	-0,033
3003,32	2	-0,025
3005,438	2	-0,022
3007,555	2	-0,018
3009,685	2	-0,015
3011,803	2	-0,013
3013,915	2	-0,011
3016,033	2,5	-0,007
3018,169	2,5	-0,004
3020,281	2	-0,003
3022,399	2	-0,002
3024,522	2	-0,002
3026,64	2,5	-0,002
3028,758	2,5	-0,002
3030,876	2	-0,003
3032,994	2	-0,004
3035,112	2	-0,004
3037,23	2,5	-0,006
3039,348	2	-0,009
3041,471	2	-0,008
3043,589	2	-0,011
3045,713	2	-0,013
3047,825	2	-0,013
3049,943	2	-0,014
3052,061	2	-0,02
3054,179	1,5	-0,03
3056,297	2	-0,038
3058,415	1,5	-0,045
3060,532	1,5	-0,055
3062,65	1,5	-0,062
3064,768	1,5	-0,068
3066,886	1,5	-0,061
3068,998	1,5	-0,072
3071,116	1,5	-0,094
3073,24	1,5	-0,083
3075,358	1,5	-0,07
3077,482	1,5	-0,065
3079,605	1,5	-0,074
3081,729	1,5	-0,066
3083,847	1,5	-0,081
3085,971	1,5	-0,077
3088,089	1	-0,097
3090,207	1,5	-0,092
3092,319	1	-0,121
3094,46	1,5	-0,076
3096,572	1,5	-0,09
3098,69	1,5	-0,096
3100,802	1,5	-0,119
3102,926	1,5	-0,105
3105,044	1,5	-0,1
3107,162	1,5	-0,094
3109,28	1,5	-0,073
3111,397	1,5	-0,063
3113,515	1,5	-0,078
3115,633	1,5	-0,079
3117,751	1,5	-0,108
3119,869	1,5	-0,116
3121,981	1	-0,145
3124,099	1	-0,195
3126,217	0,5	-0,239
3128,335	0,5	-0,343
3130,452	0,5	-0,324
3132,564	0,5	-0,392
3134,682	0,5	-0,488
3136,8	0	-0,563
3138,912	0	-0,693
3141,042	0	-0,603
3143,154	0	-0,632
3145,272	0	-0,724
3147,389	0	-0,783
3149,501	0	-0,908
3151,619	0	-0,963
3153,737	0	-1,073
3155,855	0	-1,058
3157,979	0	-1,146
3160,097	-0,5	-1,252
3162,221	0	-1,246
3164,344	0	-1,254
3166,468	0	-1,334
3168,586	-0,5	-1,468
3170,704	-0,5	-1,526
3172,816	-0,5	-1,573
3173,476	2,5	0