File: ensaios_Ciclicos/_50perc/_3gap/entrada/_4.txt
Time (s)	Load (N)	Displacement (mm)
0	0	-0,035
2,279	-0,5	-0,553
4,462	-1	-0,633
6,647	-1,5	-0,782
8,831	-2	-0,872
11,015	-2	-0,91
13,198	-3	-0,963
15,382	-3	-1,006
17,566	-3	-1,021
19,75	-3	-1,064
21,933	-4	-1,127
24,117	-4,5	-1,256
26,307	-4,5	-1,333
28,491	-4,5	-1,376
30,675	-5,5	-1,53
32,859	-6	-1,663
35,043	-6	-1,731
37,227	-6	-1,79
39,428	-7	-1,95
41,612	-7,5	-1,987
43,802	-7,5	-2,075
45,986	-8,5	-2,224
48,17	-8	-2,229
50,36	-9	-2,334
52,55	-9,5	-2,471
54,734	-11	-2,645
56,923	-11,5	-2,712
59,113	-12,5	-2,828
61,297	-13	-2,924
63,493	-14,5	-3,116
65,677	-15	-3,202
67,861	-15,5	-3,323
70,045	-16,5	-3,388
72,235	-17	-3,411
74,419	-17,5	-3,426
76,602	-17,5	-3,426
78,792	-17,5	-3,435
80,988	-18	-3,458
83,178	-18,5	-3,479
85,362	-18,5	-3,48
87,558	-18,5	-3,486
89,742	-18,5	-3,488
91,931	-18,5	-3,49
94,115	-18,5	-3,49
96,311	-18,5	-3,492
98,507	-18,5	-3,495
100,697	-18,5	-3,496
102,881	-18,5	-3,497
105,077	-18	-3,498
107,273	-18,5	-3,498
109,469	-18	-3,499
111,664	-18	-3,5
113,848	-18	-3,494
116,032	-18	-3,376
118,222	-18	-3,219
120,418	-17	-3,056
122,614	-15,5	-2,959
124,798	-15	-2,857
126,982	-15	-2,804
129,177	-13	-2,595
131,367	-12	-2,49
133,551	-11,5	-2,395
135,741	-10,5	-2,279
137,925	-10,5	-2,232
140,109	-9	-2,136
142,293	-8,5	-2,024
144,494	-7,5	-1,845
146,69	-6	-1,662
148,88	-5,5	-1,541
151,082	-4,5	-1,345
153,267	-3,5	-1,245
155,462	-3	-1,035
157,652	-2,5	-1,011
159,848	-2	-0,845
162,037	-1,5	-0,708
164,227	-0,5	-0,514
166,417	-0,5	-0,436
168,601	0	-0,351
170,785	0	-0,259
172,975	0	-0,151
175,171	1	-0,093
177,354	1,5	-0,054
179,556	1,5	-0,028
181,752	1,5	-0,015
183,942	1,5	-0,008
186,132	1,5	-0,006
188,322	1,5	-0,004
190,518	1,5	-0,003
192,702	1,5	-0,002
194,886	1,5	-0,001
197,081	1,5	-0,001
199,277	2	-0,003
201,473	1,5	-0,222
203,663	0	-0,474
205,859	0	-0,635
208,049	-1	-0,814
210,233	-2	-0,957
212,416	-2,5	-1,132
214,6	-3	-1,277
216,79	-3,5	-1,424
218,98	-4	-1,629
221,182	-5	-1,856
223,384	-6,5	-2,172
225,574	-7,5	-2,323
227,758	-8	-2,488
229,941	-10	-2,733
232,137	-11	-2,956
234,333	-12	-3,119
236,517	-12,5	-3,224
238,707	-14,5	-3,334
240,891	-15	-3,392
243,081	-15	-3,43
245,271	-15,5	-3,46
247,46	-16,5	-3,475
249,656	-16,5	-3,488
251,846	-17	-3,495
254,036	-17	-3,497
256,226	-16,5	-3,498
258,428	-16,5	-3,499
260,618	-17	-3,5
262,808	-16,5	-3,383
264,998	-16	-3,206
267,187	-16,5	-2,991
269,383	-13	-2,808
271,573	-12,5	-2,699
273,769	-11	-2,517
275,959	-9	-2,333
278,149	-8,5	-2,175
280,345	-7	-2,009
282,541	-5,5	-1,81
284,73	-5	-1,664
286,92	-4	-1,484
289,116	-3	-1,303
291,312	-3	-1,146
293,496	-2,5	-1,05
295,68	-2,5	-0,993
297,876	-2	-0,911
300,077	-1	-0,726
302,273	-1	-0,585
304,457	-0,5	-0,49
306,653	0	-0,286
308,855	0,5	-0,157
311,057	1	-0,066
313,247	1,5	-0,05
315,461	1,5	-0,023
317,644	1,5	-0,016
319,834	1,5	-0,008
322,03	1,5	-0,004
324,221	2	-0,002
326,41	1,5	-0,002
328,606	2	-0,001
330,796	1,5	0
332,992	1,5	-0,113
335,193	1,5	-0,315
337,397	0,5	-0,506
339,585	0	-0,627
341,775	-0,5	-0,758
343,971	-1,5	-0,967
346,161	-2	-1,157
348,357	-3	-1,386
350,559	-3,5	-1,626
352,76	-4,5	-1,812
354,95	-4,5	-1,949
357,146	-5,5	-2,146
359,342	-6	-2,276
361,538	-7	-2,436
363,734	-9	-2,705
365,93	-10	-2,926
368,126	-10,5	-3,021
370,327	-11,5	-3,148
372,523	-12,5	-3,249
374,719	-13,5	-3,344
376,927	-13,5	-3,386
379,117	-14,5	-3,4
381,313	-15	-3,436
383,509	-15	-3,455
385,705	-15,5	-3,474
387,906	-15,5	-3,482
390,102	-16	-3,491
392,292	-16	-3,494
394,482	-16	-3,496
396,678	-16	-3,497
398,868	-16	-3,498
401,064	-16	-3,499
403,272	-16	-3,499
405,455	-16	-3,483
407,657	-16	-3,242
409,865	-15	-3,051
412,067	-14,5	-2,929
414,257	-12,5	-2,776
416,453	-12	-2,675
418,649	-10,5	-2,444
420,845	-9,5	-2,33
423,046	-8	-2,129
425,248	-6	-1,907
427,444	-6	-1,83
429,64	-4	-1,516
431,842	-3	-1,286
434,032	-2,5	-1,21
436,234	-1,5	-0,97
438,442	-1	-0,765
440,632	-0,5	-0,676
442,827	-0,5	-0,558
445,017	0	-0,448
447,225	0	-0,286
449,415	0,5	-0,205
451,605	0,5	-0,134
453,795	1	-0,093
455,991	1,5	-0,052
458,18	1,5	-0,034
460,382	1,5	-0,021
462,572	1,5	-0,018
464,768	2	-0,012
466,965	2	-0,007
469,166	2	-0,004
471,368	2	-0,003
473,564	2	-0,002
475,753	1,5	-0,001
477,949	2	-0,001
480,139	2	-0,001
482,341	2	-0,001
484,531	2	0
486,739	2	0
488,929	2	-0,058
491,125	2	-0,211
493,32	2	-0,299
495,522	1,5	-0,421
497,712	1	-0,484
499,908	0	-0,672
502,104	-1	-0,839
504,3	-1	-0,972
506,496	-2	-1,07
508,692	-2,5	-1,22
510,881	-2,5	-1,335
513,071	-3	-1,461
515,267	-3,5	-1,633
517,457	-3,5	-1,797
519,659	-4,5	-1,971
521,855	-5	-2,095
524,051	-5	-2,24
526,241	-6	-2,392
528,436	-6,5	-2,473
530,644	-8	-2,614
532,84	-8,5	-2,765
535,042	-9,5	-2,86
537,244	-10,5	-3,077
539,44	-11,5	-3,244
541,636	-12,5	-3,358
543,837	-14	-3,423
546,033	-14,5	-3,438
548,223	-15	-3,448
550,419	-15	-3,467
552,615	-15	-3,48
554,811	-15	-3,489
557,007	-15	-3,494
559,197	-15	-3,495
561,393	-15	-3,497
563,6	-15	-3,498
565,802	-15	-3,499
568,01	-15	-3,499
570,206	-15	-3,5
572,402	-15	-3,394
574,598	-15	-3,325
576,788	-15	-3,193
578,977	-14,5	-3,076
581,173	-13	-2,916
583,369	-12	-2,797
585,571	-11	-2,675
587,761	-10	-2,566
589,957	-9,5	-2,447
592,153	-7,5	-2,228
594,355	-7	-2,09
596,551	-6,5	-1,998
598,752	-5,5	-1,854
600,942	-4,5	-1,75
603,138	-3,5	-1,589
605,334	-3	-1,306
607,53	-2	-1,155
609,726	-2	-1,048
611,922	-1,5	-0,96
614,112	-1	-0,82
616,313	-0,5	-0,554
618,509	0	-0,41
620,705	0	-0,321
622,901	0,5	-0,178
625,097	1	-0,103
627,299	1,5	-0,054
629,495	1,5	-0,036
631,696	1,5	-0,02
633,88	2	-0,019
636,076	2	-0,012
638,284	2	-0,006
640,48	2	-0,004
642,676	2	-0,003
644,872	2	-0,002
647,062	2	-0,001
649,257	2	-0,001
651,447	2	-0,001
653,637	2	0
655,833	2	-0,041
658,035	1,5	-0,276
660,231	1,5	-0,392
662,439	0	-0,555
664,635	0	-0,651
666,825	-0,5	-0,791
669,02	-1,5	-0,896
671,216	-1,5	-1,01
673,412	-2,5	-1,128
675,614	-2,5	-1,25
677,81	-2,5	-1,332
680,006	-2,5	-1,434
682,196	-3	-1,618
684,386	-3,5	-1,696
686,581	-4	-1,851
688,777	-4,5	-1,996
690,961	-5	-2,07
693,157	-5,5	-2,205
695,353	-6	-2,34
697,543	-6	-2,45
699,745	-7	-2,656
701,934	-8,5	-2,729
704,124	-8,5	-2,796
706,32	-10	-3,01
708,516	-11	-3,172
710,718	-12	-3,308
712,914	-13	-3,36
715,104	-13,5	-3,399
717,3	-13,5	-3,428
719,502	-14,5	-3,454
721,703	-15	-3,474
723,899	-15	-3,482
726,095	-15	-3,49
728,291	-15	-3,494
730,487	-15	-3,496
732,683	-15	-3,498
734,879	-15	-3,498
737,063	-15	-3,499
739,252	-15	-3,499
741,448	-15	-3,499
743,644	-15	-3,486
745,834	-15	-3,373
748,036	-14,5	-3,188
750,232	-13,5	-3,041
752,434	-12,5	-2,919
754,623	-12	-2,835
756,819	-10,5	-2,68
759,015	-9	-2,535
761,205	-9	-2,462
763,395	-8	-2,389
765,579	-8	-2,304
767,769	-6,5	-2,174
769,965	-6	-2,082
772,166	-5	-1,949
774,356	-5	-1,814
776,552	-4	-1,72
778,748	-3	-1,555
780,944	-3,5	-1,452
783,134	-3	-1,377
785,33	-3	-1,324
787,538	-2	-1,131
789,727	-1,5	-0,984
791,917	-1,5	-0,938
794,119	-1	-0,769
796,315	-0,5	-0,601
798,511	0	-0,521
800,701	0	-0,496
802,897	0	-0,414
805,093	0	-0,286
807,294	0,5	-0,165
809,49	1	-0,104
811,686	1,5	-0,073
813,882	1,5	-0,062
816,084	1,5	-0,032
818,28	1,5	-0,026
820,482	2	-0,019
822,684	2	-0,01
824,873	2	-0,005
827,075	2	-0,004
829,265	2	-0,004
831,461	2	-0,003
833,651	2	-0,002
835,853	2	-0,002
838,043	1,5	-0,001
840,239	2	-0,001
842,428	2	-0,001
844,624	2	0
846,814	2	-0,003
849,01	2	-0,144
851,206	2	-0,256
853,402	1,5	-0,36
855,586	1,5	-0,392
857,788	1	-0,508
859,984	0	-0,628
862,167	0	-0,697
864,363	-0,5	-0,815
866,559	-0,5	-0,939
868,749	-1,5	-1,112
870,945	-2	-1,188
873,147	-2	-1,315
875,343	-2,5	-1,492
877,538	-3	-1,606
879,734	-3	-1,752
881,93	-3,5	-1,874
884,126	-4,5	-2,03
886,322	-5	-2,186
888,512	-5	-2,311
890,702	-6	-2,432
892,892	-6	-2,489
895,087	-7	-2,634
897,277	-7,5	-2,786
899,473	-8	-2,872
901,663	-9,5	-3,041
903,859	-10	-3,138
906,055	-10	-3,241
908,245	-12	-3,366
910,447	-13	-3,413
912,642	-13,5	-3,438
914,832	-14	-3,459
917,028	-14,5	-3,466
919,224	-14,5	-3,478
921,42	-14,5	-3,484
923,61	-15	-3,486
925,806	-15	-3,491
927,996	-15	-3,492
930,185	-14,5	-3,494
932,375	-15	-3,496
934,571	-14,5	-3,497
936,773	-15	-3,498
938,963	-14,5	-3,499
941,153	-15	-3,499
943,343	-15	-3,499
945,533	-15	-3,499
947,728	-15	-3,5
949,924	-14,5	-3,396
952,114	-15	-3,338
954,31	-14	-3,112
956,5	-12,5	-2,939
958,69	-12	-2,86
960,88	-10,5	-2,714
963,076	-10	-2,579
965,265	-9	-2,522
967,455	-8,5	-2,459
969,651	-8,5	-2,358
971,841	-7,5	-2,264
974,037	-6	-2,071
976,227	-5,5	-1,987
978,423	-4,5	-1,811
980,613	-4	-1,765
982,802	-4	-1,676
984,998	-3	-1,51
987,188	-2,5	-1,373
989,378	-2	-1,285
991,574	-2	-1,169
993,77	-2	-1,069
995,954	-1,5	-0,99
998,15	-1	-0,93
1000,345	-0,5	-0,779
1002,541	-0,5	-0,64
1004,731	0	-0,572
1006,927	0	-0,332
1009,123	0	-0,243
1011,313	1	-0,19
1013,503	1,5	-0,106
1015,693	1,5	-0,072
1017,882	1,5	-0,05
1020,078	2	-0,031
1022,268	2	-0,024
1024,458	2	-0,014
1026,648	2	-0,009
1028,838	2	-0,007
1031,034	2	-0,006
1033,218	2	-0,005
1035,413	2	-0,004
1037,603	2	-0,003
1039,799	2	-0,002
1041,989	2	-0,002
1044,179	2	-0,002
1046,375	2	-0,001
1048,565	2	-0,001
1050,755	2	-0,001
1052,95	2	0
1055,14	2	0
1057,33	2	0
1059,514	2	-0,002
1061,71	2	-0,076
1063,9	2	-0,238
1066,096	1,5	-0,338
1068,292	1,5	-0,451
1070,475	0,5	-0,564
1072,671	-0,5	-0,73
1074,855	-0,5	-0,799
1077,051	-1	-0,923
1079,241	-1,5	-1,055
1081,437	-2	-1,146
1083,627	-2	-1,176
1085,811	-2	-1,25
1088,006	-2,5	-1,3
1090,196	-2,5	-1,42
1092,392	-2,5	-1,538
1094,582	-2,5	-1,536
1096,778	-3	-1,65
1098,968	-3	-1,647
1101,164	-3	-1,767
1103,354	-3,5	-1,764
1105,543	-3,5	-1,9
1107,739	-4	-2,02
1109,929	-4,5	-2,181
1112,125	-5,5	-2,337
1114,309	-5,5	-2,38
1116,505	-6	-2,499
1118,695	-6,5	-2,63
1120,885	-7	-2,676
1123,074	-7,5	-2,775
1125,27	-8	-2,898
1127,46	-9	-3,061
1129,65	-10	-3,156
1131,846	-10,5	-3,237
1134,036	-10,5	-3,258
1136,22	-10,5	-3,262
1138,416	-11	-3,327
1140,611	-12	-3,37
1142,802	-12,5	-3,398
1144,997	-13	-3,414
1147,181	-13	-3,425
1149,377	-13,5	-3,448
1151,567	-13,5	-3,46
1153,763	-14	-3,474
1155,959	-14	-3,483
1158,142	-14	-3,489
1160,338	-14,5	-3,492
1162,528	-14,5	-3,493
1164,724	-14,5	-3,496
1166,908	-14,5	-3,496
1169,098	-14,5	-3,497
1171,288	-14,5	-3,498
1173,484	-14,5	-3,499
1175,673	-14,5	-3,499
1177,869	-14,5	-3,5
1180,053	-14,5	-3,471
1182,249	-14,5	-3,317
1184,439	-14	-3,177
1186,635	-12,5	-2,988
1188,819	-11	-2,818
1191,015	-10	-2,667
1193,204	-7,5	-2,444
1195,394	-7	-2,251
1197,59	-6	-2,175
1199,78	-5,5	-2,119
1201,976	-5,5	-2,027
1204,166	-4,5	-1,885
1206,362	-4	-1,794
1208,552	-4	-1,726
1210,747	-3	-1,55
1212,931	-3	-1,479
1215,127	-2	-1,292
1217,311	-1,5	-1,192
1219,507	-1,5	-1,115
1221,697	-1,5	-1,079
1223,893	-1	-0,951
1226,077	-1	-0,908
1228,273	-0,5	-0,832
1230,462	0	-0,744
1232,658	0	-0,552
1234,848	0	-0,516
1237,044	0	-0,34
1239,228	0,5	-0,215
1241,424	1	-0,144
1243,614	1,5	-0,096
1245,809	1,5	-0,063
1247,999	2	-0,025
1250,195	2,5	-0,015
1252,379	2	-0,012
1254,575	2	-0,011
1256,759	2	-0,008
1258,955	2	-0,005
1261,157	2	-0,004
1263,352	2	-0,003
1265,536	2,5	-0,003
1267,726	2	-0,002
1269,916	2	-0,002
1272,112	2	-0,001
1274,302	2	-0,001
1276,492	2	-0,001
1278,688	2	0
1280,877	2	0
1283,073	2	-0,058
1285,257	2	-0,228
1287,453	2	-0,354
1289,637	2	-0,391
1291,821	1	-0,466
1294,017	0,5	-0,612
1296,207	0,5	-0,642
1298,402	0	-0,75
1300,592	0	-0,78
1302,788	-1	-0,984
1304,978	-1,5	-1,142
1307,174	-2	-1,286
1309,364	-2	-1,369
1311,56	-2,5	-1,61
1313,75	-2,5	-1,768
1315,945	-3	-1,865
1318,129	-3,5	-2,019
1320,325	-4	-2,126
1322,509	-4	-2,18
1324,699	-4,5	-2,199
1326,895	-5	-2,336
1329,085	-5,5	-2,481
1331,275	-6	-2,611
1333,464	-6	-2,695
1335,66	-7,5	-2,851
1337,856	-9	-3,049
1340,046	-9	-3,165
1342,236	-10	-3,22
1344,426	-10,5	-3,346
1346,622	-12	-3,403
1348,812	-12,5	-3,431
1351,008	-12,5	-3,449
1353,197	-13,5	-3,47
1355,393	-13,5	-3,482
1357,583	-13,5	-3,489
1359,773	-14	-3,495
1361,963	-14	-3,497
1364,153	-14	-3,498
1366,349	-14	-3,498
1368,538	-14	-3,499
1370,734	-14	-3,499
1372,924	-14	-3,5
1375,12	-14	-3,337
1377,31	-13,5	-3,14
1379,506	-13,5	-3,084
1381,69	-13	-3,116
1383,88	-13,5	-3,108
1386,069	-12	-3,014
1388,259	-12	-2,941
1390,455	-10,5	-2,807
1392,645	-10	-2,696
1394,841	-9	-2,558
1397,031	-6	-2,256
1399,221	-6,5	-2,19
1401,423	-5,5	-2,04
1403,612	-4,5	-1,872
1405,802	-4	-1,735
1407,992	-3	-1,643
1410,188	-3	-1,556
1412,378	-2,5	-1,414
1414,574	-2,5	-1,39
1416,764	-2,5	-1,383
1418,954	-2	-1,299
1421,144	-2	-1,147
1423,333	-1,5	-1,117
1425,523	-1,5	-1,082
1427,713	-1	-0,934
1429,903	-1	-0,863
1432,099	-0,5	-0,664
1434,289	0	-0,596
1436,485	0	-0,434
1438,674	0	-0,368
1440,866	0	-0,323
1443,054	0,5	-0,219
1445,25	1	-0,13
1447,44	1	-0,114
1449,63	1	-0,112
1451,826	1,5	-0,095
1454,016	1,5	-0,08
1456,211	1,5	-0,07
1458,401	1,5	-0,06
1460,597	1,5	-0,034
1462,787	1,5	-0,033
1464,977	1,5	-0,028
1467,173	1,5	-0,028
1469,357	1,5	-0,029
1471,547	2	-0,022
1473,73	2	-0,024
1475,92	2	-0,018
1478,11	2	-0,013
1480,3	2	-0,011
1482,49	2	-0,015
1484,68	2	-0,02
1486,87	2	-0,02
1489,066	2	-0,009
1491,255	2	-0,007
1493,439	2	-0,007
1495,629	2	-0,006
1497,819	2	-0,006
1500,009	2	-0,005
1502,199	2	-0,003
1504,389	2	-0,003
1506,579	2	-0,003
1508,768	2	-0,002
1510,964	2	-0,002
1513,154	2	-0,001
1515,35	2	-0,001
1517,54	2	-0,001
1519,73	2,5	-0,001
1521,926	2	-0,001
1524,109	2	-0,001
1526,299	2	-0,001
1528,489	2	-0,001
1530,679	2	0
1532,881	2	-0,001
1535,071	2	-0,001
1537,261	2	0
1539,451	2	-0,001
1541,641	2	-0,001
1543,824	2	-0,001
1546,02	2	-0,001
1548,21	2	-0,001
1550,4	2	-0,001
1552,59	2	-0,001
1554,774	2	-0,001
1556,976	2	-0,001
1559,166	2	-0,001
1561,355	2	-0,001
1563,545	2	0
1565,735	2	-0,001
1567,925	2	0
1570,115	2	0
1572,299	2	0
1574,495	2	0
1576,685	2	-0,076
1578,868	2	-0,216
1581,064	2	-0,323
1583,254	1,5	-0,342
1585,45	2	-0,327
1587,64	2	-0,228
1589,824	2	-0,133
1592,02	2	-0,168
1594,21	2	-0,2
1596,405	2	-0,278
1598,595	1,5	-0,318
1600,779	1,5	-0,304
1602,975	1,5	-0,353
1605,165	1,5	-0,394
1607,349	1	-0,522
1609,545	0,5	-0,592
1611,735	-0,5	-0,766
1613,93	-0,5	-0,89
1616,12	-1	-1,032
1618,304	-1	-1,052
1620,5	-1,5	-1,166
1622,69	-2	-1,35
1624,88	-2,5	-1,53
1627,076	-3	-1,749
1629,259	-3	-1,845
1631,455	-3	-1,899
1633,645	-3	-1,886
1635,835	-3,5	-1,932
1638,031	-3,5	-1,998
1640,221	-4	-2,086
1642,411	-3,5	-2,132
1644,607	-4,5	-2,225
1646,791	-4,5	-2,272
1648,98	-5	-2,424
1651,176	-5,5	-2,543
1653,366	-6	-2,701
1655,556	-7	-2,8
1657,752	-8	-2,928
1659,942	-8,5	-3,06
1662,132	-9,5	-3,191
1664,321	-10	-3,279
1666,511	-10,5	-3,285
1668,713	-11,5	-3,373
1670,903	-12	-3,406
1673,093	-12,5	-3,437
1675,289	-13	-3,461
1677,479	-13	-3,471
1679,669	-13,5	-3,482
1681,859	-13,5	-3,486
1684,048	-13,5	-3,489
1686,244	-13,5	-3,492
1688,434	-13,5	-3,494
1690,624	-13,5	-3,494
1692,82	-13,5	-3,495
1695,01	-13,5	-3,496
1697,2	-13,5	-3,497
1699,39	-13,5	-3,497
1701,579	-13,5	-3,498
1703,769	-13,5	-3,498
1705,959	-13,5	-3,498
1708,149	-13,5	-3,499
1710,345	-13,5	-3,499
1712,529	-13,5	-3,499
1714,719	-13,5	-3,499
1716,908	-13,5	-3,5
1719,098	-13,5	-3,498
1721,288	-13,5	-3,498
1723,484	-13,5	-3,272
1725,674	-13	-3,249
1727,864	-13,5	-3,225
1730,06	-12,5	-3,061
1732,244	-11	-2,924
1734,44	-10	-2,831
1736,629	-9,5	-2,795
1738,819	-8,5	-2,659
1741,009	-8	-2,624
1743,199	-8,5	-2,636
1745,395	-8,5	-2,624
1747,585	-8	-2,638
1749,775	-8	-2,591
1751,964	-7,5	-2,556
1754,16	-7,5	-2,523
1756,35	-7,5	-2,492
1758,54	-7	-2,415
1760,736	-6,5	-2,323
1762,926	-6	-2,319
1765,11	-6	-2,298
1767,3	-7	-2,289
1769,49	-6	-2,302
1771,679	-6	-2,235
1773,875	-4,5	-2,063
1776,059	-5	-2,094
1778,255	-5	-2,109
1780,445	-4,5	-2,08
1782,629	-4,5	-2,058
1784,825	-4,5	-2,009
1787,015	-4,5	-1,979
1789,204	-4	-1,901
1791,4	-4,5	-1,846
1793,59	-4	-1,859
1795,78	-4	-1,764
1797,97	-3	-1,644
1800,16	-3	-1,615
1802,35	-3	-1,569
1804,545	-2,5	-1,546
1806,729	-2,5	-1,519
1808,919	-2,5	-1,452
1811,115	-2,5	-1,364
1813,305	-2	-1,346
1815,501	-1,5	-1,206
1817,691	-1,5	-1,096
1819,881	-1	-1,003
1822,077	-1	-0,944
1824,266	-1	-0,892
1826,456	-1	-0,867
1828,652	-0,5	-0,764
1830,836	-1	-0,748
1833,026	-0,5	-0,686
1835,216	-0,5	-0,619
1837,406	-0,5	-0,615
1839,595	0	-0,495
1841,791	0	-0,436
1843,981	0	-0,385
1846,171	0	-0,281
1848,367	0	-0,232
1850,551	0	-0,22
1852,741	0,5	-0,178
1854,937	0,5	-0,114
1857,126	1	-0,081
1859,316	1,5	-0,054
1861,512	1,5	-0,046
1863,702	1,5	-0,027
1865,892	1,5	-0,027
1868,088	1,5	-0,022
1870,272	1,5	-0,018
1872,462	2	-0,013
1874,658	2	-0,011
1876,847	2	-0,01
1879,037	2	-0,008
1881,227	2	-0,007
1883,423	2	-0,005
1885,613	2	-0,003
1887,809	2	-0,002
1889,999	2	-0,002
1892,189	2	-0,001
1894,378	2	-0,001
1896,574	2	-0,001
1898,764	2	0
1900,954	2	0
1903,15	2	-0,004
1905,34	2	-0,015
1907,53	2	-0,112
1909,725	2	-0,16
1911,915	2	-0,242
1914,105	2	-0,305
1916,301	1,5	-0,371
1918,491	1,5	-0,439
1920,675	1,5	-0,439
1922,865	1	-0,496
1925,055	0,5	-0,547
1927,244	0,5	-0,588
1929,434	0	-0,665
1931,624	0	-0,733
1933,814	0	-0,721
1936,004	0	-0,724
1938,194	-0,5	-0,796
1940,384	-0,5	-0,805
1942,574	-1	-0,915
1944,763	-1	-0,966
1946,959	-1,5	-1,069
1949,149	-1,5	-1,241
1951,339	-1,5	-1,262
1953,535	-1,5	-1,305
1955,725	-2	-1,394
1957,915	-2,5	-1,419
1960,111	-2,5	-1,462
1962,3	-2	-1,451
1964,49	-2	-1,48
1966,674	-2	-1,586
1968,87	-3	-1,913
1971,06	-3	-1,927
1973,25	-3	-2,015
1975,446	-3,5	-2,14
1977,636	-4,5	-2,301
1979,825	-4,5	-2,364
1982,015	-5	-2,503
1984,211	-6	-2,635
1986,407	-6	-2,716
1988,597	-7	-2,846
1990,793	-8	-2,992
1992,983	-8,5	-3,091
1995,167	-8,5	-3,117
1997,362	-9	-3,23
1999,546	-10	-3,351
2001,73	-11,5	-3,385
2003,926	-12	-3,424
2006,116	-12,5	-3,45
2008,306	-12,5	-3,469
2010,496	-13	-3,48
2012,692	-13	-3,491
2014,881	-13,5	-3,494
2017,065	-13	-3,496
2019,255	-13,5	-3,498
2021,445	-13	-3,498
2023,629	-13,5	-3,499
2025,825	-13	-3,499
2028,015	-13	-3,499
2030,199	-13	-3,5
2032,382	-13	-3,472
2034,578	-13	-3,208
2036,768	-12	-3,102
2038,958	-11,5	-2,96
2041,154	-10	-2,778
2043,344	-8,5	-2,578
2045,528	-7	-2,44
2047,718	-5,5	-2,239
2049,914	-4,5	-2,03
2052,103	-4	-1,889
2054,293	-3	-1,667
2056,483	-2,5	-1,541
2058,673	-2	-1,394
2060,869	-1,5	-1,276
2063,065	-1	-1,099
2065,255	-1	-0,935
2067,444	-0,5	-0,815
2069,634	-0,5	-0,701
2071,83	0	-0,524
2074,02	0	-0,319
2076,21	0,5	-0,206
2078,4	0,5	-0,142
2080,596	1,5	-0,085
2082,786	1,5	-0,06
2084,975	1,5	-0,036
2087,171	2	-0,021
2089,361	2	-0,01
2091,551	2	-0,004
2093,741	2	-0,002
2095,931	2	-0,002
2098,121	2	-0,002
2100,311	2	-0,001
2102,506	2	0
2104,696	2	0
2106,88	2	-0,04
2109,07	2	-0,213
2111,26	2	-0,294
2113,45	1,5	-0,453
2115,64	0,5	-0,632
2117,83	0	-0,689
2120,019	0	-0,83
2122,209	-1	-0,946
2124,399	-1	-1,071
2126,595	-1	-1,189
2128,779	-1,5	-1,27
2130,969	-2	-1,437
2133,165	-2,5	-1,656
2135,361	-3	-1,84
2137,55	-3	-1,991
2139,74	-3,5	-2,07
2141,924	-4	-2,176
2144,114	-4	-2,212
2146,304	-4	-2,252
2148,5	-5	-2,467
2150,69	-5,5	-2,65
2152,874	-5,5	-2,682
2155,07	-6,5	-2,79
2157,259	-7,5	-3
2159,443	-8	-3,054
2161,633	-8,5	-3,169
2163,829	-10,5	-3,341
2166,019	-11,5	-3,388
2168,209	-11,5	-3,423
2170,399	-12	-3,443
2172,594	-12,5	-3,464
2174,784	-12,5	-3,472
2176,974	-12,5	-3,479
2179,17	-13	-3,49
2181,36	-13	-3,493
2183,55	-13	-3,495
2185,746	-13	-3,496
2187,936	-13	-3,497
2190,119	-13	-3,498
2192,309	-13	-3,499
2194,505	-13	-3,499
2196,695	-13	-3,499
2198,885	-13	-3,496
2201,075	-13	-3,332
2203,265	-13	-3,316
2205,449	-12,5	-3,254
2207,638	-12	-3,101
2209,834	-12	-3,034
2212,03	-10	-2,868
2214,22	-9	-2,736
2216,416	-7,5	-2,575
2218,606	-6,5	-2,396
2220,79	-6	-2,3
2222,98	-5	-2,179
2225,175	-4,5	-2,114
2227,365	-4,5	-2,053
2229,555	-4	-1,996
2231,739	-4	-1,98
2233,935	-3,5	-1,851
2236,119	-3	-1,794
2238,309	-3	-1,63
2240,505	-2	-1,506
2242,701	-2	-1,425
2244,89	-1,5	-1,347
2247,08	-1	-1,221
2249,276	-1	-1,055
2251,466	-0,5	-0,945
2253,656	-0,5	-0,915
2255,852	-0,5	-0,77
2258,042	0	-0,634
2260,225	0	-0,506
2262,415	0	-0,39
2264,611	0,5	-0,239
2266,801	1	-0,167
2268,985	1	-0,109
2271,175	1,5	-0,075
2273,371	1,5	-0,044
2275,561	2	-0,028
2277,744	2	-0,024
2279,934	2	-0,014
2282,13	2	-0,007
2284,32	2	-0,006
2286,51	2	-0,004
2288,694	2	-0,003
2290,89	2	-0,002
2293,074	2	-0,002
2295,263	2	-0,001
2297,459	2	-0,001
2299,649	2	-0,001
2301,833	2	-0,002
2304,023	2	-0,169
2306,219	1,5	-0,329
2308,409	1,5	-0,456
2310,593	1	-0,536
2312,782	0	-0,736
2314,972	-0,5	-0,836
2317,156	-1,5	-1,075
2319,346	-1,5	-1,169
2321,536	-1,5	-1,272
2323,732	-2	-1,439
2325,916	-2	-1,546
2328,106	-2,5	-1,645
2330,295	-2,5	-1,766
2332,497	-3	-1,96
2334,681	-3	-2,047
2336,871	-3,5	-2,216
2339,061	-4,5	-2,366
2341,257	-4,5	-2,48
2343,441	-4,5	-2,554
2345,631	-5	-2,66
2347,814	-5	-2,691
2350,01	-6	-2,857
2352,194	-6,5	-2,91
2354,384	-6	-2,951
2356,58	-7,5	-3,059
2358,77	-8	-3,152
2360,954	-7,5	-3,147
2363,144	-8	-3,263
2365,339	-9	-3,322
2367,529	-10,5	-3,4
2369,719	-10,5	-3,426
2371,909	-11,5	-3,445
2374,105	-11,5	-3,458
2376,295	-12	-3,467
2378,479	-12	-3,477
2380,669	-12,5	-3,488
2382,858	-12,5	-3,492
2385,048	-12,5	-3,494
2387,232	-12,5	-3,495
2389,422	-12,5	-3,497
2391,618	-12,5	-3,497
2393,808	-12,5	-3,498
2395,998	-12,5	-3,498
2398,188	-12,5	-3,499
2400,383	-12	-3,499
2402,573	-12,5	-3,471
2404,757	-12	-3,371
2406,947	-12	-3,214
2409,143	-10	-2,96
2411,333	-9,5	-2,824
2413,517	-9	-2,776
2415,713	-8	-2,668
2417,902	-6,5	-2,516
2420,092	-6	-2,354
2422,276	-5,5	-2,294
2424,472	-4	-2,075
2426,662	-3	-1,864
2428,852	-2,5	-1,674
2431,042	-2	-1,534
2433,238	-1,5	-1,42
2435,427	-1,5	-1,253
2437,617	-1,5	-1,26
2439,807	-1	-1,23
2442,003	-0,5	-1,043
2444,193	-0,5	-1,002
2446,383	-0,5	-0,892
2448,579	-0,5	-0,799
2450,769	0	-0,791
2452,959	-0,5	-0,739
2455,148	0	-0,709
2457,344	0	-0,645
2459,534	0	-0,615
2461,724	0	-0,526
2463,914	0	-0,438
2466,11	0	-0,314
2468,3	0	-0,27
2470,489	0,5	-0,167
2472,679	1	-0,148
2474,875	1	-0,117
2477,065	1,5	-0,103
2479,249	1	-0,106
2481,439	1,5	-0,107
2483,635	1,5	-0,086
2485,825	1,5	-0,07
2488,014	1,5	-0,057
2490,204	1,5	-0,05
2492,394	1,5	-0,048
2494,584	2	-0,034
2496,774	2	-0,032
2498,964	2	-0,022
2501,16	2	-0,015
2503,344	2	-0,013
2505,533	2	-0,009
2507,729	2	-0,006
2509,919	2	-0,004
2512,109	2	-0,004
2514,299	2	-0,003
2516,489	2	-0,003
2518,685	2	-0,003
2520,875	2	-0,002
2523,064	2	-0,002
2525,26	2	-0,001
2527,45	2	-0,001
2529,64	2	-0,001
2531,83	2	-0,001
2534,02	2	-0,001
2536,216	2	-0,001
2538,406	2	0
2540,595	2	0
2542,791	2	0
2544,975	2	0
2547,165	2	0
2549,355	2	0
2551,551	2	-0,006
2553,741	2	-0,002
2555,931	2	-0,051
2558,12	2	-0,17
2560,31	2	-0,201
2562,5	2	-0,319
2564,69	1,5	-0,366
2566,88	0,5	-0,599
2569,07	0	-0,682
2571,26	0	-0,68
2573,45	0	-0,747
2575,645	-0,5	-0,892
2577,835	-0,5	-0,902
2580,025	-0,5	-1,032
2582,215	-1	-1,062
2584,405	-1	-1,087
2586,601	-1	-1,206
2588,791	-1	-1,203
2590,981	-1,5	-1,201
2593,17	-1	-1,29
2595,366	-1,5	-1,398
2597,55	-1,5	-1,489
2599,74	-2	-1,551
2601,936	-2	-1,642
2604,126	-2	-1,694
2606,316	-2,5	-1,819
2608,506	-2,5	-1,934
2610,701	-3	-2,047
2612,891	-3	-2,216
2615,081	-3,5	-2,32
2617,271	-4	-2,41
2619,461	-4,5	-2,575
2621,657	-4,5	-2,637
2623,847	-4,5	-2,597
2626,037	-5	-2,644
2628,226	-5	-2,721
2630,422	-5,5	-2,808
2632,612	-6	-2,886
2634,802	-6,5	-3,044
2636,992	-7	-3,057
2639,188	-7,5	-3,16
2641,378	-8,5	-3,314
2643,568	-8,5	-3,351
2645,751	-9	-3,353
2647,941	-9,5	-3,399
2650,131	-10,5	-3,434
2652,321	-10,5	-3,454
2654,523	-11	-3,468
2656,713	-11	-3,472
2658,903	-11	-3,474
2661,093	-11	-3,477
2663,282	-11	-3,482
2665,478	-11	-3,484
2667,668	-11	-3,488
2669,858	-11	-3,492
2672,048	-11	-3,492
2674,244	-11	-3,495
2676,434	-11	-3,498
2678,624	-11	-3,498
2680,813	-11	-3,498
2682,997	-10,5	-3,499
2685,181	-11	-3,499
2687,365	-11	-3,499
2689,555	-10,5	-3,499
2691,751	-11	-3,5
2693,941	-10,5	-3,5
2696,131	-10,5	-3,5
2698,32	-10,5	-3,5
2700,516	-10,5	-3,408
2702,7	-10,5	-3,3
2704,89	-10,5	-3,192
2707,08	-10	-3,086
2709,276	-9	-3,006
2711,466	-8,5	-2,964
2713,65	-8	-2,879
2715,852	-6,5	-2,704
2718,041	-6	-2,61
2720,231	-5,5	-2,5
2722,421	-5	-2,375
2724,611	-4,5	-2,308
2726,807	-3	-2,061
2728,997	-3	-1,994
2731,187	-2,5	-1,905
2733,382	-2	-1,675
2735,578	-1,5	-1,579
2737,768	-1,5	-1,5
2739,958	-2	-1,438
2742,154	-1	-1,346
2744,344	-0,5	-1,204
2746,534	-0,5	-1,122
2748,724	0	-1,012
2750,913	0	-0,908
2753,103	0	-0,766
2755,293	0	-0,746
2757,483	0	-0,584
2759,673	0	-0,469
2761,869	0,5	-0,291
2764,059	1	-0,125
2766,249	1,5	-0,105
2768,438	1,5	-0,065
2770,628	2	-0,031
2772,824	2	-0,025
2775,014	2	-0,016
2777,204	2	-0,011
2779,4	2	-0,006
2781,59	2	-0,004
2783,786	2	-0,003
2785,969	2,5	-0,002
2788,165	2	-0,001
2790,355	2	0
2792,557	2	-0,083
2794,747	2	-0,189
2796,943	1,5	-0,396
2799,127	1,5	-0,46
2801,311	1,5	-0,491
2803,5	0,5	-0,634
2805,696	0	-0,816
2807,886	0	-0,921
2810,076	-0,5	-1,026
2812,26	-1	-1,121
2814,462	-1	-1,242
2816,652	-1,5	-1,437
2818,842	-1,5	-1,51
2821,031	-1,5	-1,604
2823,221	-2	-1,761
2825,411	-2,5	-1,887
2827,601	-2,5	-1,965
2829,791	-2,5	-2,016
2831,987	-3	-2,162
2834,171	-3	-2,247
2836,361	-3,5	-2,356
2838,55	-3	-2,445
2840,746	-4	-2,574
2842,936	-4	-2,614
2845,12	-4	-2,672
2847,31	-4,5	-2,793
2849,5	-5	-2,966
2851,696	-5,5	-3,053
2853,892	-6	-3,193
2856,075	-6,5	-3,232
2858,265	-6,5	-3,314
2860,461	-7	-3,338
2862,651	-7	-3,381
2864,841	-8	-3,425
2867,025	-8,5	-3,45
2869,215	-9	-3,467
2871,405	-9	-3,469
2873,594	-9	-3,481
2875,784	-9	-3,489
2877,98	-9	-3,493
2880,17	-9	-3,495
2882,36	-9	-3,496
2884,55	-9	-3,498
2886,746	-9	-3,499
2888,936	-9,5	-3,499
2891,125	-9	-3,499
2893,315	-9	-3,5
2895,511	-9	-3,427
2897,701	-9	-3,306
2899,897	-9	-3,146
2902,087	-8,5	-3,066
2904,283	-6,5	-2,862
2906,473	-5,5	-2,694
2908,662	-4,5	-2,531
2910,858	-3,5	-2,385
2913,048	-4	-2,344
2915,232	-3	-2,276
2917,422	-2,5	-2,06
2919,612	-2	-2,009
2921,802	-2	-1,93
2923,992	-1,5	-1,901
2926,181	-1,5	-1,775
2928,371	-1	-1,66
2930,567	-1	-1,579
2932,757	-1	-1,501
2934,947	-0,5	-1,385
2937,137	-0,5	-1,276
2939,333	0	-1,11
2941,523	0	-1,064
2943,712	0	-0,976
2945,902	0	-0,834
2948,092	0	-0,729
2950,288	0	-0,515
2952,478	0,5	-0,4
2954,668	0,5	-0,328
2956,858	1	-0,178
2959,053	1	-0,131
2961,243	1,5	-0,08
2963,427	1,5	-0,068
2965,617	1,5	-0,051
2967,807	1,5	-0,043
2969,997	2	-0,028
2972,187	2,5	-0,016
2974,377	2,5	-0,012
2976,572	2	-0,007
2978,756	2	-0,007
2980,946	2	-0,005
2983,136	2	-0,004
2985,326	2	-0,002
2987,522	2	-0,002
2989,712	2	-0,001
2991,902	2,5	-0,001
2994,092	2	-0,001
2996,287	2	0
2998,477	2,5	-0,057
3000,667	2	-0,177
3002,857	2	-0,321
3005,053	0,5	-0,586
3007,243	0	-0,744
3009,433	0	-0,849
3011,623	-0,5	-1,033
3013,818	-1	-1,226
3016,002	-1	-1,37
3018,186	-1	-1,528
3020,376	-1,5	-1,815
3022,566	-2	-2,015
3024,756	-2	-2,125
3026,946	-2,5	-2,228
3029,136	-2	-2,274
3031,331	-2,5	-2,286
3033,521	-2,5	-2,428
3035,711	-3	-2,564
3037,901	-3	-2,69
3040,097	-3,5	-2,825
3042,287	-4,5	-2,96
3044,477	-4,5	-3,065
3046,667	-5	-3,186
3048,862	-4,5	-3,278
3051,052	-5,5	-3,357
3053,236	-6	-3,376
3055,426	-6	-3,389
3057,616	-6,5	-3,428
3059,806	-7	-3,45
3061,996	-7,5	-3,464
3064,186	-7,5	-3,472
3066,375	-7,5	-3,479
3068,571	-7,5	-3,485
3070,761	-7,5	-3,489
3072,951	-7,5	-3,493
3075,141	-7,5	-3,496
3077,337	-7,5	-3,497
3079,527	-7,5	-3,498
3081,711	-7,5	-3,498
3083,9	-7,5	-3,499
3086,102	-8	-3,499
3088,292	-7,5	-3,466
3090,482	-7,5	-3,366
3092,672	-7,5	-3,256
3094,862	-6,5	-3,089
3097,052	-6	-3
3099,242	-5	-2,901
3101,425	-6	-2,891
3103,615	-5	-2,745
3105,811	-4	-2,626
3108,001	-3	-2,51
3110,191	-3	-2,38
3112,387	-2,5	-2,33
3114,577	-2,5	-2,253
3116,767	-2	-2,099
3118,956	-1,5	-2,011
3121,146	-1,5	-1,924
3123,342	-1	-1,874
3125,532	-1	-1,678
3127,722	-0,5	-1,574
3129,912	-0,5	-1,429
3132,102	0	-1,356
3134,291	0	-1,218
3136,475	0	-1,165
3138,665	0	-0,907
3140,867	0	-0,689
3143,057	0	-0,629
3145,247	0	-0,55
3147,437	0	-0,489
3149,633	0,5	-0,337
3151,822	0,5	-0,281
3154,012	0,5	-0,232
3156,196	1	-0,19
3158,392	1	-0,117
3160,582	1,5	-0,082
3162,772	1,5	-0,045
3164,968	1,5	-0,036
3167,158	2	-0,028
3169,354	2	-0,019
3171,543	2	-0,01
3173,733	2	-0,007
3175,923	2	-0,004
3178,119	2	-0,002
3180,309	2	-0,002
3182,499	2	-0,001
3184,683	2	-0,001
3186,879	2	-0,001
3189,068	2	0
3191,252	1,5	-0,035
3193,442	2	-0,185
3195,632	1,5	-0,412
3197,828	1	-0,5
3200,012	0,5	-0,589
3202,196	0	-0,76
3204,386	0	-0,875
3206,581	-0,5	-1,036
3208,771	-0,5	-1,209
3210,961	-1	-1,335
3213,151	-1	-1,506
3215,347	-1	-1,686
3217,537	-1,5	-1,774
3219,727	-1,5	-1,937
3221,916	-1,5	-2,079
3224,112	-2,5	-2,331
3226,302	-2,5	-2,526
3228,492	-2,5	-2,63
3230,682	-3	-2,755
3232,872	-3,5	-2,875
3235,062	-4	-3,022
3237,252	-4,5	-3,186
3239,441	-4,5	-3,278
3241,631	-5,5	-3,396
3243,827	-6	-3,446
3246,017	-6,5	-3,461
3248,207	-6,5	-3,47
3250,397	-7	-3,479
3252,593	-7	-3,487
3253,889	2	0