File: Cycling_tests/_30perc/_1gap/entrada/_2.txt
Time (s)	Load (N)	Displacement (mm)
0	0,5	-0,029
0,732	-29,5	-3,441
1,587	-5	-0,874
2,435	-7,5	-1,376
3,233	-27,5	-3,436
3,995	2,5	-0,042
4,781	-14	-2,52
5,549	-20,5	-2,572
6,377	2,5	-0,001
7,173	-25	-3,431
7,96	-8	-1,32
8,856	-5	-1,262
9,659	-26,5	-3,499
10,492	3	-0,017
11,32	-16,5	-2,887
12,059	-16	-2,272
12,803	3	-0,001
13,642	-24	-3,44
14,404	-7,5	-1,227
15,214	-0,5	-0,847
16,528	-9	-1,508
17,35	0	-0,774
18,118	-25	-3,496
18,944	0,5	-0,194
19,744	-8	-1,947
20,524	-24	-3,028
21,334	3,5	-0,005
22,126	-18	-3,108
22,942	-9	-1,503
23,728	2,5	-0,474
24,531	-24,5	-3,495
25,353	0,5	-0,302
26,151	-7,5	-1,828
26,968	-23	-2,983
27,771	3,5	-0,005
28,608	-20	-3,338
29,361	-9	-1,677
30,105	3,5	-0,228
30,849	-23,5	-3,462
31,629	-4,5	-1,13
32,421	-2	-1,002
33,175	-24	-3,498
33,999	2	-0,112
34,815	-9,5	-2,218
35,625	-18	-2,628
36,405	3,5	-0,002
37,164	-18	-3,213
37,875	-12,5	-2,128
38,721	3,5	-0,251
39,507	-23,5	-3,485
40,275	-2,5	-0,856
41,061	-2	-1,05
41,877	-23,5	-3,499
42,715	3,5	-0,028
43,472	-10	-2,29
44,313	-15	-2,384
88,302	4	-0,001
89,053	-17,5	-3,269
89,779	-9,5	-1,934
90,522	4	0
91,272	-20,5	-3,435
92,04	-5	-1,4
92,796	3	-0,391
93,552	-22	-3,485
94,266	-3	-1,138
94,986	3	-0,4
95,735	-22	-3,484
96,491	-1,5	-0,926
97,241	-0,5	-0,894
98,039	-22	-3,498
98,784	1,5	-0,259
99,473	-3	-1,267
100,251	-22	-3,499
101,003	3	-0,098
101,723	-5	-1,752
102,485	-22	-3,304
103,217	3,5	-0,038
103,961	-7,5	-2,17
104,759	-16,5	-2,699
105,527	4	-0,004
106,295	-15	-3,095
107,057	-9	-1,898
107,789	4	-0,001
108,557	-19,5	-3,431
109,313	-4,5	-1,444
110,543	-12,5	-2,815
111,317	-11,5	-2,207
112,102	4	-0,001
112,879	-20	-3,445
113,621	-4,5	-1,41
114,37	3	-0,485
115,108	-21,5	-3,484
115,877	-0,5	-0,889
116,609	-0,5	-0,884
117,382	-21	-3,498
118,12	1	-0,431
118,846	-3	-1,379
119,572	-21	-3,499
120,293	1,5	-0,348
121,084	-4,5	-1,727
121,874	-21	-3,134
122,596	4	-0,022
123,388	-10	-2,513
124,162	-13	-2,476
124,906	4	-0,003
125,65	-15	-3,153
126,37	-10,5	-2,18
127,138	4	-0,001
127,965	-20,5	-3,464
128,686	-3	-1,366
129,465	0,5	-0,701
130,173	-21	-3,492
333,976	2	-0,563
334,714	-18	-3,489
335,398	-0,5	-1,212
336,106	3,5	-0,462
336,79	-18	-3,463
337,504	-2,5	-1,438
338,205	4,5	-0,142
338,89	-17	-3,406
339,604	-4	-1,719
340,305	4,5	0
340,99	-15	-3,288
341,739	-4,5	-1,826
342,453	4,5	0
343,173	-16	-3,362
343,851	-6,5	-2,096
344,529	4,5	-0,002
345,225	-10,5	-2,883
345,903	-12,5	-2,628
346,605	4,5	-0,007
347,337	-9	-2,646
348,105	-10,5	-2,432
348,825	4,5	-0,003
349,515	-9,5	-2,844
350,217	-12,5	-2,68
350,907	4,5	-0,011
351,615	-7,5	-2,427
352,281	-17	-3,122
352,965	4	-0,047
353,625	-3,5	-1,766
354,315	-18	-3,499
354,999	2,5	-0,277
355,659	-1,5	-1,101
356,822	-5,5	-1,937
357,501	4,5	-0,002
358,22	-13,5	-3,162
358,91	-8	-2,23
359,648	4,5	-0,002
360,386	-12,5	-3,145
361,106	-7,5	-2,171
361,796	4,5	-0,002
362,521	-12	-3,102
363,206	-9,5	-2,362
363,89	4,5	-0,004
364,622	-10	-2,81
365,342	-10	-2,41
366,074	4,5	-0,002
366,799	-11	-2,929
367,496	-10	-2,47
368,204	4,5	-0,004
368,894	-8,5	-2,58
369,554	-18	-2,958
370,238	4,5	-0,028
370,952	-5,5	-2,165
371,648	-18	-3,319
372,343	4	-0,071
411,929	-0,5	-0,938
412,607	-17,5	-3,492
413,345	0	-0,879
414,017	2	-0,586
414,701	-17,5	-3,476
415,373	-1,5	-1,477
416,069	4,5	-0,109
416,789	-17	-3,441
417,479	-3,5	-1,713
418,151	4,5	-0,001
418,823	-12	-3,069
419,501	-10	-2,422
420,173	4,5	-0,006
420,863	-7,5	-2,508
421,559	-17,5	-2,95
422,219	4,5	-0,04
422,915	-4,5	-2,018
423,581	-17,5	-3,5
424,277	3,5	-0,162
424,948	-2,5	-1,427
425,627	-17,5	-3,498
426,293	1	-0,744
426,989	-0,5	-0,888
427,684	-17,5	-3,492
428,374	0	-1,062
429,046	3	-0,471
429,76	-17	-3,478
430,444	-2	-1,429
431,122	4,5	-0,071
431,824	-16	-3,414
432,502	-5	-1,922
433,174	4,5	-0,002
433,853	-11	-2,97
434,518	-11	-2,587
435,19	4,5	-1,326
436,33	-18	-3,496
437,014	0,5	-0,873
437,674	2	-0,579
438,346	-17	-3,47
439,048	-1,5	-1,436
439,726	4,5	-0,109
440,422	-15,5	-3,396
441,07	-6	-2,128
441,784	4,5	-0,002
442,486	-13	-3,124
443,146	-9	-2,483
443,836	4,5	-0,006
444,514	-7	-2,46
445,186	-15,5	-3,097
445,869	4,5	-0,043
446,529	-3,5	-1,775
447,201	-17,5	-3,499
447,879	2	-0,376
448,563	-1,5	-1,142
449,235	-17,5	-3,495
449,931	0	-0,925
488,443	-9	-2,427
489,145	4,5	-0,004
489,823	-8	-2,62
490,519	-15	-2,87
491,221	4,5	-0,016
491,887	-5	-2,12
492,559	-17,5	-3,395
493,231	3,5	-0,124
493,915	-2,5	-1,533
494,575	-17,5	-3,498
495,276	1	-0,587
495,972	-0,5	-0,988
496,674	-17,5	-3,495
497,334	-0,5	-1,098
498,018	4	-0,386
498,708	-17	-3,458
499,368	-4	-1,796
500,028	4,5	-0,002
500,712	-10	-2,964
501,385	-11	-2,603
502,032	4,5	-0,017
502,704	-5	-2,147
503,376	-17,5	-3,434
504,053	3,5	-0,126
504,714	-1,5	-1,346
505,386	-17,5	-3,497
506,058	0	-0,844
506,718	3	-0,569
507,39	-17	-3,47
508,068	-3	-1,593
508,74	4,5	0
509,388	-11,5	-3,121
510,066	-9	-2,406
510,738	4,5	-0,006
511,434	-7	-2,564
512,094	-16,5	-3,085
512,763	4	-0,055
513,438	-3	-1,786
514,127	-17	-3,499
514,8	2	-0,31
515,458	-1	-1,179
516,149	-17	-3,496
516,815	0	-1,043
517,487	3,5	-0,466
518,16	-16,5	-3,458
518,832	-3,5	-1,74
519,503	4,5	-0,001
520,151	-10	-2,958
520,835	-11	-2,56
521,495	4,5	-0,012
522,173	-5	-2,249
522,851	-17	-3,261
523,512	3	-0,103
524,195	-2,5	-1,545
524,855	-17	-3,498
600,211	-10	-3,126
600,9	-8	-2,386
601,567	5	-0,006
602,239	-5,5	-2,35
602,923	-15,5	-3,117
603,582	4,5	-0,066
604,248	-2	-1,602
604,914	-16,5	-3,498
605,604	2	-0,445
606,282	-0,5	-1,043
606,942	-16,5	-3,491
607,602	-0,5	-1,208
608,274	4,5	-0,2
608,922	-14	-3,361
609,582	-5,5	-2,134
610,254	4,5	-0,003
610,914	-8	-2,687
611,592	-13,5	-2,824
612,27	4,5	-0,02
612,942	-4	-1,982
613,608	-16,5	-3,499
614,31	3,5	-0,169
614,97	-1	-1,302
615,636	-16,5	-3,497
616,296	0,5	-0,974
616,968	4	-0,452
617,646	-15,5	-3,459
618,317	-2,5	-1,678
618,977	4,5	-0,001
619,637	-10,5	-3,042
620,321	-8,5	-2,407
620,969	4,5	-0,009
621,647	-5	-2,352
622,325	-16	-3,134
622,979	4	-0,076
623,657	-2	-1,599
624,323	-16,5	-3,498
625,001	1,5	-0,577
625,667	0	-0,912
626,327	-16,5	-3,484
627,005	-1	-1,349
627,659	5	0
628,343	-13	-3,328
629,009	-6	-2,137
629,669	5	-0,003
630,341	-6	-2,616
631,019	-13,5	-2,918
631,691	4,5	-0,03
632,351	-3	-1,847
633,017	-16,5	-3,499
633,665	2	-0,458
634,331	-0,5	-0,927
635,045	-16,5	-3,495
635,693	0	-1,132
636,37	4,5	-0,325
637,03	-15	-3,421
712,512	-11	-3,145
713,202	-7,5	-2,3
713,862	4,5	-0,005
714,546	-6	-2,534
715,224	-14,5	-2,952
715,884	4	-0,04
716,574	-3,5	-1,87
717,234	-16,5	-3,499
717,9	2	-0,385
718,572	-1	-1,078
719,226	-16,5	-3,494
719,904	-0,5	-1,184
720,552	4,5	-0,181
721,224	-14	-3,378
721,926	-4,5	-1,92
722,58	4,5	-0,002
723,251	-8	-2,756
723,9	-13,5	-2,861
724,553	4,5	-0,038
725,225	-3	-1,806
725,903	-16	-3,499
726,575	2,5	-0,298
727,241	-0,5	-1,094
727,889	-16,5	-3,491
728,603	0	-0,997
729,275	3,5	-0,428
729,935	-15	-3,442
730,595	-3,5	-1,862
731,243	4,5	-0,002
731,915	-8,5	-2,804
732,581	-12	-2,778
733,253	4,5	-0,02
733,913	-3,5	-1,945
734,567	-16,5	-3,499
735,275	3	-0,208
735,935	-1	-1,219
736,619	-16	-3,497
737,279	0	-0,973
737,945	3,5	-0,454
738,611	-15,5	-3,451
739,283	-3	-1,75
739,942	4,5	-0,001
740,626	-10,5	-3,073
741,287	-9	-2,554
741,964	4,5	-0,008
742,612	-4,5	-2,232
743,296	-16	-3,293
743,98	4	-0,078
744,64	-2	-1,506
745,326	-16	-3,498
746,003	1,5	-0,582
746,68	0	-0,922
747,358	-16	-3,49
748,006	-1	-1,386
748,684	4,5	-0,07
749,344	-13	-3,336
750,004	-6,5	-2,214
750,652	4,5	-0,005
751,33	-6,5	-2,514
751,996	-15	-3,058
752,656	4	-0,055
753,322	-2,5	-1,666
754	-16	-3,499
754,648	1,5	-0,595
755,314	0	-0,866
755,986	-16	-3,488
756,664	0	-1,27
757,342	4,5	-0,162
758,019	-14,5	-3,402
758,667	-5	-2,117
759,346	4,5	-0,002
760,005	-7,5	-2,645
760,677	-13,5	-2,913
761,349	4,5	-0,029
761,998	-3	-1,786
762,669	-16	-3,499
763,347	2,5	-0,298
764,007	-1	-1,07
764,697	-16	-3,495
765,351	0	-1,128
766,029	4	-0,349
766,689	-15	-3,426
767,373	-3	-1,832
768,021	4,5	-0,002
768,699	-9	-2,94
769,353	-10,5	-2,67
770,025	4,5	-0,014
770,682	-4	-2,062
771,339	-16	-3,5
772,011	3	-0,204
772,671	-1	-1,236
773,343	-16	-3,496
773,991	0	-1,08
774,651	4,5	-0,336
775,322	-15	-3,435
775,994	-3	-1,842
776,667	4,5	-0,001
777,327	-9	-2,954
777,998	-10,5	-2,658
778,658	4,5	-0,016
779,336	-4,5	-2,173
780,002	-15,5	-3,446
780,674	3,5	-0,141
781,346	-2	-1,426
782,018	-16	-3,498
782,679	0,5	-0,821
783,392	0	-0,81
784,064	-16	-3,485
784,712	-1	-1,486
785,378	4,5	0
786,038	-12	-3,275
823,878	3	-0,16
824,526	-1	-1,238
825,198	-15,5	-3,496
825,882	0,5	-0,848
826,542	2,5	-0,525
827,202	-15,5	-3,457
827,856	-2,5	-1,722
828,516	4,5	-0,001
829,188	-10	-3,058
829,835	-9	-2,561
830,495	4,5	-0,012
831,155	-4	-2,11
831,803	-15,5	-3,5
832,476	3	-0,177
833,154	-1,5	-1,314
833,813	-15,5	-3,496
834,498	1	-0,846
835,145	3	-0,512
835,836	-15,5	-3,473
836,507	-1,5	-1,584
837,167	4,5	-0,001
838,307	-15,5	-3,428
838,985	3,5	-0,12
839,639	-1,5	-1,34
840,311	-16	-3,497
840,989	1	-0,8
841,655	2,5	-0,605
842,339	-15,5	-3,477
842,987	-2	-1,592
843,647	4,5	-0,001
844,325	-10,5	-3,116
844,997	-8	-2,42
845,645	4,5	-0,009
846,304	-4,5	-2,24
846,971	-15,5	-3,3
847,625	3,5	-0,127
848,284	-1,5	-1,315
848,95	-15,5	-3,497
849,604	0	-0,982
850,276	3,5	-0,492
850,942	-15	-3,456
851,602	-2,5	-1,724
852,268	4,5	-0,001
852,928	-9,5	-3,01
853,612	-8	-2,462
854,272	4,5	-0,008
854,944	-5	-2,269
855,616	-15,5	-3,294
856,306	4	-0,072
856,966	-2	-1,523
857,626	-15,5	-3,498
858,304	1,5	-0,667
858,964	0,5	-0,753
859,624	-15,5	-3,479
860,284	-1,5	-1,543
860,956	4,5	0
861,616	-11	-3,195
862,276	-7,5	-2,392
862,923	4,5	-0,008
863,614	-5,5	-2,45
864,267	-15,5	-3,2
864,927	4	-0,085
865,593	-1,5	-1,547
866,253	-15,5	-3,498
866,919	1,5	-0,723
867,579	1	-0,657
868,257	-15,5	-3,478
868,905	-1,5	-1,602
869,577	4,5	-0,001
870,237	-11,5	-3,156
870,885	-8	-2,522
871,557	4,5	-0,008
872,217	-4,5	-2,199
872,878	-15,5	-3,351
873,537	3,5	-0,132
874,197	-1,5	-1,34
874,857	-15,5	-3,497
875,517	0,5	-0,952
876,183	3,5	-0,455
876,843	-15	-3,447
877,515	-2,5	-1,738
878,163	4,5	-0,001
878,823	-8,5	-2,863
879,501	-9	-2,638
880,149	4,5	-0,019
880,821	-4	-2,108
881,48	-15,5	-3,486
882,14	3	-0,197
882,788	-1	-1,346
883,46	-15,5	-3,496
884,12	0	-1,016
884,786	4	-0,427
885,434	-14,5	-3,43
886,094	-3,5	-1,923
886,778	4,5	-0,001
887,426	-8	-2,851
888,098	-9,5	-2,69
888,77	4,5	-0,015
889,43	-3,5	-2,076
890,12	-15	-3,344
890,792	4	-0,108
891,464	-1,5	-1,496
892,136	-15,5	-3,498
892,796	1,5	-0,742
893,456	1	-0,677
894,139	-15	-3,481
894,806	-1	-1,489
895,472	4,5	0
896,144	-12	-3,298
896,828	-5	-2,145
897,506	4,5	-0,003
898,154	-6,5	-2,582
898,825	-12,5	-2,938
899,491	4,5	-0,035
900,145	-2,5	-1,713
900,793	-15,5	-3,498
901,927	4,5	-0,001
902,587	-10,5	-3,189
903,235	-7	-2,462
903,895	4,5	-0,008
904,561	-4,5	-2,229
905,233	-15,5	-3,315
905,893	3,5	-0,12
906,565	-1,5	-1,399
907,261	-15,5	-3,498
907,939	1,5	-0,558
908,587	0,5	-0,743
909,259	-15,5	-3,482
909,913	-1,5	-1,534
910,585	4,5	0
911,259	-11,5	-3,219
911,905	-7,5	-2,468
912,577	4,5	-0,007
913,237	-5	-2,296
913,891	-15,5	-3,372
914,569	3,5	-0,107
915,229	-1,5	-1,432
915,888	-15,5	-3,498
916,549	1	-0,833
917,209	3	-0,507
917,868	-15	-3,454
918,516	-2,5	-1,884
919,176	4,5	-0,002
919,848	-7,5	-2,792
920,502	-11	-2,834
921,162	4,5	-0,028
921,816	-3	-1,787
922,464	-15	-3,499
923,124	1,5	-0,538
923,79	0	-0,881
924,456	-15	-3,487
925,116	-0,5	-1,406
925,794	4,5	-0,022
926,466	-13	-3,343
927,114	-5,5	-2,273
927,792	4,5	-0,004
928,452	-6	-2,516
929,142	-13	-2,978
929,79	4,5	-0,052
930,462	-2,5	-1,694
931,122	-15,5	-3,499
931,77	1	-0,683
932,423	1,5	-0,642
933,083	-15	-3,47
933,744	-2	-1,679
934,397	4,5	-0,001
935,057	-9,5	-2,935
1009,411	0	-1,154
1010,065	4,5	-0,169
1010,725	-12,5	-3,374
1011,403	-4,5	-2,037
1012,069	4,5	-0,002
1012,729	-7	-2,76
1013,401	-10,5	-2,728
1014,049	4,5	-0,024
1014,709	-3	-1,932
1015,393	-15	-3,5
1016,053	3	-0,238
1016,701	-0,5	-1,19
1017,379	-15	-3,496
1018,051	0,5	-0,903
1018,699	3,5	-0,446
1019,377	-15	-3,458
1020,036	-2,5	-1,723
1020,684	4,5	-0,001
1021,344	-7,5	-2,884
1022,011	-10	-2,676
1022,67	4,5	-0,017
1023,33	-3,5	-2,042
1024,008	-15	-3,483
1024,686	3	-0,144
1025,346	-1	-1,31
1026,024	-15	-3,497
1026,696	0,5	-0,82
1027,344	3,5	-0,501
1028,004	-15	-3,455
1028,676	-2	-1,681
1029,324	4,5	-0,001
1030,002	-8,5	-3,036
1030,662	-8	-2,474
1031,34	4,5	-0,007
1031,988	-4,5	-2,237
1032,648	-15	-3,305
1033,338	4	-0,074
1034,004	-1,5	-1,562
1034,664	-15	-3,498
1035,324	1	-0,696
1035,996	0,5	-0,794
1036,644	-15	-3,478
1037,322	-1	-1,44
1037,97	4,5	0
1038,629	-10,5	-3,236
1039,301	-6,5	-2,289
1039,974	4,5	-0,004
1040,621	-4,5	-2,408
1041,293	-14,5	-3,113
1041,953	4	-0,066
1042,601	-1,5	-1,559
1043,261	-15	-3,498
1043,939	1,5	-0,578
1044,617	0	-0,878
1045,283	-15	-3,487
1045,931	-0,5	-1,415
1046,591	4,5	0
1047,251	-11	-3,261
1047,911	-6	-2,287
1048,571	4,5	-0,005
1049,243	-5	-2,434
1049,891	-14,5	-3,105
1050,551	4	-0,064
1051,211	-2	-1,598
1051,871	-15	-3,499
1052,549	1,5	-0,565
1053,209	0	-0,822
1053,881	-15	-3,485
1054,547	-0,5	-1,33
1055,201	4,5	-0,029
1055,884	-12,5	-3,373
1056,532	-5	-2,149
1057,192	4,5	-0,003
1057,864	-5,5	-2,586
1058,537	-12,5	-2,886
1059,184	4,5	-0,04
1059,856	-2,5	-1,84
1060,528	-15	-3,499
1061,2	2,5	-0,331
1061,866	-1	-1,124
1062,538	-15	-3,495
1063,198	0	-1,064
1063,864	4,5	-0,427
1064,524	-14	-3,442
1065,184	-3	-1,831
1065,832	4,5	-0,002
1066,51	-8	-2,886
1067,17	-9,5	-2,65
1067,818	4,5	-0,019
1068,49	-3	-2
1069,156	-15	-3,5
1069,816	3	-0,224
1070,476	-0,5	-1,18
1071,136	-15	-3,495
1071,784	0	-1,171
1072,474	3,5	-0,43
1073,133	-14,5	-3,442
1073,781	-3	-1,851
1074,441	4,5	-0,002
1075,101	-7,5	-2,884
1075,761	-10,5	-2,696
1076,421	4,5	-0,018
1077,105	-4	-2,155
1077,754	-15	-3,49
1078,413	3	-0,198
1079,079	-0,5	-1,247
1079,727	-15	-3,495
1080,381	0	-1,09
1081,053	4,5	-0,351
1081,701	-13,5	-3,412
1082,361	-4	-1,961
1083,021	4,5	-0,002
1083,681	-6	-2,694
1084,341	-12,5	-2,885
1085,001	4,5	-0,032
1085,667	-2,5	-1,8
1086,327	-15	-3,499
1087,005	2,5	-0,315
1087,653	0	-1,006
1088,319	-15	-3,491
1088,991	0	-1,136
1089,693	3,5	-0,466
1090,352	-14,5	-3,449
1091,018	-2,5	-1,777
1091,702	4,5	-0,001
1092,374	-9	-3,085
1093,022	-8	-2,566
1093,682	5	-0,012
1094,361	-4	-2,207
1095,008	-15	-3,421
1095,668	3,5	-0,16
1096,346	-1	-1,424
1096,994	-15	-3,497
1097,654	1	-0,938
1098,314	4	-0,424
1098,962	-14	-3,429
1099,64	-2,5	-1,794
1100,294	5	-0,001
1100,954	-7,5	-2,858
1101,614	-10,5	-2,733
1102,28	4,5	-0,019
1102,94	-2,5	-1,969
1103,6	-15	-3,499
1104,248	2,5	-0,283
1104,926	-0,5	-1,09
1105,574	-15	-3,491
1106,234	0	-1,259
1106,9	4,5	-0,179
1107,548	-12	-3,352
1108,207	-4,5	-2,183
1108,879	5	-0,003
1109,527	-5,5	-2,51
1110,187	-13,5	-3,076
1110,835	4,5	-0,058
1111,501	-2	-1,621
1112,155	-15	-3,498
1112,803	1,5	-0,755
1113,475	1,5	-0,702
1114,135	-15	-3,475
1114,784	-1,5	-1,632
1115,458	4,5	-0,001
1116,115	-9,5	-3,137
1116,763	-7,5	-2,524
1117,417	5	-0,012
1118,077	-3,5	-2,218
1118,725	-15	-3,428
1119,397	3,5	-0,135
1120,057	-1	-1,363
1120,705	-15	-3,496
1121,365	0,5	-0,934
1122,049	3	-0,583
1122,739	-15	-3,477
1123,399	-1	-1,588
1124,047	4,5	-0,001
1124,725	-10	-3,182
1125,384	-6,5	-2,409
1126,032	4,5	-0,009
1126,692	-4	-2,257
1127,353	-15	-3,298
1128	3	-0,14
1128,672	-1	-1,401
1129,344	-15	-3,498
1130,004	1	-0,788
1130,664	1,5	-0,648
1131,336	-15	-3,476
1131,984	-1,5	-1,648
1132,644	4,5	-0,001
1133,292	-8,5	-3,027
1133,952	-8,5	-2,552
1134,606	4,5	-0,013
1135,254	-3	-2,041
1135,926	-15	-3,496
1136,574	2,5	-0,251
1137,228	-0,5	-1,192
1137,888	-15	-3,495
1138,542	0	-1,07
1139,202	4	-0,354
1139,874	-14	-3,442
1140,54	-2,5	-1,862
1141,2	4,5	-0,002
1141,86	-7,5	-2,863
1142,508	-10,5	-2,772
1143,168	4,5	-0,023
1143,815	-2	-1,92
1144,487	-15	-3,5
1145,195	3,5	-0,134
1145,867	-1	-1,415
1146,544	-15	-3,498
1147,194	1	-0,719
1147,859	0	-0,843
1148,507	-15	-3,48
1149,167	-1	-1,525
1149,827	4,5	0
1150,475	-9,5	-3,146
1151,147	-6,5	-2,412
1151,831	5	-0,005
1152,491	-4,5	-2,427
1153,163	-13,5	-3,088
1153,823	4	-0,061
1154,489	-1,5	-1,636
1155,167	-15	-3,499
1155,839	2	-0,504
1303,928	-14,5	-3,486
1304,594	-0,5	-1,393
1305,248	4,5	0
1305,92	-10,5	-3,284
1306,568	-6	-2,358
1307,228	4,5	-0,006
1307,894	-4,5	-2,35
1308,548	-14,5	-3,305
1309,196	3,5	-0,138
1309,874	-1	-1,393
1310,534	-15	-3,497
1311,2	1	-0,858
1311,848	4	-0,471
1312,556	-15	-3,476
1313,216	-1	-1,608
1313,87	4,5	-0,001
1314,536	-8,5	-3,022
1315,196	-8	-2,611
1315,862	4,5	-0,013
1316,522	-3,5	-2,113
1317,194	-15	-3,462
1317,842	3	-0,215
1318,502	-0,5	-1,212
1319,149	-15	-3,494
1319,821	0	-1,07
1320,488	3,5	-0,452
1321,147	-14	-3,446
1321,801	-2	-1,829
1322,449	4,5	-0,002
1323,109	-7	-2,802
1323,757	-10,5	-2,827
1324,423	4,5	-0,025
1325,083	-2,5	-1,886
1325,743	-15	-3,499
1326,403	2	-0,444
1327,075	0	-1,069
1327,723	-15	-3,49
1328,401	0	-1,192
1329,061	4,5	-0,191
1329,709	-12,5	-3,357
1330,381	-4	-2,116
1331,029	4,5	-0,004
1331,701	-6	-2,737
1332,367	-10,5	-2,782
1333,015	4,5	-0,029
1333,675	-2,5	-1,888
1334,341	-15	-3,499
1335,013	3	-0,318
1335,672	-0,5	-1,096
1336,333	-15	-3,493
1336,992	0	-1,226
1337,658	4,5	-0,136
1338,307	-12	-3,334
1338,978	-4	-2,147
1339,626	5	-0,004
1340,304	-5,5	-2,608
1340,964	-12	-2,961
1341,612	4,5	-0,049
1342,291	-2	-1,703
1342,938	-14,5	-3,499
1343,604	1,5	-0,591
1344,282	0	-0,95
1344,948	-15	-3,489
1345,614	0	-1,312
1346,274	4,5	-0,072
1346,922	-11	-3,305
1347,594	-4	-2,129
1348,254	4,5	-0,003
1348,902	-5	-2,514
1349,58	-12	-2,972
1350,228	4,5	-0,051
1350,888	-1,5	-1,588
1351,548	-15	-3,498
1352,214	1,5	-0,705
1352,873	0,5	-0,773
1353,546	-14,5	-3,483
1354,193	-0,5	-1,501
1354,853	4,5	-0,001
1355,502	-9	-3,105
1356,161	-7	-2,497
1356,815	4,5	-0,011
1357,475	-3,5	-2,156
1358,147	-14,5	-3,39
1358,795	3,5	-0,178
1359,491	-1	-1,464
1360,151	-15	-3,498
1360,799	1	-0,917
1361,459	4	-0,404
1362,107	-13,5	-3,425
1362,779	-2,5	-1,917
1363,427	4,5	-0,002
1364,081	-6	-2,718
1364,753	-10	-2,797
1365,401	4,5	-0,03
1366,061	-2,5	-1,906
1366,727	-14,5	-3,499
1367,375	2	-0,443
1368,047	-0,5	-1,084
1368,695	-14,5	-3,491
1369,373	0	-1,197
1370,033	4,5	-0,23
1370,698	-13	-3,403
1371,358	-3	-2,023
1372,007	4,5	-0,003
1372,666	-5,5	-2,568
1373,339	-12	-2,947
1373,986	4,5	-0,048
1374,646	-2	-1,645
1375,294	-14,5	-3,498
1375,96	1,5	-0,687
1376,614	2	-0,623
1377,274	-14	-3,468
1377,934	-1,5	-1,672
1378,594	4,5	-0,001
1379,248	-8	-2,941
1379,914	-8,5	-2,662
1380,562	4,5	-0,02
1381,24	-3	-2,035
1381,936	-14,5	-3,44
1382,602	3,5	-0,149
1383,262	-1	-1,31
1383,91	-15	-3,496
1384,576	0,5	-1,032
1385,224	4,5	-0,334
1385,896	-13,5	-3,423
1386,562	-3	-1,942
1387,21	4,5	-0,002
1387,881	-6	-2,719
1388,56	-10	-2,809
1389,207	4,5	-0,031
1389,879	-2,5	-1,852
1390,534	-14,5	-3,499
1391,181	2	-0,484
1391,853	0	-0,979
1392,531	-14,5	-3,492
1393,185	0	-1,242
1393,834	4,5	-0,102
1394,505	-12,5	-3,374
1395,189	-3,5	-2,052
1395,855	4,5	-0,003
1396,515	-6,5	-2,746
1397,163	-9,5	-2,829
1397,835	4,5	-0,023
1398,495	-2,5	-1,875
1399,155	-14,5	-3,499
1399,815	2,5	-0,416
1400,505	-0,5	-1,096
1401,165	-14,5	-3,493
1401,843	0	-1,138
1402,515	4,5	-0,264
1403,181	-12,5	-3,413
1403,853	-2,5	-1,949
1404,525	4,5	-0,002
1405,173	-7,5	-2,872
1405,833	-8,5	-2,671
1406,48	4,5	-0,02
1407,152	-3	-2,123
1407,812	-15	-3,481
1408,46	3	-0,227
1409,12	-0,5	-1,192
1409,768	-14,5	-3,494
1410,446	0,5	-1,09
1411,112	4,5	-0,239
1411,76	-12	-3,376
1412,438	-3	-1,991
1413,086	4,5	-0,002
1413,758	-5,5	-2,589
1414,418	-12,5	-3,018
1415,078	4	-0,049
1415,744	-2	-1,753
1416,416	-14,5	-3,499
1417,082	2	-0,437
1417,742	0	-0,94
1418,39	-14,5	-3,486
1419,05	-0,5	-1,453
1419,74	4,5	-0,141
1420,388	-12,5	-3,363
1421,048	-4,5	-2,224
1421,708	4,5	-0,004
1422,356	-4,5	-2,399
1423,022	-13,5	-3,163
1423,67	4	-0,092
1424,347	-1,5	-1,588
1425,002	-15	-3,498
1425,661	1,5	-0,743
1426,321	2	-0,634
1426,987	-14,5	-3,472
1427,653	-1,5	-1,618
1428,313	4,5	-0,001
1428,979	-8	-3,072
1429,639	-8	-2,508
1430,287	4,5	-0,012
1430,965	-4	-2,242
1431,625	-14,5	-3,284
1432,285	3,5	-0,132
1432,957	-1	-1,379
1433,617	-15	-3,497
1434,283	0,5	-0,888
1434,943	3,5	-0,461
1435,591	-13,5	-3,437
1436,263	-2,5	-1,872
1436,947	4,5	-0,001
1437,625	-8	-3,017
1438,273	-9	-2,683
1438,933	4,5	-0,018
1439,581	-2,5	-1,903
1440,24	-14,5	-3,499
1440,907	2	-0,358
1441,566	0	-0,987
1442,214	-14,5	-3,487
1442,88	0	-1,338
1443,552	4,5	-0,089
1444,2	-10,5	-3,31
1444,86	-4,5	-2,254
1445,508	4,5	-0,005
1446,168	-4	-2,396
1446,84	-13,5	-3,081
1447,5	4,5	-0,059
1448,166	-1,5	-1,642
1448,814	-14,5	-3,498
1449,48	1,5	-0,716
1450,128	3	-0,635
1450,788	-14	-3,462
1451,436	-2	-1,754
1452,126	4,5	-0,001
1452,774	-7,5	-2,97
1453,446	-7,5	-2,545
1454,094	5	-0,014
1454,772	-3	-2,146
1455,42	-14,5	-3,5
1456,08	3	-0,246
1456,728	-0,5	-1,177
1457,406	-14,5	-3,495
1458,06	0	-1,162
1458,719	4,5	-0,249
1459,38	-12,5	-3,4
1460,027	-4,5	-2,119
1460,687	4,5	-0,003
1461,359	-5,5	-2,624
1462,007	-13	-3,05
1462,673	4,5	-0,049
1463,321	-1,5	-1,587
1463,981	-14,5	-3,498
1464,647	1	-0,747
1465,295	3,5	-0,58
1465,955	-13,5	-3,464
1466,615	-2	-1,748
1467,275	5	-0,001
1467,923	-7	-2,901
1468,577	-10	-2,703
1469,225	4,5	-0,022
1469,885	-2,5	-1,94
1470,557	-14,5	-3,5
1471,205	2	-0,378
1471,865	0	-0,991
1472,513	-14,5	-3,488
1473,185	0	-1,323
1473,833	4,5	0
1474,493	-10	-3,27
1475,14	-6	-2,389
1475,819	4,5	-0,005
1476,478	-4,5	-2,431
1477,127	-14,5	-3,222
1477,792	4	-0,083
1478,44	-1	-1,413
1479,1	-14,5	-3,497
1479,772	1	-0,808
1480,42	3	-0,504
1481,08	-14	-3,454
1481,728	-2,5	-1,863
1482,394	4,5	-0,002
1483,042	-6	-2,757
1483,696	-12	-2,879
1484,368	4,5	-0,022
1485,04	-2,5	-1,912
1485,7	-14,5	-3,499
1486,348	2	-0,459
1487,008	0,5	-0,87
1487,674	-14,5	-3,486
1488,334	-0,5	-1,464
1488,994	4,5	0
1489,642	-9	-3,157
1490,302	-6	-2,439
1490,95	5	-0,01
1491,628	-3,5	-2,289
1492,276	-14,5	-3,415
1492,936	3	-0,156
1493,583	-0,5	-1,213
1494,256	-14,5	-3,496
1494,921	0,5	-1,035
1495,593	4	-0,47
1496,247	-13,5	-3,444
1496,925	-2	-1,813
1497,585	4,5	-0,002
1498,233	-6	-2,782
1498,893	-11	-2,834
1499,541	4,5	-0,033
1500,219	-2,5	-1,878
1500,879	-14,5	-3,499
1501,527	1,5	-0,526
1502,187	0	-0,877
1502,835	-14,5	-3,482
1503,489	-1	-1,54
1504,149	4,5	-0,001
1504,809	-8,5	-3,099
1505,457	-9,5	-2,592
1506,117	4,5	-0,016
1506,765	-3	-2,018
1507,419	-14,5	-3,5
1508,085	2	-0,31
1508,739	0	-1,075
1509,417	-14,5	-3,494
1510,065	0	-1,143
1510,725	4,5	-0,241
1511,372	-11,5	-3,375
1512,044	-3,5	-2,073
1512,71	4,5	-0,003
1513,358	-5	-2,563
1514,03	-13	-3,021
1514,678	4	-0,049
1515,338	-1,5	-1,596
1515,998	-14,5	-3,498
1516,646	1	-0,77
1517,306	3	-0,563
1517,954	-13,5	-3,454
1518,614	-2,5	-1,808
1519,262	4,5	-0,002
1519,934	-6,5	-2,87
1520,588	-10,5	-2,821
1521,248	4,5	-0,026
1521,896	-2	-1,867
1522,556	-14,5	-3,499
1523,204	1,5	-0,565
1523,864	0,5	-0,833
1524,53	-14,5	-3,484
1525,178	-0,5	-1,509
1525,832	4,5	-0,001
1526,48	-7,5	-3,072
1527,158	-6,5	-2,475
1527,806	4,5	-0,011
1528,465	-3	-2,152
1529,126	-14,5	-3,489
1529,779	3	-0,219
1530,439	-0,5	-1,192
1531,087	-14,5	-3,494
1531,741	0	-1,258
1532,413	4,5	-0,221
1533,073	-11	-3,373
1533,721	-4,5	-2,186
1534,387	4,5	-0,004
1535,047	-4,5	-2,552
1535,713	-13,5	-3,068
1536,379	4,5	-0,052
1537,045	-1,5	-1,659
1537,693	-14,5	-3,498
1538,371	1,5	-0,639
1539,019	1,5	-0,662
1539,679	-14	-3,472
1540,327	-2	-1,747
1540,987	4,5	-0,001
1541,635	-7,5	-2,934
1542,307	-9	-2,677
1542,955	4,5	-0,021
1543,615	-2,5	-1,941
1544,293	-14,5	-3,5
1544,941	2	-0,364
1545,601	0	-0,999
1546,248	-14,5	-3,488
1546,902	-0,5	-1,452
1547,551	4,5	0
1548,204	-9	-3,172
1548,852	-7	-2,472
1549,506	4,5	-0,01
1550,166	-3	-2,19
1550,826	-14,5	-3,486
1551,474	3	-0,232
1552,134	-0,5	-1,169
1552,782	-14,5	-3,493
1553,442	0	-1,23
1554,09	4,5	-0,101
1554,762	-11,5	-3,374
1555,41	-4,5	-2,203
1556,088	4,5	-0,003
1556,748	-5	-2,542
1557,396	-13,5	-3,119
1558,056	4	-0,067
1558,722	-1	-1,571
1559,382	-14,5	-3,498
1560,03	1	-0,784
1560,69	3	-0,561
1561,338	-14	-3,454
1561,998	-1,5	-1,81
1562,67	4,5	-0,001
1563,318	-7	-2,893
1563,977	-9	-2,724
1564,625	4,5	-0,024
1565,297	-2,5	-1,957
1565,945	-14,5	-3,499
1566,605	2	-0,404
1567,253	0	-0,865
1567,913	-14,5	-3,485
1568,591	-0,5	-1,388
1569,239	4,5	0
1569,899	-10	-3,252
1570,547	-5,5	-2,342
1571,201	4,5	-0,006
1571,861	-4	-2,3
1572,521	-14,5	-3,296
1573,193	4	-0,095
1573,841	-1	-1,418
1574,49	-14,5	-3,497
1575,143	0,5	-1,005
1575,791	4,5	-0,306
1576,451	-12,5	-3,416
1577,105	-3	-1,994
1577,753	4,5	-0,003
1578,419	-5,5	-2,665
1579,067	-13	-3,013
1579,727	4,5	-0,048
1580,392	-1,5	-1,652
1581,047	-14,5	-3,498
1581,694	1	-0,739
1582,354	1,5	-0,637
1583,003	-14	-3,469
1583,668	-1,5	-1,662
1584,328	4,5	-0,001
1584,976	-8	-2,986
1585,636	-8	-2,62
1586,297	4,5	-0,014
1586,956	-3	-2,057
1587,604	-14,5	-3,5
1588,264	2,5	-0,284
1588,912	0	-1,013
1589,572	-14,5	-3,491
1590,22	0	-1,348
1590,88	4,5	-0,002
1591,546	-10	-3,305
1592,206	-5	-2,287
1592,854	5	-0,006
1593,532	-4,5	-2,432
1594,192	-14	-3,225
1594,84	3,5	-0,111
1595,488	-0,5	-1,272
1596,166	-14,5	-3,497
1596,826	0,5	-0,983
1597,474	4,5	-0,284
1598,152	-13,5	-3,432
1598,8	-3	-2,017
1599,477	4,5	-0,002
1600,137	-5,5	-2,735
1600,786	-12,5	-2,98
1601,439	4,5	-0,049
1602,087	-1	-1,538
1602,747	-14,5	-3,498
1603,407	1	-0,737
1604,067	2,5	-0,602
1604,716	-14	-3,46
1605,381	-2	-1,733
1606,029	4,5	-0,001
1606,705	-7	-2,921
1607,367	-9,5	-2,73
1608,015	4,5	-0,024
1608,681	-2,5	-3,458
1609,707	-2,5	-1,862
1610,367	4,5	-0,002
1611,015	-6	-2,758
1611,675	-10	-2,864
1612,323	4,5	-0,038
1612,977	-1,5	-1,696
1613,625	-14	-3,499
1614,285	1	-0,703
1614,933	2,5	-0,582
1615,586	-13,5	-3,46
1616,24	-2	-1,837
1616,912	4,5	-0,001
1617,56	-6	-2,797
1618,215	-9,5	-2,797
1618,863	4,5	-0,019
1619,552	-2,5	-1,991
1620,224	-14,5	-3,5
1620,872	2,5	-0,331
1621,532	0	-1,02
1622,18	-14,5	-3,489
1622,834	0	-1,371
1623,482	4,5	0
1624,142	-9,5	-3,24
1624,79	-5,5	-2,432
1625,45	4,5	-0,007
1626,11	-3,5	-2,234
1626,77	-14,5	-3,378
1627,424	3	-0,163
1628,072	-0,5	-1,199
1628,72	-14,5	-3,495
1629,374	0	-1,235
1630,022	4,5	-0,131
1630,694	-11	-3,362
1631,366	-3,5	-2,089
1632,014	5	-0,004
1632,674	-4,5	-2,528
1633,322	-14	-3,155
1633,981	4	-0,073
1634,63	-1	-1,484
1635,301	-14,5	-3,498
1635,955	1	-0,828
1636,604	3,5	-0,502
1637,263	-13,5	-3,454
1637,911	-2	-1,853
1638,571	4,5	-0,002
1639,237	-6	-2,832
1639,897	-9,5	-2,769
1640,545	4,5	-0,028
1641,205	-2	-1,827
1641,853	-14,5	-3,499
1642,513	1,5	-0,582
1643,161	1,5	-0,713
1643,815	-14	-3,473
1644,475	-1	-1,597
1645,129	4,5	-0,001
1645,777	-7,5	-3,006
1646,449	-7	-2,572
1647,109	5	-0,012
1647,757	-3	-2,092
1648,417	-14,5	-3,498
1649,065	2,5	-0,258
1649,713	-0,5	-1,137
1650,367	-14,5	-3,492
1651,014	0	-1,258
1651,669	4,5	-0,031
1652,323	-10	-3,299
1652,982	-5	-2,252
1653,63	4,5	-0,005
1654,285	-3,5	-2,302
1654,945	-14,5	-3,316
1655,592	3,5	-0,145
1656,241	-0,5	-1,242
1656,894	-14,5	-3,495
1657,566	0	-1,008
1658,214	4,5	-0,286
1658,874	-12,5	-3,41
1659,54	-3,5	-2,036
1660,212	4,5	-0,002
1660,86	-5,5	-2,672
1661,526	-12	-2,91
1662,222	4,5	-0,021
1662,87	-2,5	-1,92
1663,544	-14,5	-3,5
1664,19	3	-0,282
1664,85	-0,5	-1,065
1665,498	-14,5	-3,49
1666,158	0	-1,317
1666,806	4,5	0
1667,466	-9,5	-3,309
1668,137	-5	-2,265
1668,791	4,5	-0,006
1669,44	-4	-2,408
1670,105	-14,5	-3,23
1670,771	4	-0,085
1671,419	-1	-1,446
1672,073	-14,5	-3,497
1672,721	0,5	-0,897
1673,381	3,5	-0,459
1674,029	-13,5	-3,436
1674,69	-2,5	-1,896
1675,337	4,5	-0,002
1675,997	-5,5	-2,688
1676,657	-11	-2,909
1677,311	4	-0,039
1677,959	-1,5	-1,731
1678,625	-14,5	-3,499
1679,273	1	-0,736
1679,933	1,5	-0,612
1680,581	-14	-3,46
1681,241	-2	-1,738
1681,901	4,5	-0,001
1682,549	-7	-2,874
1683,197	-10	-2,793
1683,851	4,5	-0,027
1684,523	-2	-1,899
1685,171	-14,5	-3,499
1685,831	2	-0,453
1686,479	0,5	-0,832
1687,144	-14	-3,484
1687,792	-1	-1,54
1688,458	4,5	0
1689,106	-9	-3,111
1689,766	-6	-2,506
1690,414	4,5	-0,012
1691,074	-3	-2,126
1691,722	-14,5	-3,5
1692,382	3	-0,227
1693,03	0	-1,088
1693,684	-14	-3,492
1694,332	0	-1,357
1694,992	4,5	0
1695,64	-9	-3,201
1696,3	-5,5	-2,351
1696,96	4,5	-0,006
1697,614	-4	-2,311
1698,262	-14,5	-3,298
1698,922	3	-0,114
1699,57	-1	-1,363
1700,224	-14,5	-3,496
1700,872	0	-1,082
1701,532	4	-0,304
1702,18	-12	-3,398
1702,833	-3	-2,058
1703,482	4,5	-0,003
1704,153	-5	-2,613
1704,801	-14	-3,049
1705,461	4	-0,054
1706,11	-1,5	-1,642
3231,6	2	-0,595
3232,248	1,5	-0,742
3232,908	-7	-3,478
3233,556	0,5	-1,576
3234,21	4,5	-0,001
3234,858	-3	-2,984
3235,506	-2,5	-2,65
3236,166	4,5	-0,016
3236,814	-0,5	-1,961
3237,468	-6,5	-3,5
3238,116	2,5	-0,35
3238,764	0,5	-0,972
3239,418	-7	-3,488
3240,066	1	-1,382
3240,696	4,5	0