File: ensaios_Ciclicos/_30perc/_4gap/entrada/_4.txt
Time (s)	Load (N)	Displacement (mm)
0	-1	-0,034
2,237	-1,5	-0,514
4,379	-2	-0,58
6,515	-2,5	-0,659
8,651	-2	-0,684
10,787	-2,5	-0,721
12,923	-3	-0,763
15,059	-3,5	-0,799
17,195	-3,5	-0,804
19,33	-2	-0,75
21,466	-2	-0,717
23,602	-2,5	-0,732
25,738	-3	-0,785
27,874	-3	-0,789
30,01	-2,5	-0,772
32,146	-2,5	-0,771
34,282	-2	-0,729
36,426	-2,5	-0,774
38,559	-3	-0,767
40,695	-3	-0,805
42,831	-3,5	-0,857
44,967	-3	-0,818
47,109	-2	-0,774
49,245	-2,5	-0,783
51,387	-3	-0,876
53,523	-3,5	-0,929
55,658	-4	-0,98
57,794	-4,5	-1,023
59,93	-4,5	-1,037
62,078	-5	-1,097
64,214	-5	-1,065
66,35	-5	-1,069
68,492	-5	-1,13
70,633	-5,5	-1,276
72,776	-6	-1,417
74,917	-6,5	-1,484
77,059	-7	-1,566
79,201	-7	-1,596
81,337	-7	-1,606
83,473	-7,5	-1,662
85,609	-9	-1,779
87,744	-8,5	-1,853
89,88	-9	-1,895
92,016	-9,5	-1,952
94,152	-10	-1,983
96,288	-10,5	-2,042
98,43	-11	-2,14
100,566	-11,5	-2,156
102,702	-10,5	-2,132
104,837	-11,5	-2,239
106,973	-12	-2,269
109,121	-13	-2,425
111,263	-14	-2,549
113,405	-15,5	-2,675
115,553	-16	-2,796
117,689	-15	-2,781
119,837	-17	-2,883
121,979	-17,5	-2,928
124,12	-18,5	-3,063
126,257	-20	-3,176
128,392	-18,5	-3,214
130,534	-21	-3,277
132,67	-21,5	-3,284
134,812	-22,5	-3,372
136,954	-23	-3,407
139,096	-22,5	-3,43
141,232	-24	-3,434
143,367	-23,5	-3,435
145,509	-24,5	-3,452
147,651	-24	-3,456
149,793	-24	-3,466
151,929	-24,5	-3,474
154,077	-24,5	-3,484
156,219	-25	-3,489
158,36	-24,5	-3,493
160,496	-24,5	-3,495
162,638	-24,5	-3,497
164,786	-24,5	-3,498
166,922	-24,5	-3,498
169,058	-24,5	-3,499
171,194	-24,5	-3,499
173,336	-24,5	-3,499
175,49	-24,5	-3,5
177,625	-24,5	-3,5
179,761	-24,5	-3,5
181,903	-24,5	-3,5
184,045	-24,5	-3,45
186,187	-24,5	-3,488
188,329	-24,5	-3,5
190,465	-24,5	-3,5
192,601	-24,5	-3,5
194,754	-24,5	-3,488
196,896	-24	-3,443
199,044	-24,5	-3,314
201,18	-24	-3,298
203,322	-24	-3,222
205,464	-24	-3,176
207,606	-23	-3,142
209,742	-23,5	-3,18
211,889	-24	-3,084
214,031	-22,5	-3,008
216,179	-23	-2,951
218,321	-20,5	-2,916
220,469	-21	-2,836
222,611	-19	-2,692
224,753	-19	-2,709
226,895	-21	-2,723
229,043	-18	-2,647
231,19	-20	-2,609
233,326	-17	-2,567
235,474	-17,5	-2,47
237,616	-15,5	-2,387
239,758	-17	-2,418
241,906	-16	-2,507
244,048	-16,5	-2,525
246,183	-17,5	-2,531
248,325	-17	-2,486
250,467	-17,5	-2,531
252,621	-17	-2,528
254,763	-17,5	-2,582
256,905	-18	-2,608
259,047	-19	-2,657
261,183	-19,5	-2,712
263,324	-20	-2,698
265,472	-20	-2,745
267,62	-20	-2,834
269,762	-21	-2,918
271,904	-21,5	-2,952
274,052	-21,5	-2,909
276,188	-22	-2,949
278,336	-20	-2,882
280,484	-21	-2,918
282,631	-21,5	-2,923
284,767	-22	-2,972
286,91	-21,5	-2,902
289,057	-21,5	-2,878
291,205	-19,5	-2,786
293,353	-20	-2,808
295,495	-19,5	-2,825
297,642	-19,5	-2,83
299,784	-21	-2,881
301,932	-21	-2,886
304,08	-20,5	-2,784
306,222	-19	-2,712
308,37	-19	-2,69
310,512	-19	-2,677
312,654	-17,5	-2,648
314,795	-18	-2,677
316,943	-17,5	-2,607
319,091	-17,5	-2,563
321,239	-18	-2,638
323,387	-18,5	-2,668
325,541	-17,5	-2,611
327,689	-17	-2,53
329,843	-15	-2,42
331,985	-15	-2,391
334,138	-15	-2,444
336,28	-14,5	-2,347
338,434	-13,5	-2,263
340,582	-13	-2,161
342,724	-11,5	-2,019
344,878	-10	-1,914
347,026	-9	-1,792
349,173	-7	-1,622
351,315	-7	-1,587
353,463	-6	-1,432
355,611	-5	-1,356
357,753	-4,5	-1,322
359,901	-5	-1,305
362,049	-5	-1,257
364,191	-5	-1,354
366,339	-5,5	-1,423
368,492	-4,5	-1,303
370,634	-5	-1,331
372,782	-5	-1,319
374,93	-4,5	-1,282
377,084	-5	-1,33
379,226	-5,5	-1,364
381,374	-5	-1,38
383,522	-5,5	-1,368
385,669	-4	-1,257
387,817	-4,5	-1,239
389,965	-4,5	-1,17
392,113	-3,5	-1,099
394,267	-3	-1,017
396,409	-3	-1,04
398,557	-2	-0,874
400,693	-2	-0,812
402,84	-2	-0,779
404,988	-1,5	-0,73
407,13	-1,5	-0,728
409,278	-1,5	-0,711
411,426	-2	-0,732
413,58	-1,5	-0,759
415,716	-1,5	-0,713
417,87	-1	-0,654
420,023	-1	-0,576
422,177	-0,5	-0,528
424,319	-0,5	-0,484
426,461	-0,5	-0,551
428,615	-1	-0,589
430,769	-1	-0,67
432,911	-1,5	-0,804
435,053	-2	-0,872
437,206	-1,5	-0,835
439,36	-2	-0,828
441,508	-2	-0,853
443,656	-2	-0,857
445,816	-2	-0,859
447,964	-1	-0,726
450,112	-1	-0,661
452,248	-1	-0,647
454,395	-0,5	-0,497
456,543	-0,5	-0,523
458,685	-0,5	-0,574
460,827	-1	-0,677
462,981	-0,5	-0,54
465,123	-0,5	-0,499
467,265	0	-0,333
469,401	0	-0,286
471,542	0,5	-0,214
473,69	1	-0,163
475,838	1	-0,143
477,986	1,5	-0,091
480,134	1	-0,128
482,276	1,5	-0,097
484,424	2	-0,058
486,572	2	-0,064
488,72	2	-0,047
490,867	2	-0,037
493,015	2,5	-0,025
495,157	2,5	-0,02
497,299	2,5	-0,014
499,447	2,5	-0,015
501,601	2,5	-0,008
503,743	2,5	-0,006
505,891	2,5	-0,006
508,032	2,5	-0,005
510,18	2,5	-0,004
512,334	2	-0,003
514,476	2,5	-0,002
516,624	2	-0,001
518,778	2	-0,001
520,932	2,5	-0,001
523,074	2,5	-0,001
525,221	2	-0,001
527,363	2,5	-0,001
529,505	2,5	-0,001
531,653	2,5	-0,001
533,801	2	0
535,949	2,5	-0,001
538,091	2,5	-0,089
540,245	2,5	-0,147
542,398	2	-0,095
544,55	2,5	-0,152
546,688	2	-0,089
548,836	2	-0,252
550,99	2	-0,299
553,138	1,5	-0,371
555,292	1,5	-0,436
557,434	1,5	-0,474
559,575	1	-0,496
561,723	0	-0,588
563,865	0	-0,596
566,001	0	-0,622
568,143	0	-0,609
570,297	-1	-0,719
572,445	-1	-0,773
574,593	-1,5	-0,832
576,741	-2	-0,896
578,894	-2,5	-1,055
581,036	-2,5	-1,052
583,19	-3	-1,163
585,326	-2,5	-1,13
587,474	-3	-1,254
589,622	-3,5	-1,398
591,758	-4	-1,44
593,912	-4	-1,529
596,053	-4,5	-1,616
598,195	-5	-1,661
600,337	-5	-1,675
602,479	-5,5	-1,776
604,633	-5,5	-1,91
606,781	-7	-2,055
608,929	-7,5	-2,156
611,076	-9	-2,285
613,224	-9	-2,35
615,372	-9,5	-2,462
617,52	-10,5	-2,542
619,668	-11	-2,65
621,81	-12	-2,721
623,958	-13	-2,791
626,106	-13	-2,861
628,254	-13,5	-3,027
630,401	-16	-3,155
632,537	-17	-3,253
634,685	-17,5	-3,317
636,833	-19,5	-3,382
638,981	-18,5	-3,423
641,141	-21,5	-3,461
643,289	-20,5	-3,47
645,431	-21,5	-3,478
647,572	-21,5	-3,477
649,726	-22	-3,485
651,868	-22	-3,491
654,016	-22	-3,493
656,164	-22	-3,496
658,306	-22	-3,497
660,448	-22	-3,498
662,59	-22	-3,499
664,737	-22	-3,499
666,885	-22	-3,5
669,033	-22	-3,438
671,181	-22	-3,309
673,329	-22	-3,22
675,477	-22	-3,056
677,625	-19	-2,982
679,773	-20	-2,778
681,92	-15	-2,655
684,062	-14,5	-2,552
686,204	-13	-2,389
688,352	-10,5	-2,234
690,5	-10	-2,123
692,642	-9,5	-2,062
694,796	-7	-1,797
696,944	-6	-1,658
699,092	-5	-1,508
701,227	-5	-1,462
703,369	-3,5	-1,352
705,523	-3	-1,225
707,671	-2,5	-1,14
709,813	-2,5	-1,094
711,961	-2	-0,982
714,109	-1,5	-0,896
716,251	-1,5	-0,841
718,392	-1	-0,79
720,534	-0,5	-0,67
722,682	0	-0,521
724,824	0	-0,353
726,972	0,5	-0,257
729,12	1	-0,15
731,268	1,5	-0,117
733,422	1,5	-0,065
735,563	2	-0,043
737,711	2,5	-0,031
739,853	2	-0,028
742,001	2,5	-0,02
744,149	2,5	-0,012
746,291	2,5	-0,013
748,433	2,5	-0,011
750,575	2,5	-0,009
752,722	2,5	-0,006
754,864	2,5	-0,004
757,012	2,5	-0,004
759,16	2,5	-0,003
761,308	2,5	-0,002
763,456	2,5	-0,001
765,592	2,5	-0,001
767,74	2,5	-0,001
769,887	2,5	-0,006
772,035	2,5	-0,136
774,183	2,5	-0,298
776,325	1,5	-0,376
778,473	1,5	-0,446
780,615	1	-0,535
782,751	0,5	-0,598
784,899	0	-0,726
787,041	-1	-0,846
789,182	-1	-0,901
791,324	-2	-1,01
793,466	-2	-1,067
795,614	-2,5	-1,185
797,75	-3	-1,226
799,898	-3	-1,333
802,046	-3,5	-1,43
804,194	-3,5	-1,552
806,335	-4	-1,683
808,483	-5	-1,838
810,631	-6	-2,062
812,773	-7	-2,224
814,927	-9	-2,472
817,075	-9,5	-2,559
819,235	-10,5	-2,747
821,377	-12,5	-2,967
823,524	-15	-3,144
825,672	-15,5	-3,261
827,814	-15,5	-3,304
829,962	-18	-3,38
832,104	-18	-3,419
834,252	-20	-3,447
836,394	-20,5	-3,473
838,542	-21	-3,482
840,689	-21	-3,488
842,831	-21	-3,489
844,979	-21	-3,493
847,127	-21,5	-3,494
849,275	-21	-3,498
851,417	-21	-3,499
853,565	-21	-3,499
855,713	-21	-3,499
857,854	-21	-3,5
859,996	-21	-3,5
862,15	-21	-3,365
864,286	-21	-3,275
866,434	-21	-3,177
868,588	-19,5	-3,055
870,736	-19	-2,958
872,878	-16	-2,838
875,025	-15	-2,715
877,167	-15	-2,674
879,309	-14	-2,55
881,457	-12	-2,411
883,599	-10,5	-2,28
885,747	-10	-2,142
887,895	-9,5	-2,055
890,037	-8	-2,027
892,19	-7,5	-1,89
894,338	-6	-1,771
896,48	-6	-1,732
898,628	-5	-1,572
900,776	-4,5	-1,538
902,912	-4,5	-1,492
905,06	-4	-1,384
907,208	-3,5	-1,25
909,349	-3	-1,195
911,521	-1,5	-0,942
913,669	-1,5	-0,85
915,817	-1,5	-0,791
917,971	-1	-0,723
920,113	-0,5	-0,55
922,261	0	-0,395
924,403	0	-0,303
926,545	0	-0,257
928,692	1	-0,161
930,84	1,5	-0,124
932,982	1,5	-0,091
935,13	1,5	-0,069
937,272	2	-0,06
939,414	2,5	-0,041
941,58	2,5	-0,013
943,728	2,5	-0,009
945,869	2,5	-0,008
948,017	3	-0,006
950,165	2,5	-0,004
952,307	2,5	-0,003
954,455	2,5	-0,002
956,597	2,5	-0,001
958,745	3	-0,001
960,893	2,5	-0,041
963,034	2,5	-0,156
965,176	2,5	-0,274
967,324	2	-0,357
969,466	1,5	-0,419
971,614	0	-0,611
973,756	0	-0,683
975,904	-0,5	-0,811
978,046	-1	-0,861
980,187	-2	-1,082
982,335	-2,5	-1,185
984,483	-2,5	-1,317
986,625	-3	-1,405
988,773	-4	-1,549
990,915	-4,5	-1,685
993,063	-5	-1,876
995,211	-6	-2,011
997,352	-7,5	-2,215
999,5	-8	-2,386
1001,66	-10	-2,649
1003,802	-11	-2,791
1005,95	-13	-2,95
1008,098	-13,5	-3,036
1010,246	-14,5	-3,211
1012,394	-16	-3,292
1014,535	-17,5	-3,376
1016,677	-19	-3,412
1018,825	-19,5	-3,456
1020,967	-20	-3,464
1023,115	-20	-3,472
1025,257	-20,5	-3,48
1027,399	-20,5	-3,484
1029,541	-20,5	-3,488
1031,689	-21	-3,492
1033,836	-20,5	-3,495
1035,978	-21	-3,497
1038,132	-20,5	-3,498
1040,274	-21	-3,499
1042,422	-20,5	-3,499
1044,57	-20,5	-3,5
1046,718	-20,5	-3,388
1048,86	-20,5	-3,243
1051,001	-19,5	-3,11
1053,149	-17	-2,966
1055,291	-15,5	-2,83
1057,433	-14	-2,636
1059,581	-12,5	-2,476
1061,723	-10,5	-2,26
1063,865	-9,5	-2,14
1066,019	-7,5	-1,956
1068,16	-7	-1,905
1070,308	-5,5	-1,744
1072,456	-4,5	-1,527
1074,598	-4	-1,401
1076,746	-2,5	-1,253
1078,888	-2	-1,095
1081,036	-1,5	-0,967
1083,178	-1,5	-0,832
1085,325	-0,5	-0,659
1087,467	0	-0,514
1089,621	0	-0,383
1091,775	0,5	-0,261
1093,923	0,5	-0,187
1096,071	1,5	-0,14
1098,219	1,5	-0,102
1100,355	1,5	-0,093
1102,502	1,5	-0,087
1104,644	2	-0,071
1106,792	2	-0,058
1108,94	2,5	-0,045
1111,082	2,5	-0,038
1113,23	2,5	-0,032
1115,372	2,5	-0,026
1117,52	2,5	-0,023
1119,661	2,5	-0,021
1121,809	2,5	-0,015
1123,945	3	-0,016
1126,093	2,5	-0,015
1128,241	2,5	-0,012
1130,377	2,5	-0,012
1132,525	2,5	-0,009
1134,667	2,5	-0,009
1136,82	3	-0,006
1138,968	2,5	-0,005
1141,11	2,5	-0,004
1143,252	2,5	-0,004
1145,394	2,5	-0,003
1147,542	2,5	-0,002
1149,684	2,5	-0,002
1151,826	2,5	-0,001
1153,968	2,5	-0,001
1156,115	2,5	-0,001
1158,257	2,5	-0,001
1160,399	2,5	-0,001
1162,547	2,5	0
1164,683	2,5	-0,002
1166,831	2,5	-0,018
1168,973	2,5	-0,026
1171,121	2	-0,235
1173,262	2	-0,328
1175,41	2	-0,324
1177,558	0,5	-0,449
1179,7	0	-0,542
1181,854	-0,5	-0,711
1183,996	0	-0,676
1186,144	-1	-0,779
1188,286	-1,5	-0,832
1190,433	-1,5	-0,931
1192,575	-1,5	-0,965
1194,723	-2	-1,045
1196,871	-2,5	-1,147
1199,019	-2,5	-1,159
1201,161	-2,5	-1,21
1203,309	-2,5	-1,248
1205,451	-3	-1,335
1207,598	-3	-1,357
1209,74	-3	-1,476
1211,888	-3,5	-1,52
1214,036	-4	-1,605
1216,172	-3,5	-1,626
1218,314	-4	-1,671
1220,456	-4	-1,69
1222,604	-4,5	-1,765
1224,745	-5	-1,88
1226,887	-5	-1,898
1229,029	-5	-1,97
1231,177	-6,5	-2,189
1233,313	-5,5	-2,194
1235,461	-6,5	-2,29
1237,597	-7	-2,33
1239,751	-7,5	-2,421
1241,892	-8	-2,485
1244,04	-8	-2,52
1246,188	-8,5	-2,622
1248,324	-9,5	-2,701
1250,472	-10,5	-2,903
1252,614	-12,5	-3,05
1254,762	-13	-3,129
1256,904	-13	-3,139
1259,045	-13,5	-3,214
1261,187	-14	-3,257
1263,335	-15	-3,302
1265,483	-15	-3,318
1267,631	-14,5	-3,305
1269,773	-16	-3,331
1271,915	-16	-3,358
1274,057	-17	-3,402
1276,205	-17,5	-3,425
1278,346	-18	-3,433
1280,495	-19	-3,451
1282,63	-18,5	-3,455
1284,778	-19	-3,465
1286,92	-19,5	-3,474
1289,068	-19,5	-3,484
1291,21	-19,5	-3,489
1293,358	-19,5	-3,493
1295,499	-19,5	-3,494
1297,647	-19,5	-3,496
1299,795	-20	-3,497
1301,937	-19,5	-3,498
1304,085	-20	-3,498
1306,227	-20	-3,498
1308,375	-20	-3,498
1310,511	-19,5	-3,499
1312,658	-19,5	-3,499
1314,8	-20	-3,499
1316,948	-19,5	-3,499
1319,096	-19,5	-3,5
1321,238	-19,5	-3,5
1323,38	-19,5	-3,497
1325,528	-19,5	-3,408
1327,67	-19,5	-3,432
1329,817	-19,5	-3,383
1331,959	-19,5	-3,31
1334,107	-19,5	-3,238
1336,243	-19,5	-3,257
1338,391	-19,5	-3,19
1340,533	-19	-3,182
1342,687	-18,5	-3,033
1344,829	-15	-2,88
1346,976	-14,5	-2,731
1349,118	-14,5	-2,744
1351,266	-14,5	-2,696
1353,408	-12,5	-2,592
1355,55	-11	-2,435
1357,692	-10	-2,337
1359,834	-10	-2,297
1361,976	-9,5	-2,224
1364,124	-9	-2,123
1366,271	-7	-1,983
1368,413	-7	-1,961
1370,555	-6	-1,835
1372,697	-5,5	-1,784
1374,839	-5,5	-1,734
1376,993	-4,5	-1,593
1379,135	-4	-1,488
1381,283	-3,5	-1,354
1383,418	-2,5	-1,18
1385,566	-2	-1,126
1387,708	-2	-1,075
1389,856	-1,5	-0,989
1392,004	-1,5	-0,846
1394,152	-0,5	-0,68
1396,288	-0,5	-0,681
1398,436	-0,5	-0,669
1400,571	0	-0,606
1402,725	0	-0,512
1404,867	0	-0,478
1407,015	0	-0,407
1409,157	0	-0,341
1411,305	0,5	-0,208
1413,453	1	-0,129
1415,607	1,5	-0,084
1417,748	2	-0,05
1419,896	2	-0,036
1422,038	2	-0,024
1424,18	2,5	-0,014
1426,328	3	-0,011
1428,476	2,5	-0,008
1430,618	2,5	-0,006
1432,76	3	-0,006
1434,901	3	-0,005
1437,043	2,5	-0,004
1439,191	3	-0,003
1441,339	3	-0,002
1443,481	3	-0,002
1445,629	3	-0,001
1447,771	3	-0,001
1449,919	3	-0,001
1452,06	3	0
1454,208	3	0
1456,356	2,5	-0,001
1458,504	2,5	-0,036
1460,646	2,5	-0,124
1462,794	2,5	-0,221
1464,936	2,5	-0,288
1467,084	1,5	-0,402
1469,226	1,5	-0,42
1471,367	1,5	-0,458
1473,515	1,5	-0,515
1475,657	1,5	-0,528
1477,805	0	-0,615
1479,953	-0,5	-0,76
1482,101	-1	-0,807
1484,243	-1	-0,89
1486,391	-1,5	-0,933
1488,532	-1	-0,989
1490,68	-2	-1,106
1492,822	-2	-1,161
1494,976	-2	-1,262
1497,118	-2,5	-1,296
1499,266	-2,5	-1,356
1501,408	-3	-1,417
1503,544	-3	-1,475
1505,691	-3	-1,508
1507,833	-3	-1,515
1509,981	-3	-1,559
1512,123	-3	-1,556
1514,265	-3	-1,606
1516,407	-3,5	-1,63
1518,555	-3,5	-1,69
1520,697	-4	-1,73
1522,838	-4	-1,726
1524,98	-4	-1,709
1527,122	-4	-1,726
1529,27	-4	-1,718
1531,412	-4	-1,736
1533,56	-4	-1,741
1535,702	-4	-1,724
1537,85	-4	-1,82
1539,992	-4	-1,87
1542,133	-4,5	-1,968
1544,281	-5	-2,043
1546,423	-5	-2,004
1548,571	-4,5	-2,025
1550,719	-5,5	-2,112
1552,867	-6	-2,181
1555,009	-5,5	-2,195
1557,15	-6,5	-2,356
1559,292	-6,5	-2,396
1561,446	-7,5	-2,501
1563,588	-8	-2,515
1565,736	-9	-2,654
1567,878	-9	-2,661
1570,02	-9,5	-2,712
1572,168	-9,5	-2,776
1574,309	-9,5	-2,802
1576,451	-9,5	-2,836
1578,593	-10,5	-2,832
1580,741	-11	-2,892
1582,883	-11	-2,937
1585,025	-11,5	-2,976
1587,167	-12	-3,012
1589,309	-12	-3,041
1591,457	-12,5	-3,046
1593,598	-12,5	-3,081
1595,74	-12,5	-3,085
1597,882	-11,5	-3,072
1600,024	-12,5	-3,131
1602,172	-14,5	-3,226
1604,314	-14	-3,225
1606,462	-14	-3,22
1608,603	-14	-3,27
1610,745	-14	-3,264
1612,893	-15	-3,308
1615,035	-15	-3,315
1617,183	-15	-3,335
1619,319	-15,5	-3,363
1621,473	-16,5	-3,375
1623,615	-16	-3,378
1625,757	-15,5	-3,355
1627,904	-15,5	-3,383
1630,04	-16,5	-3,395
1632,194	-17	-3,407
1634,33	-17,5	-3,424
1636,478	-18	-3,435
1638,62	-18	-3,453
1640,762	-17	-3,458
1642,91	-19	-3,473
1645,045	-18	-3,474
1647,193	-18,5	-3,477
1649,335	-18,5	-3,477
1651,471	-18,5	-3,467
1653,619	-18,5	-3,472
1655,761	-18,5	-3,478
1657,909	-19	-3,483
1660,051	-18,5	-3,482
1662,198	-19	-3,485
1664,346	-19	-3,488
1666,494	-19	-3,492
1668,636	-19	-3,493
1670,778	-19,5	-3,494
1672,926	-19,5	-3,496
1675,068	-19	-3,495
1677,21	-19,5	-3,496
1679,351	-19,5	-3,496
1681,493	-19	-3,496
1683,641	-19	-3,498
1685,783	-19,5	-3,498
1687,931	-19	-3,499
1690,073	-19,5	-3,499
1692,209	-19	-3,499
1694,357	-19,5	-3,5
1696,505	-19,5	-3,497
1698,64	-19,5	-3,339
1700,788	-18,5	-3,258
1702,924	-19	-3,259
1705,072	-18,5	-3,188
1707,22	-18	-3,105
1709,356	-19	-3,129
1711,498	-18	-3,148
1713,64	-16,5	-3,088
1715,787	-15,5	-3,026
1717,929	-17	-2,997
1720,077	-15	-2,9
1722,219	-15	-2,876
1724,373	-13,5	-2,712
1726,515	-13,5	-2,657
1728,657	-13	-2,612
1730,805	-12	-2,591
1732,946	-12,5	-2,65
1735,094	-12,5	-2,597
1737,236	-12,5	-2,589
1739,378	-12	-2,511
1741,526	-10,5	-2,453
1743,668	-10,5	-2,47
1745,816	-11	-2,423
1747,958	-11,5	-2,484
1750,105	-10,5	-2,44
1752,247	-10,5	-2,422
1754,389	-10	-2,381
1756,543	-9	-2,288
1758,685	-8,5	-2,232
1760,827	-8,5	-2,218
1762,969	-8	-2,183
1765,111	-7,5	-2,096
1767,258	-7,5	-2,031
1769,4	-7,5	-2,044
1771,542	-7	-2,063
1773,69	-7	-2,014
1775,838	-7,5	-2,045
1777,98	-8	-2,064
1780,128	-6,5	-1,984
1782,276	-7	-2,01
1784,417	-7	-1,985
1786,559	-7,5	-2,058
1788,713	-7,5	-1,936
1790,855	-6,5	-1,971
1792,997	-8	-2,038
1795,145	-7	-2,041
1797,287	-6,5	-1,991
1799,435	-6	-1,932
1801,577	-6	-1,892
1803,718	-5,5	-1,841
1805,866	-5	-1,776
1808,008	-4,5	-1,705
1810,15	-4,5	-1,642
1812,298	-4	-1,617
1814,44	-4,5	-1,694
1816,588	-4,5	-1,667
1818,73	-4,5	-1,69
1820,877	-4,5	-1,636
1823,013	-5	-1,712
1825,149	-5	-1,744
1827,297	-4,5	-1,695
1829,439	-4,5	-1,667
1831,581	-4	-1,57
1833,723	-4,5	-1,603
1835,865	-4	-1,537
1838,012	-3,5	-1,467
1840,148	-3,5	-1,504
1842,29	-4	-1,496
1844,438	-3	-1,417
1846,58	-3	-1,376
1848,728	-3	-1,318
1850,87	-2	-1,198
1853,012	-2	-1,04
1855,159	-1	-0,89
1857,295	-0,5	-0,807
1859,437	-0,5	-0,739
1861,585	-0,5	-0,744
1863,727	0	-0,624
1865,869	-0,5	-0,59
1868,011	0	-0,528
1870,153	0	-0,574
1872,294	0	-0,492
1874,436	0	-0,484
1876,578	0	-0,396
1878,72	0	-0,357
1880,862	0	-0,397
1882,998	0	-0,434
1885,14	0	-0,363
1887,282	0,5	-0,319
1889,429	0	-0,246
1891,565	0,5	-0,226
1893,707	1	-0,192
1895,855	1,5	-0,093
1897,997	2,5	-0,052
1900,139	2,5	-0,04
1902,281	2,5	-0,03
1904,423	2,5	-0,024
1906,565	2,5	-0,028
1908,712	3	-0,021
1910,854	2,5	-0,015
1912,996	2,5	-0,01
1915,144	3	-0,007
1917,286	2,5	-0,005
1919,434	2,5	-0,004
1921,57	3	-0,002
1923,712	3	-0,001
1925,859	3	-0,002
1927,995	3	-0,002
1930,137	2,5	-0,001
1932,285	3	-0,001
1934,427	2,5	-0,001
1936,569	3	-0,001
1938,717	2,5	0
1940,853	3	-0,001
1943	2,5	-0,001
1945,142	2,5	-0,076
1947,284	2,5	-0,157
1949,432	2	-0,321
1951,574	1,5	-0,379
1953,722	2	-0,384
1955,864	1,5	-0,494
1958,006	1,5	-0,496
1960,153	0	-0,576
1962,295	0	-0,654
1964,437	0	-0,709
1966,585	-0,5	-0,822
1968,727	-0,5	-0,846
1970,869	-1,5	-0,891
1973,011	-1,5	-0,922
1975,159	-1	-0,959
1977,3	-1,5	-1,015
1979,436	-1,5	-0,988
1981,578	-1,5	-1,081
1983,726	-1,5	-1,22
1985,868	-2	-1,211
1988,016	-2	-1,255
1990,158	-2	-1,231
1992,3	-1,5	-1,031
1994,441	-1,5	-1,092
1996,583	-1	-0,951
1998,725	-1	-0,927
2000,867	-1	-0,834
2003,003	-0,5	-0,828
2005,145	-0,5	-0,825
2007,287	-1,5	-0,982
2009,429	-0,5	-0,74
2011,571	-0,5	-0,812
2013,712	-0,5	-0,72
2015,848	-0,5	-0,756
2017,99	0	-0,577
2020,132	-0,5	-0,75
2022,274	-0,5	-0,78
2024,416	-1	-0,936
2026,558	-0,5	-0,763
2028,7	-1	-0,873
2030,841	-1,5	-1,051
2032,989	-2	-1,28
2035,131	-3	-1,522
2037,273	-3	-1,726
2039,421	-3	-1,749
2041,563	-3,5	-1,81
2043,705	-4	-1,87
2045,847	-4	-1,804
2047,988	-3,5	-1,796
2050,13	-3	-1,469
2052,278	-2,5	-1,513
2054,42	-3	-1,595
2056,568	-3	-1,725
2058,71	-3	-1,566
2060,852	-2,5	-1,511
2062,994	-2,5	-1,481
2065,135	-2,5	-1,485
2067,277	-3	-1,566
2069,425	-3	-1,679
2071,567	-3	-1,65
2073,709	-3	-1,705
2075,857	-3,5	-1,739
2077,999	-3	-1,724
2080,141	-3	-1,749
2082,288	-3,5	-1,792
2084,43	-3,5	-1,77
2086,572	-3,5	-1,712
2088,72	-3,5	-1,74
2090,862	-4	-1,795
2093,004	-3,5	-1,781
2095,146	-4	-1,821
2097,288	-4	-1,874
2099,436	-4	-1,91
2101,577	-4	-1,914
2103,713	-3,5	-1,844
2105,855	-3,5	-1,798
2107,991	-3,5	-1,78
2110,133	-3,5	-1,795
2112,281	-3,5	-1,747
2114,423	-3	-1,65
2116,565	-3	-1,64
2118,706	-3	-1,565
2120,854	-3	-1,516
2122,996	-2,5	-1,556
2125,138	-2,5	-1,566
2127,286	-2,5	-1,544
2129,428	-2,5	-1,547
2131,57	-2,5	-1,496
2133,718	-2,5	-1,514
2135,859	-3	-1,521
2138,007	-2,5	-1,512
2140,149	-2,5	-1,466
2142,291	-2,5	-1,448
2144,433	-2	-1,392
2146,575	-2	-1,33
2148,717	-2,5	-1,381
2150,859	-2	-1,315
2153	-2	-1,291
2155,142	-1,5	-1,193
2157,29	-1,5	-1,183
2159,432	-1,5	-1,191
2161,574	-1,5	-1,241
2163,722	-2	-1,236
2165,858	-2	-1,172
2168	-2	-1,218
2170,147	-1,5	-1,201
2172,289	-2	-1,247
2174,431	-1,5	-1,213
2176,579	-1,5	-1,192
2178,727	-1	-1,134
2180,869	-1	-1,057
2183,017	-1,5	-1,027
2185,159	-1,5	-1,035
2187,3	-1	-0,925
2189,448	-1,5	-1,075
2191,59	-1	-1,05
2193,732	-1	-0,926
2195,88	-1	-0,82
2198,022	-0,5	-0,759
2200,158	0	-0,615
2202,306	0	-0,573
2204,447	1,5	-0,421
2206,589	1	-0,509
2208,737	0	-0,59
2210,879	0	-0,555
2213,021	0,5	-0,516
2215,163	1	-0,523
2217,305	2	-0,45
2219,447	2	-0,512
2221,589	1,5	-0,574
2223,73	1,5	-0,512
2225,872	1,5	-0,489
2228,02	0,5	-0,602
2230,162	1	-0,577
2232,298	0,5	-0,57
2234,446	1,5	-0,524
2236,582	1,5	-0,501
2238,718	2	-0,474
2240,859	2,5	-0,348
2243,001	2,5	-0,282
2245,143	2,5	-0,344
2247,291	1,5	-0,398
2249,427	2	-0,365
2251,569	1,5	-0,496
2253,717	0	-0,689
2255,859	1	-0,563
2258	0	-0,704
2260,142	0	-0,669
2262,29	0	-0,655
2264,432	-0,5	-0,747
2266,574	-0,5	-0,776
2268,722	-0,5	-0,793
2270,864	0	-0,737
2273,006	0	-0,74
2275,147	0,5	-0,63
2277,301	0	-0,699
2279,443	0	-0,792
2281,591	-0,5	-0,799
2283,733	0	-0,742
2285,875	0	-0,734
2288,017	0	-0,72
2290,159	0	-0,696
2292,3	0	-0,658
2294,436	1	-0,55
2296,584	1,5	-0,54
2298,726	1,5	-0,57
2300,868	0,5	-0,562
2303,016	0,5	-0,578
2305,158	0	-0,677
2307,3	-0,5	-0,807
2309,447	-1	-0,937
2311,589	-1	-1,007
2313,731	-1	-1,052
2315,879	-1	-1,042
2318,021	-1,5	-1,232
2320,163	-1,5	-1,308
2322,311	-2	-1,457
2324,447	-2,5	-1,489
2326,589	-2,5	-1,608
2328,736	-3	-1,79
2330,878	-3	-1,814
2333,02	-3	-1,732
2335,162	-2,5	-1,724
2337,304	-3	-1,791
2339,446	-3,5	-1,891
2341,588	-3,5	-1,934
2343,736	-3,5	-1,902
2345,877	-3,5	-1,89
2348,019	-3,5	-1,913
2350,161	-4	-2,016
2352,303	-4	-2,094
2354,451	-5	-2,255
2356,587	-5,5	-2,327
2358,729	-5,5	-2,415
2360,871	-5,5	-2,44
2363,018	-6	-2,52
2365,16	-6,5	-2,682
2367,302	-7	-2,722
2369,45	-8	-2,83
2371,592	-9	-2,976
2373,734	-9,5	-3,036
2375,876	-9,5	-3,075
2378,03	-11	-3,23
2380,171	-11,5	-3,282
2382,313	-12	-3,323
2384,467	-13,5	-3,37
2386,609	-13,5	-3,395
2388,751	-13	-3,357
2390,899	-12	-3,335
2393,041	-11	-3,267
2395,177	-11	-3,228
2397,324	-11	-3,219
2399,466	-11	-3,236
2401,602	-11,5	-3,247
2403,744	-11,5	-3,27
2405,892	-12	-3,306
2408,034	-11,5	-3,291
2410,176	-12	-3,319
2412,318	-12	-3,334
2414,459	-11	-3,292
2416,607	-12	-3,319
2418,749	-11,5	-3,298
2420,891	-12	-3,319
2423,027	-11,5	-3,288
2425,175	-11,5	-3,304
2427,317	-10,5	-3,253
2429,459	-10	-3,242
2431,595	-10,5	-3,242
2433,736	-10,5	-3,257
2435,878	-10	-3,215
2438,02	-10	-3,106
2440,162	-9,5	-3,071
2442,298	-9,5	-3,091
2444,44	-10	-3,126
2446,588	-10,5	-3,217
2448,73	-11,5	-3,303
2450,865	-11	-3,259
2453,013	-11,5	-3,313
2455,155	-11	-3,298
2457,297	-12	-3,313
2459,433	-12	-3,353
2461,581	-14	-3,411
2463,723	-13,5	-3,388
2465,871	-13	-3,387
2468,012	-13,5	-3,415
2470,154	-13	-3,396
2472,296	-12,5	-3,35
2474,444	-12,5	-3,376
2476,586	-12,5	-3,37
2478,728	-12	-3,364
2480,876	-13,5	-3,381
2483,018	-13,5	-3,385
2485,159	-12,5	-3,337
2487,301	-12,5	-3,348
2489,449	-11,5	-3,319
2491,591	-11	-3,284
2493,733	-10	-3,179
2495,881	-10,5	-3,184
2498,023	-11	-3,27
2500,165	-11,5	-3,319
2502,312	-11	-3,283
2504,454	-11	-3,259
2506,602	-12	-3,33
2508,744	-12,5	-3,387
2510,886	-12	-3,376
2513,028	-11	-3,326
2515,17	-11,5	-3,336
2517,312	-11	-3,34
2519,453	-13	-3,382
2521,601	-13,5	-3,418
2523,743	-13,5	-3,425
2525,885	-14,5	-3,451
2528,027	-14,5	-3,458
2530,175	-15	-3,468
2532,311	-14,5	-3,469
2534,447	-15	-3,472
2536,595	-14,5	-3,463
2538,736	-15	-3,467
2540,878	-14,5	-3,464
2543,026	-13,5	-3,44
2545,168	-14	-3,447
2547,31	-14	-3,454
2549,452	-14,5	-3,454
2551,6	-14,5	-3,452
2553,742	-14	-3,448
2555,884	-14	-3,442
2558,031	-14,5	-3,458
2560,173	-14	-3,452
2562,315	-13,5	-3,433
2564,463	-13	-3,424
2566,605	-13,5	-3,427
2568,747	-13,5	-3,423
2570,889	-13,5	-3,427
2573,036	-14	-3,444
2575,184	-13,5	-3,432
2577,326	-13,5	-3,431
2579,474	-13	-3,428
2581,616	-13,5	-3,431
2583,752	-13,5	-3,432
2585,918	-14,5	-3,451
2588,06	-14	-3,435
2590,201	-13,5	-3,43
2592,349	-13,5	-3,438
2594,491	-13,5	-3,426
2596,633	-13,5	-3,42
2598,781	-13,5	-3,433
2600,923	-13,5	-3,42
2603,059	-13	-3,416
2605,207	-13,5	-3,434
2607,348	-14	-3,431
2609,49	-13,5	-3,426
2611,632	-13,5	-3,414
2613,78	-13	-3,406
2615,922	-12,5	-3,404
2618,064	-13	-3,415
2620,212	-13,5	-3,406
2622,354	-13,5	-3,418
2624,495	-13,5	-3,415
2626,637	-13	-3,416
2628,785	-13,5	-3,437
2630,927	-13,5	-3,426
2633,069	-13,5	-3,421
2635,211	-13,5	-3,414
2637,353	-12,5	-3,414
2639,495	-13	-3,405
2641,643	-13	-3,43
2643,784	-13,5	-3,434
2645,92	-13	-3,422
2648,062	-12,5	-3,402
2650,204	-11,5	-3,363
2652,346	-10,5	-3,252
2654,488	-11	-3,296
2656,636	-11	-3,309
2658,778	-11,5	-3,352
2660,919	-11,5	-3,341
2663,067	-12	-3,359
2665,215	-11	-3,331
2667,357	-12	-3,355
2669,499	-12	-3,359
2671,647	-12,5	-3,375
2673,789	-12	-3,363
2675,925	-11,5	-3,321
2678,066	-11	-3,299
2680,214	-7,5	-2,866
2682,35	-6	-2,636
2684,492	-5,5	-2,511
2686,64	-5,5	-2,502
2688,782	-5	-2,49
2690,924	-4,5	-2,3
2693,072	-5	-2,429
2695,213	-4,5	-2,271
2697,355	-4,5	-2,37
2699,497	-4	-2,298
2701,639	-4	-2,258
2703,781	-4,5	-2,378
2705,923	-4,5	-2,332
2708,071	-4,5	-2,402
2710,213	-5	-2,474
2712,354	-5	-2,52
2714,502	-6	-2,706
2716,65	-6,5	-2,818
2718,792	-7,5	-2,965
2720,934	-7,5	-2,956
2723,082	-8,5	-3,059
2725,224	-9	-3,126
2727,36	-8	-3,119
2729,501	-9,5	-3,207
2731,649	-10	-3,302
2733,785	-9,5	-3,268
2735,927	-10,5	-3,33
2738,075	-10	-3,333
2740,217	-11	-3,386
2742,359	-11,5	-3,395
2744,501	-12	-3,394
2746,649	-12,5	-3,42
2748,79	-11,5	-3,39
2750,932	-11	-3,377
2753,08	-12	-3,403
2755,216	-12	-3,412
2757,358	-11,5	-3,41
2759,506	-12,5	-3,423
2761,648	-13	-3,44
2763,79	-13	-3,441
2765,925	-13	-3,439
2768,073	-13,5	-3,456
2770,215	-13,5	-3,465
2772,357	-13,5	-3,46
2774,505	-13,5	-3,456
2776,647	-13	-3,449
2778,789	-12,5	-3,436
2780,931	-12,5	-3,436
2783,084	-13	-3,445
2785,226	-13	-3,449
2787,368	-13	-3,443
2789,51	-12,5	-3,439
2791,658	-12,5	-3,42
2793,8	-11,5	-3,387
2795,942	-10,5	-3,331
2798,084	-10	-3,318
2800,225	-9,5	-3,268
2802,367	-9	-3,241
2804,509	-9,5	-3,301
2806,657	-8,5	-3,256
2808,799	-9	-3,209
2810,941	-8	-3,09
2813,083	-7,5	-3,008
2815,231	-6	-2,832
2817,372	-5	-2,596
2819,514	-4,5	-2,445
2821,656	-4,5	-2,336
2823,798	-4	-2,306
2825,94	-4,5	-2,389
2828,082	-4,5	-2,345
2830,23	-3,5	-2,291
2832,366	-3	-2,157
2834,507	-3	-2,091
2836,649	-2	-1,87
2838,797	-2,5	-1,882
2840,939	-2	-1,762
2843,075	-2,5	-1,777
2845,217	-2	-1,722
2847,359	-1,5	-1,566
2849,501	-1,5	-1,52
2851,643	-1,5	-1,496
2853,79	-1,5	-1,572
2855,932	-1,5	-1,548
2858,074	-1	-1,427
2860,228	-1	-1,405
2862,37	-1	-1,317
2864,512	-0,5	-1,171
2866,654	-0,5	-0,993
2868,802	-0,5	-0,92
2870,943	0	-0,901
2873,079	0,5	-0,618
2875,221	1,5	-0,552
2877,363	1,5	-0,512
2879,505	2,5	-0,402
2881,653	2,5	-0,268
2883,795	3	-0,205
2885,943	3	-0,002
2888,084	3	-0,001
2890,226	3	0
2892,368	3	0
2894,51	3	0
2896,652	3	-0,001
2898,794	3	-0,001
2900,954	3	0
2903,096	3	-0,001
2905,237	3	-0,001
2907,379	3	-0,002
2909,527	3	-0,002
2911,669	3	-0,003
2913,811	3	-0,003
2915,953	3	-0,004
2918,095	3	-0,004
2920,237	3	-0,004
2922,372	3	-0,009
2924,508	3	-0,01
2926,656	3	-0,01
2928,798	3	-0,012
2930,934	3	-0,023
2933,082	3	-0,012
2935,224	3,5	-0,011
2937,36	3	-0,013
2939,507	3	-0,012
2941,655	2,5	-0,04
2943,797	2,5	-0,045
2945,939	2,5	-0,042
2948,087	3	-0,03
2950,229	3	-0,026
2952,371	3	-0,026
2954,513	3	-0,022
2956,661	3	-0,021
2958,802	3	-0,018
2960,944	3	-0,017
2963,086	3	-0,01
2965,234	3	-0,013
2967,376	3	-0,011
2969,518	3	-0,012
2971,666	3	-0,009
2973,808	3	-0,007
2975,949	3	-0,012
2978,091	2,5	-0,041
2980,239	2,5	-0,046
2982,381	2	-0,064
2984,523	2,5	-0,072
2986,665	1,5	-0,28
2988,807	0	-0,881
2990,949	0	-0,868
2993,09	0	-0,859
2995,232	0	-0,82
2997,38	0	-1,059
2999,522	-1	-1,417
3001,664	-1	-1,527
3003,818	-1	-1,544
3005,96	-1	-1,429
3008,102	-1	-1,458
3010,243	-1	-1,514
3012,391	-1	-1,477
3014,533	-1	-1,596
3016,675	-1	-1,529
3018,823	-1	-1,534
3020,965	-1,5	-1,589
3023,107	-1	-1,618
3025,243	-1,5	-1,768
3027,39	-1,5	-1,724
3029,532	-2	-1,909
3031,674	-1,5	-1,784
3033,816	-2	-1,808
3035,964	-1,5	-1,732
3038,106	-1,5	-1,698
3040,248	-1	-1,621
3042,396	-1	-1,519
3044,537	-1	-1,554
3046,673	-1,5	-1,729
3048,809	-1,5	-1,688
3050,957	-1	-1,508
3053,099	-1	-1,563
3055,241	-1	-1,714
3057,383	-1,5	-1,829
3059,525	-2	-1,923
3061,667	-2,5	-2,084
3063,808	-3,5	-2,32
3065,95	-3,5	-2,292
3068,092	-3,5	-2,283
3070,234	-4,5	-2,456
3072,37	-6	-2,579
3074,512	-6	-2,73
3076,66	-7,5	-2,9
3078,802	-9	-3,041
3080,943	-11	-3,35
3083,085	-11	-3,5
3085,233	-11	-3,499
3087,375	-11	-3,499
3089,523	-11	-3,499
3091,665	-11	-3,499
3093,807	-11,5	-3,499
3095,949	-11,5	-3,499
3098,09	-11	-3,499
3100,238	-11	-3,498
3102,38	-11	-3,498
3104,522	-11	-3,498
3106,664	-11	-3,499
3108,812	-11	-3,499
3110,954	-11	-3,499
3113,102	-11	-3,499
3115,249	-11	-3,499
3117,391	-11	-3,499
3119,533	-11	-3,499
3121,675	-11	-3,499
3123,823	-11	-3,5
3125,965	-11	-3,5
3128,107	-11	-3,494
3130,249	-11	-3,491
3132,396	-11	-3,462
3134,538	-11	-3,388
3136,686	-11	-3,451
3138,828	-11	-3,456
3140,976	-11	-3,408
3143,118	-11	-3,5
3145,26	-11	-3,5
3147,408	-11	-3,5
3149,549	-11	-3,5
3151,691	-11	-3,499
3153,839	-11	-3,499
3155,981	-11	-3,499
3158,123	-11	-3,499
3160,265	-11	-3,499
3162,413	-11	-3,499
3164,555	-11	-3,499
3166,697	-11	-3,499
3168,838	-11	-3,499
3170,986	-10,5	-3,499
3173,128	-11	-3,499
3175,27	-10,5	-3,499
3177,418	-10,5	-3,5
3179,56	-10,5	-3,5
3181,702	-10,5	-3,5
3183,844	-10,5	-3,499
3185,985	-10,5	-3,5
3188,133	-10,5	-3,445
3190,281	-10,5	-3,445
3192,423	-10,5	-3,492
3194,565	-10,5	-3,471
3196,713	-10,5	-3,471
3198,855	-10,5	-3,433
3200,997	-10,5	-3,458
3203,138	-10,5	-3,428
3204,176	3	-0,001