File: Cycling_tests/_50perc/_4gap/entrada/_1.txt
Time (s)	Load (N)	Displacement (mm)
0	0	-0,026
1,715	-1	-0,241
3,425	-13	-2,272
5,135	-20	-3,496
6,97	-15,5	-3,19
8,674	-3	-1,145
10,378	2	-0,011
12,082	-5,5	-1,243
13,786	-19	-3,248
15,508	-16,5	-3,428
17,212	-5	-1,581
18,922	2,5	-0,002
20,626	-2,5	-0,774
22,336	-15	-2,802
24,045	-18	-3,478
25,755	-7,5	-2,093
27,468	2,5	-0,047
29,175	0,5	-0,214
30,885	-10,5	-2,233
32,595	-18	-3,496
34,305	-10,5	-2,599
36,009	1	-0,597
37,713	2,5	-0,056
39,429	-7,5	-1,763
41,144	-18	-3,499
42,854	-13	-2,992
44,564	-0,5	-0,995
46,268	3	-0,016
47,99	-4,5	-1,363
49,7	-17,5	-3,5
51,476	-16,5	-3,409
53,198	-4,5	-1,828
54,968	3	-0,001
56,809	2,5	-0,106
58,621	-5	-1,433
60,357	-17	-3,426
62,143	-17	-3,462
63,913	-7	-2,096
65,629	3,5	-0,193
67,347	2,5	-0,14
69,061	-9	-2,102
70,777	-17	-3,498
72,487	-9	-2,627
74,196	2	-0,557
75,907	3	-0,054
77,622	-7	-1,745
79,332	-17	-3,499
81,055	-12,5	-3,132
82,77	-1	-1,185
84,486	3,5	-0,006
86,202	-3	-1,108
87,918	-16,5	-3,02
89,64	-16,5	-3,465
91,356	-5	-1,87
93,077	3,5	-0,001
94,787	0	-0,494
96,557	-10	-2,273
98,279	-17	-3,496
100,133	-14	-3,304
101,855	-2	-1,36
103,691	3,5	-0,004
105,401	0,5	-0,307
107,189	-7	-1,846
108,905	-16,5	-3,499
110,765	-15	-3,407
112,57	-5,5	-2,095
114,304	3,5	-0,059
116,17	3,5	-0,023
117,892	-4,5	-1,427
119,758	-13	-2,703
121,474	-16,5	-3,488
123,401	-13,5	-3,323
125,11	-1,5	-1,348
126,988	4	-0,179
128,697	2	-0,164
130,575	-3,5	-1,299
132,303	-16,5	-3,315
134,019	-15	-3,408
136,005	-11	-2,956
137,715	1	-0,979
139,485	4	-0,006
141,201	-2,5	-1,058
142,911	-15	-3,082
144,632	-15	-3,452
146,414	-5,5	-2,176
148,19	3	-0,561
149,906	4	-0,041
151,634	-5	-1,632
153,356	-15,5	-3,5
155,066	-12,5	-3,191
156,782	0	-1,122
158,504	4	-0,009
160,22	-2,5	-1,148
161,941	-15,5	-3,13
163,663	-15,5	-3,456
165,385	-4,5	-1,892
167,101	4	-0,001
168,811	1	-0,418
170,521	-10,5	-2,424
172,249	-15,5	-3,495
173,959	-7	-2,482
175,669	3,5	-0,498
177,373	4	-0,054
179,082	-5	-1,748
180,798	-15,5	-3,499
182,52	-11,5	-3,099
184,242	-0,5	-1,22
185,958	4	-0,006
187,68	-1,5	-0,982
189,408	-13	-2,837
191,124	-15,5	-3,479
192,846	-5,5	-2,149
194,556	4	-0,138
196,266	2,5	-0,185
197,976	-8,5	-2,182
199,685	-15,5	-3,497
201,545	-14,5	-3,387
203,261	-2,5	-1,58
205,067	4	-0,042
206,789	2,5	-0,158
208,505	-7,5	-2,085
210,221	-15,5	-3,498
211,943	-9,5	-2,842
213,666	0,5	-0,903
215,38	4	-0,016
217,09	-3	-1,394
218,812	-15	-3,342
256,85	-12,5	-2,793
258,572	-15	-3,481
260,3	-5,5	-2,201
262,022	4	-0,276
263,726	3,5	-0,1
265,442	-6	-1,869
267,157	-15	-3,498
268,879	-10,5	-3,032
270,601	0	-1,036
272,329	4,5	-0,008
274,045	-1,5	-1,11
275,767	-14,5	-3
277,477	-15	-3,457
279,199	-4	-1,856
280,909	4,5	-0,001
282,631	1	-0,403
284,34	-10	-2,486
286,056	-15	-3,491
287,772	-6	-2,358
289,488	4	-0,422
291,204	4	-0,053
292,926	-5	-1,71
294,648	-15	-3,499
296,358	-11,5	-3,171
298,08	-0,5	-1,228
299,784	4,5	-0,007
301,493	-0,5	-1,014
303,209	-14	-2,984
304,937	-15	-3,471
306,647	-3,5	-1,914
308,363	4,5	0
310,085	2	-0,27
311,795	-8,5	-2,323
313,511	-15	-3,494
315,233	-8	-2,652
316,949	3	-0,605
318,67	4,5	-0,032
320,392	-3	-1,534
322,102	-15	-3,5
323,818	-11,5	-3,238
325,54	-1	-1,352
327,256	4,5	-0,003
328,972	0	-0,864
330,688	-12,5	-2,853
332,416	-15	-3,478
334,138	-4,5	-2,072
335,86	4,5	-0,165
337,575	3,5	-0,137
339,297	-5,5	-1,878
341,013	-15	-3,499
342,723	-10,5	-3,096
344,445	0	-1,117
346,167	4,5	-0,008
347,889	-1	-1,024
349,605	-13	-2,912
351,327	-15	-3,475
353,031	-4	-1,918
354,746	4,5	-0,001
356,462	3	-0,186
358,178	-7	-2,1
359,9	-15	-3,498
361,616	-9	-2,827
363,338	1	-0,991
365,048	4,5	-0,012
366,77	-1	-1,082
368,486	-14	-3,055
370,202	-14,5	-3,457
371,917	-3,5	-1,906
373,639	4,5	-0,001
375,355	2,5	-0,267
377,077	-7	-2,142
378,805	-15	-3,498
380,521	-9	-2,858
382,237	1	-0,927
383,965	4,5	-0,012
385,681	-1,5	-1,165
387,409	-14	-3,105
389,13	-14,5	-3,45
390,846	-3	-1,843
392,556	5	-0,001
394,278	1,5	-0,489
395,994	-9	-2,504
397,716	-15	-3,492
399,438	-6,5	-2,527
401,154	3,5	-0,516
402,882	4,5	-0,042
404,598	-4	-1,697
406,313	-15	-3,499
408,023	-10	-3,096
409,739	0,5	-1,091
411,455	4,5	-0,011
413,177	-1,5	-1,195
414,905	-15	-3,186
416,615	-14	-3,43
418,325	-1,5	-1,6
420,041	4,5	-0,002
421,757	0,5	-0,738
423,467	-11	-2,805
425,182	-15	-3,48
426,898	-4,5	-2,061
428,608	4,5	-0,027
430,33	3	-0,256
432,046	-7,5	-2,288
433,768	-15	-3,496
435,49	-7,5	-2,633
437,2	3,5	-0,629
475,202	4,5	-0,176
476,911	3,5	-0,166
478,633	-5,5	-1,938
480,349	-15	-3,498
482,065	-10,5	-3,238
483,847	0	-1,183
485,563	5	-0,007
487,279	-1	-1,17
488,995	-14,5	-3,22
490,717	-13,5	-3,417
492,439	-1,5	-1,511
494,161	4,5	-0,002
495,882	1,5	-0,612
497,604	-9	-2,529
499,319	-15	-3,49
501,036	-5,5	-2,325
502,752	4	-0,367
504,486	4,5	-0,065
506,196	-5	-1,84
507,912	-15	-3,498
509,634	-10	-3,05
511,349	0,5	-1,066
513,059	5	-0,013
514,775	-1,5	-1,21
516,497	-13,5	-3,075
518,213	-14	-3,447
519,935	-2,5	-1,762
521,657	5	-0,001
523,379	2	-0,479
525,101	-8	-2,342
526,817	-15	-3,495
528,533	-6	-2,455
530,248	4,5	-0,358
531,97	4,5	-0,084
533,68	-4,5	-1,85
535,402	-14,5	-3,499
537,112	-9,5	-3,063
538,828	0,5	-1,047
540,55	4,5	-0,011
542,266	-1,5	-1,273
543,976	-14,5	-3,253
545,692	-13,5	-3,419
547,407	-2	-1,718
549,117	5	-0,001
550,833	1,5	-0,518
552,543	-8,5	-2,51
554,265	-14,5	-3,492
555,981	-5,5	-2,364
557,703	3,5	-0,517
559,413	4,5	-0,047
561,123	-3,5	-1,727
562,839	-14,5	-3,499
564,554	-9,5	-3,102
566,271	1	-1,112
567,98	5	-0,009
569,702	-1	-1,146
571,418	-14	-3,201
573,128	-12,5	-3,398
574,844	-1	-1,503
576,56	5	-0,002
578,27	0,5	-0,684
579,986	-10,5	-2,726
581,701	-14,5	-3,485
583,424	-4,5	-2,186
585,133	5	-0,244
586,849	3,5	-0,124
588,565	-6	-2,081
590,275	-14,5	-3,497
591,985	-7	-2,722
593,695	2,5	-0,796
595,411	5	-0,021
597,127	-3,5	-1,579
598,836	-14,5	-3,5
600,552	-10,5	-3,299
602,268	0	-1,288
603,99	5,5	-0,004
605,706	0	-0,86
607,422	-11	-2,796
609,132	-14,5	-3,479
610,848	-4	-2,141
612,558	4,5	-0,3
614,268	4	-0,106
615,977	-4,5	-1,868
617,693	-14,5	-3,498
619,421	-9,5	-3,106
621,137	0,5	-1,096
622,853	5	-0,008
624,569	-1	-1,14
626,285	-14	-3,11
628,001	-13,5	-3,45
629,717	-2,5	-1,788
631,433	5	-0,001
633,143	2	-0,452
634,858	-8,5	-2,404
636,568	-14,5	-3,493
638,29	-5,5	-2,52
640,012	3,5	-0,625
641,722	5	-0,038
643,444	-3	-1,582
645,154	-14	-3,5
646,87	-11	-3,329
648,586	0	-1,432
650,296	5,5	-0,004
652,017	0	-0,89
653,733	-10,5	-2,789
655,449	-14	-3,48
657,165	-3,5	-2,097
658,881	5	-0,125
660,591	3,5	-0,195
662,313	-6	-2,139
664,029	-14	-3,497
665,733	-7	-2,682
667,455	3	-0,702
669,165	5	-0,034
670,886	-3	-1,557
672,602	-14	-3,5
674,306	-10,5	-3,293
676,028	0	-1,342
677,738	5	-0,005
679,454	0	-0,945
681,164	-13	-2,98
682,88	-14	-3,467
684,596	-2,5	-1,805
686,311	5	-0,001
688,033	1,5	-0,514
689,743	-10	-2,649
691,471	-14,5	-3,489
693,187	-4	-2,228
694,897	5	-0,079
696,613	3,5	-0,209
698,323	-7	-2,243
700,045	-14	-3,496
701,761	-6	-2,588
703,483	4	-0,591
705,192	4,5	-0,054
706,908	-3	-1,643
708,618	-14	-3,5
710,334	-10	-3,192
712,05	0,5	-1,172
713,766	5,5	-0,008
715,482	-0,5	-1,118
717,192	-13,5	-3,166
718,902	-12,5	-3,437
720,618	-1,5	-1,682
722,327	5,5	-0,002
724,049	1,5	-0,593
725,759	-9,5	-2,616
727,481	-14	-3,489
801,601	-7,5	-2,896
803,311	3	-0,711
805,129	5,5	-0,009
806,845	-1	-1,27
808,56	-14	-3,372
810,276	-11,5	-3,38
811,998	-0,5	-1,513
813,708	5,5	-0,003
815,418	0	-0,938
817,146	-11	-2,905
818,862	-13,5	-3,471
820,572	-2,5	-1,921
822,288	5,5	-0,001
824,01	2,5	-0,403
825,72	-8,5	-2,481
827,435	-14	-3,491
829,145	-4,5	-2,195
830,867	5,5	-0,232
832,577	4	-0,157
834,293	-6	-2,206
836,009	-14	-3,497
837,725	-7,5	-2,745
839,435	3,5	-0,66
841,151	5	-0,035
842,867	-3	-1,603
844,582	-14	-3,5
846,292	-10,5	-3,291
848,008	0	-1,222
849,718	5	-0,007
851,434	-0,5	-1,075
853,144	-12,5	-3,069
854,86	-13,5	-3,461
856,57	-2	-1,794
858,286	5,5	-0,001
859,996	2	-0,531
861,712	-9	-2,574
863,421	-13,5	-3,489
865,131	-4	-2,205
866,853	5,5	-0,248
868,563	4	-0,138
870,285	-5	-2,033
872,001	-14	-3,498
873,717	-7	-2,72
875,427	3,5	-0,658
877,143	5,5	-0,038
878,858	-2,5	-1,631
880,568	-13,5	-3,5
882,29	-10	-3,241
884,006	0,5	-1,197
885,722	5,5	-0,007
887,432	-0,5	-1,208
889,142	-13,5	-3,318
890,858	-12	-3,4
892,574	0	-1,462
894,284	5,5	-0,003
896	0,5	-0,878
897,715	-10,5	-2,904
899,425	-13,5	-3,464
901,147	-2,5	-1,933
902,857	5,5	-0,001
904,567	3	-0,448
906,289	-7,5	-2,406
908,005	-13,5	-3,492
909,721	-4,5	-2,219
911,431	5,5	-0,066
913,153	3,5	-0,19
914,868	-5,5	-2,144
916,584	-13,5	-3,496
918,294	-6	-2,6
920,004	4,5	-0,479
921,72	5	-0,054
923,43	-3,5	-1,874
925,146	-14	-3,499
926,862	-8	-2,983
928,578	2	-0,945
930,288	5,5	-0,016
932,009	-1,5	-1,398
933,719	-13,5	-3,497
935,429	-9,5	-3,242
937,145	1	-1,18
938,855	5,5	-0,009
940,571	-0,5	-1,183
942,281	-13,5	-3,297
944,003	-12	-3,405
945,713	-1	-1,536
947,423	5,5	-0,003
949,139	1	-0,859
950,854	-9,5	-2,81
952,564	-13,5	-3,48
954,28	-3,5	-2,116
955,99	5,5	-0,131
957,706	4	-0,208
959,416	-5,5	-2,196
961,126	-13,5	-3,496
962,848	-5,5	-2,547
964,558	3,5	-0,601
966,267	5,5	-0,047
967,989	-3,5	-1,794
969,699	-13,5	-3,499
971,415	-8,5	-2,956
973,131	1,5	-0,877
974,847	5,5	-0,017
976,557	-1,5	-1,459
978,273	-13,5	-3,495
979,989	-10,5	-3,335
981,699	0	-1,302
983,42	5,5	-0,007
985,13	0	-1,154
986,846	-13	-3,16
988,562	-13	-3,436
990,272	-1,5	-1,66
991,994	5,5	-0,002
993,704	1	-0,773
995,414	-9,5	-2,798
997,13	-13,5	-3,478
998,852	-3	-1,997
1000,562	5,5	-0,001
1002,277	3	-0,414
1003,993	-6,5	-2,397
1005,703	-13,5	-3,493
1007,425	-4,5	-2,383
1009,135	5	-0,364
1010,851	5	-0,076
1012,567	-4	-1,899
1014,277	-13,5	-3,498
1015,987	-8	-2,96
1017,697	1,5	-1,01
1019,406	5,5	-0,012
1021,116	-0,5	-1,223
1022,832	-13	-3,198
1024,548	-12,5	-3,427
1026,258	-1,5	-1,703
1027,974	5,5	-0,001
1029,69	3	-0,46
1031,4	-7	-2,394
1033,11	-13,5	-3,493
1034,826	-5	-2,447
1036,541	5	-0,451
1038,251	5	-0,062
1039,973	-3	-1,811
1041,689	-13,5	-3,499
1043,399	-8,5	-2,992
1045,109	1,5	-1,011
1046,831	6	-0,01
1048,541	-0,5	-1,204
1050,251	-13	-3,184
1051,973	-12,5	-3,442
1053,688	-1,5	-1,72
1055,398	6	-0,001
1057,108	2	-0,596
1058,824	-9	-2,63
1060,534	-13,5	-3,487
1062,244	-4,5	-2,281
1063,966	5	-0,288
1065,676	4,5	-0,113
1067,386	-4,5	-2,049
1069,09	-13,5	-3,497
1070,806	-7	-2,81
1072,539	2,5	-0,931
1074,249	5,5	-0,016
1075,965	-0,5	-1,277
1077,681	-13,5	-3,205
1079,391	-12	-3,416
1081,101	-0,5	-1,682
1082,823	6	-0,001
1084,533	2	-0,538
1086,243	-8,5	-2,536
1087,953	-13,5	-3,49
1089,663	-4,5	-2,307
1091,384	5	-0,384
1093,094	4,5	-0,091
1094,81	-3,5	-1,861
1096,52	-13,5	-3,499
1098,242	-8	-3,102
1099,952	1,5	-1,134
1101,662	5,5	-0,007
1103,372	-0,5	-1,141
1105,088	-12,5	-3,039
1106,803	-13	-3,448
1108,513	-1,5	-1,78
1110,223	5,5	-0,001
1111,945	2,5	-0,473
1113,655	-8,5	-2,556
1115,365	-13	-3,488
1117,081	-3,5	-2,279
1118,791	5,5	-0,169
1120,501	4	-0,167
1122,211	-4,5	-2,042
1123,927	-13,5	-3,498
1125,636	-6	-2,756
1127,346	3	-0,812
1129,05	5,5	-0,031
1130,766	-2	-1,544
1132,476	-13,5	-3,5
1134,186	-10	-3,278
1135,896	0	-1,36
1137,6	6	-0,004
1139,31	0	-1
1141,014	-12	-3,01
1142,735	-12,5	-3,461
1144,445	-2	-1,882
1146,155	5,5	0
1147,865	3	-0,357
1149,575	-7	-2,36
1151,297	-13,5	-3,495
1153,007	-5,5	-2,596
1154,723	4	-0,591
1156,433	5,5	-0,042
1158,143	-2,5	-1,674
1159,858	-13	-3,5
1161,568	-9	-3,218
1163,278	0,5	-1,292
1164,988	5,5	-0,004
1166,704	0	-1,109
1168,414	-13	-3,151
1170,124	-12	-3,432
1171,84	-1	-1,692
1173,55	5,5	-0,002
1175,266	1,5	-0,596
1176,975	-10	-2,739
1178,685	-13	-3,482
1180,395	-3	-2,121
1182,105	5,5	-0,022
1183,827	3,5	-0,192
1185,537	-5	-2,157
1187,247	-13	-3,496
1188,951	-5	-2,549
1190,667	4	-0,66
1192,383	5,5	-0,043
1194,092	-3,5	-1,834
1195,808	-13	-3,499
1197,518	-7,5	-2,92
1199,234	3	-0,879
1200,944	5,5	-0,02
1202,654	-1,5	-1,412
1204,376	-13	-3,462
1206,086	-10	-3,32
1207,796	0	-1,349
1209,512	5,5	-0,003
1211,221	0,5	-0,897
1212,937	-10	-2,886
1214,647	-12,5	-3,471
1216,357	-2,5	-2
1218,067	5,5	0
1219,783	3	-0,427
1221,499	-6,5	-2,363
1223,209	-13	-3,494
1224,913	-5	-2,529
1226,629	4	-0,598
1228,351	5	-0,032
1230,06	-1,5	-1,521
1231,77	-13	-3,499
1233,48	-9,5	-3,251
1235,19	1	-1,233
1236,906	5,5	-0,006
1238,616	0	-1,092
1240,326	-12,5	-3,166
1242,036	-12	-3,426
1243,752	-1,5	-1,816
1245,468	5,5	-0,001
1247,178	3	-0,49
1248,887	-8	-2,471
1250,597	-12,5	-3,492
1252,313	-4,5	-2,45
1254,023	5	-0,436
1255,739	5	-0,076
1257,449	-3,5	-1,836
1259,159	-12,5	-3,499
1260,881	-8	-3,103
1262,591	2	-1,004
1264,306	6	-0,014
1266,016	0	-1,268
1267,727	-12,5	-3,237
1269,442	-11,5	-3,427
1271,152	0	-1,48
1272,862	6	-0,004
1274,572	1,5	-0,876
1276,282	-10	-2,89
1277,998	-12,5	-3,472
1279,708	-0,5	-1,69
1281,417	6	-0,004
1283,133	1	-0,906
1284,843	-10,5	-2,963
1286,571	-12	-3,47
1288,287	-2,5	-2,058
1289,997	5,5	-0,16
1291,707	3,5	-0,254
1293,423	-5	-2,169
1295,139	-12,5	-3,497
1296,855	-5,5	-2,648
1298,564	4	-0,651
1300,281	5	-0,06
1301,99	-3	-1,929
1303,706	-12,5	-3,498
1305,422	-7	-2,921
1307,132	2	-0,938
1308,842	5,5	-0,018
1310,552	-1,5	-1,417
1312,268	-12	-3,479
1313,978	-10	-3,339
1315,687	0	-1,421
1317,391	6	-0,004
1319,107	0,5	-0,887
1320,823	-10	-2,914
1322,533	-12	-3,47
1324,243	-2,5	-1,993
1325,953	5,5	-0,004
1327,663	3	-0,357
1329,373	-6,5	-2,541
1331,089	-12	-3,491
1332,799	-4	-2,332
1334,508	5	-0,333
1336,224	4,5	-0,086
1337,934	-3	-1,885
1339,656	-12,5	-3,499
1341,366	-7,5	-3,061
1343,076	1,5	-1,009
1344,786	5,5	-0,015
1346,496	-1	-1,431
1348,218	-12	-3,496
1349,934	-10	-3,351
1351,644	0,5	-1,291
1353,353	5,5	-0,006
1355,063	0	-1,028
1356,779	-10,5	-3,065
1358,489	-11,5	-3,443
1360,199	-1	-1,72
1361,903	5,5	-0,001
1363,613	2	-0,612
1365,323	-8	-2,679
1367,039	-12	-3,486
1368,754	-3,5	-2,229
1370,465	5,5	-0,309
1372,181	4,5	-0,105
1373,896	-3,5	-1,995
1375,606	-12	-3,498
1377,316	-5,5	-2,704
1379,032	3,5	-0,692
1380,742	5,5	-0,035
1382,454	-1	-1,588
1384,162	-12	-3,5
1385,871	-8,5	-3,236
1387,593	0	-1,344
1389,303	5,5	-0,004
1391,019	1	-0,929
1392,729	-8	-2,794
1394,439	-12	-3,477
1396,155	-2	-1,951
1397,865	6	-0,001
1399,575	3,5	-0,35
1401,291	-5	-2,335
1403,007	-12	-3,494
1404,788	-6	-2,83
1406,498	2,5	-0,885
1408,208	5,5	-0,029
1409,918	-1,5	-1,566
1411,628	-11,5	-3,498
1413,476	-11,5	-3,48
1415,186	-3	-2,075
1416,89	6	-0,015
1418,612	4	-0,196
1420,322	-4,5	-2,153
1422,031	-11	-3,496
1423,753	-4,5	-2,575
1425,469	3,5	-0,649
1427,179	5,5	-0,035
1428,895	-1,5	-1,613
1430,605	-11	-3,499
1432,315	-8	-3,223
1434,025	1	-1,157
1435,747	5,5	-0,006
1437,457	0,5	-1,09
1439,179	-10	-3,107
1440,888	-10,5	-3,444
1442,598	0	-1,566
1444,308	5,5	-0,002
1446,024	2	-0,802
1447,734	-9	-2,94
1449,444	-10,5	-3,463
1451,154	-1	-1,734
1452,864	5,5	-0,001
1454,574	2	-0,648
1456,289	-8	-2,898
1458	-10,5	-3,468
1459,709	-1,5	-1,881
1461,425	5,5	-0,001
1463,135	2	-0,635
1464,845	-6	-2,644
1466,555	-10,5	-3,486
1468,271	-2,5	-2,127
1469,981	5,5	-0,096
1471,697	3,5	-0,34
1473,407	-5	-2,45
1475,11	-11	-3,49
1476,814	-3	-2,221
1478,524	5,5	-0,138
1480,24	4	-0,185
1481,956	-3	-2,084
1483,672	-10,5	-3,498
1485,382	-5,5	-2,831
1487,098	3	-0,758
1488,808	5,5	-0,035
1490,518	-0,5	-1,704
1492,233	-10,5	-3,499
1493,943	-7	-3,107
1495,659	1,5	-1,004
1497,369	5,5	-0,017
1499,079	-0,5	-1,565
1500,789	-10,5	-3,499
1502,505	-6	-2,937
1504,221	2	-0,905
1505,931	5,5	-0,033
1507,647	-1	-1,691
1509,356	-10,5	-3,499
1511,066	-6	-2,912
1512,782	3	-0,806
1514,492	5,5	-0,031
1516,196	-0,5	-1,69
1517,906	-10	-3,499
1519,616	-6,5	-3,04
1521,326	1,5	-1,027
1523,042	6	-0,01
1524,752	0	-1,273
1526,461	-10	-3,296
1528,177	-9,5	-3,402
1529,887	0	-1,502
1531,597	5,5	-0,003
1533,313	1,5	-0,793
1535,029	-6,5	-2,76
1536,739	-10	-3,474
1538,449	-2	-1,987
1540,165	5,5	-0,015
1541,875	4	-0,286
1543,579	-3,5	-2,27
1545,3	-10	-3,495
1547,01	-4,5	-2,537
1548,72	4,5	-0,431
1550,43	4,5	-0,121
1552,146	-2	-1,941
1553,856	-10	-3,498
1555,566	-5	-2,791
1557,27	2,5	-0,851
1558,986	5,5	-0,019
1560,69	0	-1,364
1562,399	-10	-3,276
1564,115	-9	-3,403
1565,825	0	-1,579
1567,535	5,5	-0,002
1569,251	2,5	-0,666
1570,961	-5,5	-2,664
1572,671	-10	-3,483
1574,381	-2	-2,093
1576,097	5,5	-0,096
1577,807	3,5	-0,218
1579,522	-3,5	-2,221
1581,238	-10	-3,496
1582,954	-4	-2,619
1584,664	4	-0,689
1586,374	5,5	-0,031
1588,09	-0,5	-1,493
1589,8	-9,5	-3,498
1591,51	-7,5	-3,293
1593,226	1,5	-1,128
1594,936	5,5	-0,007
1596,639	1	-1,065
1598,355	-9	-3,084
1600,071	-9,5	-3,454
1601,781	-0,5	-1,648
1603,497	5,5	-0,001
1605,207	2,5	-0,54
1606,911	-6	-2,627
1608,627	-10	-3,489
1610,337	-1,5	-2,007
1612,053	5,5	0
1613,768	2,5	-0,454
1615,484	-5	-2,564
1617,194	-10	-3,487
1618,904	-2	-2,08
1620,614	5,5	-0,006
1622,324	3,5	-0,267
1624,04	-3,5	-2,254
1625,75	-9,5	-3,496
1627,466	-3,5	-2,588
1629,176	4,5	-0,552
1630,898	5	-0,049
1632,607	-1	-1,721
1851,391	2,5	-0,503
1853,107	-4,5	-2,523
1854,823	-9	-3,492
1856,533	-2,5	-2,282
1858,242	5	-0,153
1859,952	3,5	-0,269
1861,662	-3	-2,365
1863,372	-9	-3,494
1865,082	-3	-2,44
1866,792	4	-0,509
1868,508	4,5	-0,065
1870,218	-1,5	-2,021
1871,928	-8,5	-3,498
1873,638	-3,5	-2,557
1875,354	4,5	-0,412
1877,063	4,5	-0,086
1878,779	-1,5	-1,966
1880,489	-9	-3,498
1882,205	-4	-2,785
1883,915	2,5	-0,765
1885,625	5	-0,038
1887,341	0	-1,512
1889,057	-8,5	-3,499
1890,773	-7	-3,331
1892,483	0	-1,281
1894,192	5	-0,007
1895,908	0,5	-1,066
1897,618	-8	-3,17
1899,328	-8	-3,441
1901,044	-0,5	-1,714
1902,754	5	-0,001
1904,464	1,5	-0,653
1906,174	-5	-2,773
1907,884	-8,5	-3,481
1909,594	-1,5	-1,991
1911,303	5	-0,001
1913,019	2	-0,509
1914,735	-4,5	-2,601
1916,445	-8,5	-3,488
1918,155	-2,5	-2,358
1919,871	4,5	-0,278
1921,581	3,5	-0,168
1923,297	-2	-2,163
1925,007	-8,5	-3,496
1926,717	-3	-2,615
1928,438	4	-0,556
1930,148	4,5	-0,044
1931,858	-0,5	-1,789
1933,568	-8,5	-3,499
1935,284	-4,5	-2,941
1936,994	2,5	-0,793
1938,704	5	-0,03
1940,426	0	-1,501
1942,13	-8	-3,5
1943,84	-6	-3,293
1945,556	0	-1,296
1947,271	5	-0,005
1948,981	0,5	-1,035
1950,685	-7,5	-3,064
1952,389	-8	-3,448
1954,099	-0,5	-1,569
1955,809	5	-0,006
1957,519	0,5	-1,068
1959,235	-7,5	-3,095
1960,951	-8	-3,452
1962,667	-0,5	-1,665
1964,376	5	-0,002
1966,086	1,5	-0,776
1967,808	-4,5	-2,729
1969,518	-8,5	-3,479
1971,228	-2	-2,06
1972,938	4,5	-0,027
1974,648	3	-0,29
1976,358	-3	-2,285
1978,074	-8,5	-3,495
1979,784	-2,5	-2,42
1981,487	4,5	-0,322
1983,197	4	-0,114
1984,907	-1,5	-1,969
1986,617	-8	-3,498
1988,327	-4,5	-2,778
1990,037	2,5	-0,78
1991,747	5	-0,023
1993,463	0	-1,455
1995,179	-8	-3,494
1996,889	-6,5	-3,334
1998,598	0	-1,378
2000,314	5	-0,005
2002,024	1	-0,99
2003,734	-7,5	-3,117
2005,516	-8	-3,48
2007,238	-2	-2,172
2008,942	5	-0,142
2010,652	3,5	-0,219
2012,362	-2,5	-2,258
2014,072	-8	-3,495
2015,781	-2,5	-2,352
2017,491	4,5	-0,32
2019,201	4	-0,117
2020,911	-1,5	-2,071
2022,615	-8	-3,497
2024,331	-3,5	-2,698
2026,041	3,5	-0,636
2027,751	4,5	-0,038
2029,461	-0,5	-1,678
2031,177	-8	-3,499
2032,887	-5	-3,079
2034,608	1	-1,135
2036,324	5	-0,008
2038,034	0,5	-1,136
2039,744	-7	-3,093
2041,454	-7,5	-3,436
2043,164	-0,5	-1,638
2044,88	5	-0,002
2046,59	1,5	-0,692
2048,306	-4,5	-2,76
2050,016	-8	-3,482
2051,725	-2	-2,129
2053,435	5	-0,032
2055,151	3,5	-0,222
2056,861	-2	-2,178
2058,571	-8	-3,496
2060,281	-3	-2,587
2061,991	4,5	-0,358
2063,719	4,5	-0,083
2065,429	-1	-1,9
2067,139	-8	-3,498
2068,849	-3,5	-2,713
2070,558	3,5	-0,614
2072,274	4,5	-0,05
2073,984	0	-1,7
2075,694	-8	-3,499
2077,404	-5	-3,015
2079,114	1,5	-0,958
2080,83	5	-0,014
2082,54	0	-1,399
2084,25	-7,5	-3,36
2085,959	-5,5	-3,352
2087,669	0	-1,415
2089,373	5	-0,004
2091,095	1	-0,939
2092,805	-5,5	-2,845
2094,515	-7,5	-3,475
2096,231	-1	-2,001
2097,941	5	0
2099,651	2,5	-0,35
2101,367	-3	-2,301
2103,077	-8	-3,494
2177,112	-8	-3,496
2178,828	-3	-2,644
2180,538	3	-0,711
2182,248	4,5	-0,034
2183,958	-0,5	-1,639
2185,668	-7,5	-3,5
2187,378	-5	-3,242
2189,088	1	-1,216
2190,797	5	-0,006
2192,513	1	-0,993
2194,223	-6	-2,959
2195,933	-7,5	-3,463
2197,643	-1	-1,911
2199,353	4,5	0
2201,063	2,5	-0,328
2202,773	-2,5	-2,309
2204,483	-7,5	-3,495
2206,193	-3	-2,571
2207,903	3,5	-0,562
2209,612	4,5	-0,046
2211,328	-0,5	-1,62
2213,044	-7,5	-3,475
2214,754	-5,5	-3,344
2216,464	0	-1,436
2218,174	5	-0,002
2219,89	1,5	-0,607
2221,6	-4,5	-2,654
2223,316	-7,5	-3,486
2225,026	-1,5	-2,188
2226,736	4,5	-0,218
2228,445	3,5	-0,124
2230,155	-1,5	-2
2231,865	-7,5	-3,498
2233,587	-3,5	-2,944
2235,303	1	-1,056
2237,013	4,5	-0,009
2238,723	0	-1,16
2240,427	-7	-3,078
2242,137	-7	-3,448
2243,852	-1	-1,843
2245,562	4,5	-0,001
2247,278	2	-0,44
2248,994	-2,5	-2,317
2250,704	-7,5	-3,494
2252,414	-3	-2,532
2254,13	3	-0,675
2255,84	4,5	-0,032
2257,55	0	-1,489
2259,266	-7,5	-3,432
2260,976	-5,5	-3,355
2262,691	0	-1,475
2264,401	4,5	-0,002
2266,111	1,5	-0,754
2267,821	-4,5	-2,644
2269,537	-7,5	-3,488
2271,253	-2	-2,347
2272,963	4,5	-0,461
2274,667	4	-0,074
2276,383	-1	-1,798
2278,093	-7,5	-3,499
2279,808	-5	-3,197
2281,518	0	-1,247
2283,234	4,5	-0,006
2284,944	0,5	-0,966
2286,666	-5,5	-2,824
2288,376	-7,5	-3,475
2290,086	-1,5	-2,093
2291,796	4,5	-0,191
2293,506	3,5	-0,137
2295,222	-1,5	-1,981
2296,931	-7,5	-3,498
2298,647	-4	-2,886
2300,357	1	-1,048
2302,067	4,5	-0,011
2303,777	0	-1,217
2305,487	-6	-3,125
2307,203	-6,5	-3,447
2308,913	-0,5	-1,786
2310,623	4,5	-0,001
2312,333	2	-0,398
2314,042	-3	-2,387
2315,752	-7	-3,494
2317,462	-2,5	-2,546
2319,178	3	-0,679
2320,888	4,5	-0,025
2322,604	0	-1,376
2324,32	-7	-3,29
2326,036	-6	-3,424
2327,746	-0,5	-1,69
2329,456	4,5	-0,001
2331,171	2	-0,482
2332,881	-2,5	-2,373
2334,585	-7	-3,494
2336,301	-2,5	-2,571
2338,011	3	-0,69
2339,727	4,5	-0,031
2341,443	0	-1,526
2343,159	-7	-3,475
2344,869	-5,5	-3,348
2346,579	0	-1,466
2348,289	4,5	-0,003
2349,998	1	-0,831
2351,708	-4,5	-2,803
2353,418	-7	-3,479
2355,134	-1	-2,108
2429,11	-5,5	-3,05
2430,826	-6	-3,463
2432,536	-0,5	-1,902
2434,252	4,5	0
2435,967	2,5	-0,259
2437,677	-1,5	-2,209
2439,393	-7	-3,496
2441,103	-3	-2,76
2442,819	2	-0,764
2444,529	4,5	-0,025
2446,239	0	-1,495
2447,949	-6,5	-3,433
2449,659	-5,5	-3,358
2451,369	0	-1,488
2453,079	4,5	-0,002
2454,788	1,5	-0,565
2456,498	-2,5	-2,472
2458,208	-6,5	-3,493
2459,918	-2	-2,428
2461,628	4	-0,431
2463,344	4	-0,061
2465,06	-0,5	-1,715
2466,776	-6,5	-3,499
2468,486	-4	-3,163
2470,196	0,5	-1,176
2471,911	4,5	-0,006
2473,621	0,5	-1,05
2475,331	-6	-3,047
2477,041	-6,5	-3,456
2478,757	-1	-1,896
2480,467	4,5	0
2482,177	2	-0,364
2483,887	-3,5	-2,645
2485,597	-6,5	-3,486
2487,313	-1,5	-2,218
2489,034	4	-0,316
2490,75	3,5	-0,115
2492,46	-1	-2,014
2494,17	-6,5	-3,498
2495,892	-3	-2,867
2497,602	1,5	-0,854
2499,318	4,5	-0,021
2501,028	0	-1,444
2502,738	-6,5	-3,382
2504,448	-4,5	-3,381
2506,163	0	-1,531
2507,873	4,5	-0,003
2509,583	1	-0,814
2511,299	-5,5	-3,064
2513,009	-6	-3,457
2514,719	-0,5	-1,758
2516,429	4,5	-0,001
2518,139	1,5	-0,609
2519,855	-3	-2,546
2521,571	-6,5	-3,492
2523,287	-1,5	-2,391
2524,996	4	-0,435
2526,706	4	-0,066
2528,416	-0,5	-1,749
2530,126	-6,5	-3,499
2531,836	-4	-3,136
2533,546	1	-1,101
2535,262	4,5	-0,019
2536,972	0	-1,389
2611,061	1,5	-0,424
2612,819	-2	-2,198
2614,577	-6,5	-3,498
2616,287	-3	-2,88
2617,997	2	-0,892
2619,713	4,5	-0,017
2621,423	0	-1,338
2623,133	-6	-3,349
2624,837	-5	-3,374
2626,547	0	-1,515
2628,256	4,5	-0,002
2629,966	1,5	-0,681
2631,676	-3,5	-2,684
2633,386	-6	-3,486
2635,096	-1	-2,243
2636,8	4,5	-0,228
2638,51	3,5	-0,13
2640,22	-1	-1,99
2641,936	-6	-3,499
2643,658	-3	-2,979
2645,368	1,5	-0,943
2647,077	4,5	-0,014
2648,787	0	-1,336
2650,497	-6	-3,31
2652,207	-5	-3,391
2653,917	0	-1,588
2655,633	4,5	-0,002
2657,343	1	-0,658
2659,059	-3	-2,614
2660,769	-6	-3,488
2662,479	-1	-2,2
2664,188	4,5	-0,237
2665,898	3	-0,143
2667,608	-1	-1,988
2669,318	-6,5	-3,498
2671,04	-3	-2,861
2672,75	2	-0,8
2674,46	4,5	-0,02
2676,17	0	-1,47
2677,886	-6	-3,5
2679,602	-4	-3,286
2681,311	0,5	-1,265
2683,027	4,5	-0,005
2684,737	0,5	-0,997
2686,447	-5	-3,032
2688,157	-5,5	-3,444
2689,861	0	-1,695
2691,571	4,5	-0,001
2693,281	1,5	-0,59
2694,991	-3	-2,562
2696,713	-6	-3,492
2698,429	-1,5	-2,408
2700,138	4,5	-0,447
2701,848	4	-0,061
2703,564	-0,5	-1,776
2705,274	-6	-3,499
2706,99	-3	-3,052
2708,7	1	-1,114
2710,416	4,5	-0,01
2712,126	0	-1,143
2713,836	-6	-3,261
2715,552	-5	-3,416
2717,261	0	-1,466
2718,971	4,5	-0,003
2720,681	1	-0,787
2722,391	-4	-2,743
2724,101	-6	-3,485
2725,811	-1	-2,175
2727,521	4,5	-0,153
2729,231	3	-0,153
2730,947	-1	-2,022
2732,657	-6	-3,498
2734,372	-2,5	-2,777
2736,088	1,5	-0,888
2737,798	4,5	-0,02
2739,514	0	-1,42
2741,224	-6	-3,382
2742,934	-4,5	-3,367
2744,644	0	-1,445
2746,354	4,5	-0,003
2748,064	1	-0,878
2749,78	-4,5	-2,873
2751,495	-6	-3,471
2753,205	-0,5	-1,921
2754,921	4,5	0
2756,631	1,5	-0,363
2758,341	-2	-2,382
2760,051	-6	-3,493
2761,761	-2	-2,456
2763,477	3,5	-0,483
2765,187	3,5	-0,068
2766,897	-0,5	-1,761
2768,612	-6	-3,499
2770,322	-3,5	-3,101
2772,032	0,5	-1,106
2773,748	4,5	-0,01
2775,464	0	-1,149
2777,174	-6	-3,181
2778,884	-5,5	-3,43
2780,594	0	-1,647
2782,304	4,5	-0,002
2784,014	1	-0,67
2785,736	-3	-2,65
2787,451	-6	-3,487
2789,161	-1	-2,132
2790,877	4,5	-0,053
2792,587	2	-0,258
2794,297	-2	-2,317
2796,007	-6	-3,495
2797,717	-2	-2,482
2799,427	3,5	-0,531
2801,137	4	-0,056
2802,853	-0,5	-1,753
2804,562	-6	-3,499
2806,272	-3	-3,076
2807,982	1	-1,061
2809,692	4,5	-0,016
2811,408	0	-1,308
2813,118	-6	-3,301
2814,834	-5	-3,401
2816,55	0	-1,551
2818,26	4,5	-0,002
2819,97	1	-0,72
2821,685	-3	-2,651
2823,401	-6	-3,487
2825,111	-1	-2,19
2826,821	4,5	-0,097
2828,531	2,5	-0,198
2830,241	-1,5	-2,158
2831,951	-6	-3,496
2833,661	-2	-2,641
2835,377	2,5	-0,722
2837,087	4	-0,034
2838,802	0	-1,582
2840,513	-6	-3,5
2842,222	-3,5	-3,186
2843,932	0,5	-1,173
2845,642	4,5	-0,008
2847,358	0	-1,143
2849,068	-5	-3,023
2850,778	-5,5	-3,453
2852,488	0	-1,67
2854,198	4,5	-0,001
2855,907	1,5	-0,626
2857,617	-3	-2,624
2859,333	-6	-3,487
2861,049	-1	-2,247
2862,765	4,5	-0,276
2864,475	3,5	-0,118
2866,185	-1	-2,008
2867,895	-6	-3,497
2869,605	-2	-2,729
2871,321	2	-0,761
2873,03	4	-0,026
2874,74	0	-1,493
2876,45	-6	-3,5
2878,16	-4	-3,283
2879,87	0	-1,336
2881,58	4,5	-0,004
2883,296	0,5	-0,958
2885,006	-5	-2,96
2886,716	-5,5	-3,456
2888,426	-0,5	-1,866
2890,136	4,5	-0,001
2891,845	1,5	-0,618
2893,549	-4	-2,954
2895,265	-5,5	-3,464
2896,975	-0,5	-1,839
2898,691	4,5	0
2900,407	2	-0,408
2902,117	-2	-2,411
2903,827	-6	-3,493
2905,537	-1,5	-2,32
2907,253	4	-0,329
2908,962	3	-0,141
2910,672	-1,5	-2,108
2912,382	-6	-3,496
2914,092	-2	-2,602
2915,802	3,5	-0,437
2917,512	3,5	-0,078
2919,228	-0,5	-1,828
2920,95	-6	-3,499
2922,66	-3	-3,016
2924,364	1,5	-0,86
2926,073	4	-0,038
2927,783	0	-1,628
2929,493	-6	-3,5
2931,209	-3,5	-3,169
2932,919	0,5	-1,178
2934,635	4,5	-0,006
2936,345	0	-1,127
2938,055	-5,5	-3,136
2939,765	-5	-3,426
2941,475	0	-1,632
2943,191	4,5	-0,002
2944,9	1,5	-0,639
2946,616	-3	-2,647
2948,326	-5,5	-3,481
2950,042	-0,5	-1,834
2951,752	4,5	-0,001
2953,462	1,5	-0,584
2955,178	-2,5	-2,577
2956,888	-5,5	-3,487
2958,598	-1	-2,216
2960,308	4,5	-0,154
2962,018	3	-0,137
2963,727	-1	-2,138
2965,437	-5,5	-3,496
2967,147	-2	-2,609
2968,857	2,5	-0,739
2970,567	4,5	-0,032
2972,277	0	-1,61
2973,987	-6	-3,499
2975,691	-3	-3,096
2977,401	1	-1,093
2979,116	4,5	-0,008
2980,832	0	-1,239
2982,542	-6	-3,269
2984,252	-5	-3,403
2985,962	0	-1,52
2987,672	4,5	-0,002
2989,382	0,5	-0,899
2991,092	-5	-3,024
2992,802	-5,5	-3,44
2994,512	-0,5	-1,679
2996,221	4	-0,002
2997,931	1	-0,708
2999,641	-4	-2,849
3001,357	-5,5	-3,476
3003,073	-0,5	-1,905
3004,783	4	-0,001
3006,493	1,5	-0,456
3008,197	-3	-2,606
3009,907	-5,5	-3,486
3011,617	-0,5	-2,023
3013,326	4	-0,027
3015,042	2	-0,291
3016,758	-1,5	-2,364
3018,468	-6	-3,492
3020,19	-1,5	-2,341
3021,9	4	-0,108
3023,61	2,5	-0,238
3025,32	-2	-2,331
3027,036	-6	-3,494
3028,752	-1,5	-2,476
3030,462	3,5	-0,456
3032,177	2,5	-0,199
3033,887	-1,5	-2,183
3035,591	-6	-3,495
3037,301	-2	-2,466
3039,017	3	-0,582
3040,733	4	-0,044
3042,443	-0,5	-1,758
3080,313	-6	-3,499
3082,017	-3	-3,046
3083,744	1	-1
3085,448	4	-0,014
3087,164	0	-1,361
3088,874	-6	-3,5
3090,584	-3	-2,988
3092,294	1	-0,984
3094,004	4	-0,014
3095,714	0	-1,445
3097,424	-5,5	-3,5
3099,134	-4	-3,233
3100,855	0,5	-1,215
3102,565	4	-0,008
3104,287	0,5	-1,108
3105,997	-5,5	-3,224
3107,713	-5	-3,42
3109,423	0	-1,544
3111,139	4,5	-0,002
3112,843	1	-0,832
3114,553	-4,5	-2,931
3116,263	-5	-3,453
3117,973	0	-1,688
3119,682	4,5	-0,002
3121,392	0,5	-0,81
3123,108	-5	-2,933
3124,824	-5,5	-3,464
3126,534	-0,5	-1,802
3128,25	4	-0,001
3129,96	1	-0,508
3131,67	-3	-2,618
3133,38	-6	-3,483
3135,096	-0,5	-1,942
3136,805	4	-0,001
3138,515	1	-0,574
3140,225	-3	-2,673
3141,935	-5,5	-3,477
3143,645	-0,5	-1,985
3145,367	4	0
3147,083	1,5	-0,313
3148,793	-2	-2,395
3150,503	-5,5	-3,493
3152,225	-1,5	-2,38
3153,934	4	-0,326
3155,644	3	-0,109
3157,354	-1,5	-2,069
3159,07	-5,5	-3,498
3160,78	-2	-2,734
3162,49	2,5	-0,704
3164,2	4	-0,04
3165,916	-0,5	-1,728
3167,626	-5,5	-3,499
3169,336	-3	-2,946
3171,051	1,5	-0,828
3172,761	4	-0,027
3173,008	4	-0,001