File: Cycling_tests/_50perc/_4gap/entrada/_5.txt
Time (s)	Load (N)	Displacement (mm)
0	0	-0,034
2,243	0	-0,524
4,409	-0,5	-0,567
6,574	-0,5	-0,616
8,734	-0,5	-0,645
10,894	-1	-0,749
13,054	-1	-0,766
15,214	-1	-0,752
17,374	-1,5	-0,808
19,54	-2	-0,904
21,7	-1,5	-0,859
23,866	-2	-0,891
26,025	-2	-0,957
28,191	-2,5	-1,031
30,357	-2,5	-1,036
32,523	-2	-1,016
34,683	-2	-1,051
36,843	-2	-1,058
39,003	-2,5	-1,082
41,169	-3	-1,136
43,328	-3	-1,196
45,488	-3,5	-1,214
47,654	-3,5	-1,348
49,814	-3,5	-1,35
51,98	-4	-1,392
54,14	-3,5	-1,342
56,3	-3	-1,318
58,459	-3	-1,272
60,625	-3,5	-1,336
62,791	-3,5	-1,416
64,951	-4,5	-1,52
67,117	-4,5	-1,589
69,277	-4,5	-1,618
71,437	-4,5	-1,572
73,597	-3,5	-1,484
75,769	-4,5	-1,637
77,934	-5	-1,771
80,1	-3,5	-1,478
82,26	-3,5	-1,445
84,42	-4	-1,483
86,586	-4	-1,509
88,746	-3	-1,326
90,906	-2	-1,056
93,072	-2	-1,031
95,231	-2	-1,016
97,397	-1,5	-0,937
99,557	0,5	-0,584
101,723	0	-0,584
103,883	0	-0,607
106,043	0	-0,599
108,203	0	-0,596
110,363	0,5	-0,513
112,522	0,5	-0,51
114,682	1	-0,47
116,842	0,5	-0,467
119,02	0,5	-0,532
121,18	0	-0,54
123,34	1	-0,436
125,506	0,5	-0,544
127,672	0,5	-0,581
129,838	0	-0,687
132,009	-0,5	-0,792
134,175	-0,5	-0,872
136,347	-1	-0,887
138,513	-1	-0,887
140,673	-1	-0,958
142,845	-1,5	-0,989
145,005	-2	-1,051
147,17	-2,5	-1,236
149,343	-3	-1,302
151,502	-3	-1,322
153,662	-3	-1,33
155,822	-3	-1,347
157,988	-3	-1,428
160,148	-3	-1,472
162,32	-3,5	-1,561
164,479	-4	-1,634
166,651	-4,5	-1,737
168,817	-5	-1,891
170,989	-5,5	-2,082
173,155	-5,5	-2,151
175,321	-6,5	-2,222
177,481	-6,5	-2,219
179,653	-6,5	-2,318
181,818	-7,5	-2,35
183,984	-7,5	-2,393
186,15	-7,5	-2,399
188,316	-7,5	-2,404
190,482	-8	-2,479
192,642	-7,5	-2,492
194,808	-8	-2,524
196,98	-8,5	-2,55
199,145	-8	-2,565
201,305	-7,5	-2,636
203,483	-9,5	-2,756
205,643	-9	-2,721
207,815	-9,5	-2,725
209,981	-9,5	-2,773
212,159	-9,5	-2,748
214,331	-9	-2,757
216,496	-9	-2,72
218,674	-9	-2,77
220,852	-9	-2,794
223,018	-10	-2,82
225,184	-9,5	-2,746
227,35	-9	-2,768
229,51	-9	-2,802
231,676	-10	-2,855
233,841	-10,5	-2,941
236,019	-11,5	-3,061
238,185	-12	-3,157
240,357	-12,5	-3,245
242,529	-12,5	-3,273
244,695	-13,5	-3,323
246,867	-13,5	-3,364
249,027	-13,5	-3,371
251,204	-14,5	-3,406
253,37	-14	-3,403
255,542	-15	-3,435
257,714	-15	-3,453
259,886	-15	-3,463
262,046	-15	-3,46
264,212	-15	-3,462
266,378	-15	-3,464
268,555	-15	-3,475
270,727	-15	-3,474
272,893	-15	-3,477
275,065	-15	-3,485
277,237	-15,5	-3,491
279,397	-15	-3,493
281,569	-15,5	-3,494
283,735	-15	-3,494
285,906	-15,5	-3,495
288,078	-15,5	-3,496
290,244	-15,5	-3,496
292,416	-15	-3,497
294,582	-15	-3,497
296,748	-15,5	-3,498
298,92	-15	-3,499
301,098	-15	-3,499
303,276	-15	-3,5
305,441	-15	-3,5
307,625	-15	-3,496
309,797	-15	-3,44
311,969	-15	-3,446
314,141	-15	-3,354
316,307	-15	-3,383
318,479	-15	-3,242
320,644	-15	-3,21
322,822	-15	-3,052
324,988	-14	-2,977
327,16	-14	-2,92
329,332	-12,5	-2,809
331,498	-13	-2,756
333,67	-10,5	-2,608
335,842	-10	-2,482
338,008	-9	-2,384
340,191	-7,5	-2,2
342,363	-7,5	-2,079
344,535	-6	-1,953
346,701	-6	-1,888
348,873	-5,5	-1,795
351,045	-5,5	-1,759
353,211	-4,5	-1,674
355,377	-5	-1,615
357,548	-3,5	-1,526
359,72	-3	-1,384
361,898	-3	-1,287
364,064	-2	-1,196
366,236	-2	-1,107
368,402	-2	-1,064
370,58	-1,5	-0,935
372,745	-0,5	-0,801
374,905	-0,5	-0,761
377,071	-0,5	-0,714
379,249	0	-0,589
381,415	0	-0,478
383,587	0	-0,32
385,753	0,5	-0,282
387,925	1	-0,199
390,097	1	-0,162
392,262	1,5	-0,122
394,428	1,5	-0,124
396,6	1,5	-0,065
398,766	2	-0,053
400,932	2	-0,036
403,098	2,5	-0,031
405,258	2	-0,024
407,424	2,5	-0,02
409,595	2,5	-0,017
411,761	2,5	-0,013
413,939	2,5	-0,007
416,111	2,5	-0,005
418,283	2,5	-0,004
420,443	2,5	-0,003
422,621	2,5	-0,002
424,781	2,5	-0,002
426,958	2,5	-0,001
429,124	2,5	-0,001
431,302	2,5	-0,001
433,468	2,5	0
435,628	2,5	-0,015
437,8	2,5	-0,141
439,978	2,5	-0,254
442,15	1,5	-0,372
444,315	1,5	-0,442
446,499	0,5	-0,602
448,671	0	-0,728
450,831	0	-0,751
453,003	0	-0,792
455,169	-0,5	-0,857
457,335	-0,5	-0,889
459,513	-1	-1,013
461,678	-1,5	-1,062
463,844	-1	-1,072
466,016	-1,5	-1,171
468,182	-1,5	-1,157
470,354	-1,5	-1,181
472,52	-2	-1,32
474,686	-2,5	-1,427
476,87	-3	-1,612
479,041	-3	-1,637
481,201	-3	-1,598
483,373	-3	-1,644
485,545	-3,5	-1,75
487,717	-4	-1,827
489,889	-4	-1,941
492,073	-5	-2,156
494,233	-4,5	-2,152
496,404	-5	-2,182
498,588	-5,5	-2,3
500,76	-6	-2,367
502,932	-6	-2,493
505,098	-6,5	-2,504
507,27	-6,5	-2,55
509,436	-7,5	-2,615
511,614	-7,5	-2,706
513,779	-8,5	-2,787
515,957	-8,5	-2,794
518,123	-9	-2,906
520,295	-9,5	-2,936
522,473	-9,5	-3,066
524,645	-10,5	-3,192
526,817	-11,5	-3,269
528,989	-11,5	-3,3
531,166	-12,5	-3,364
533,338	-12,5	-3,378
535,504	-12,5	-3,41
537,676	-13,5	-3,419
539,854	-14	-3,439
542,02	-14	-3,443
544,192	-14	-3,453
546,358	-14	-3,452
548,53	-14	-3,458
550,701	-14,5	-3,461
552,867	-14	-3,461
555,045	-14,5	-3,466
557,211	-14,5	-3,465
559,389	-14,5	-3,478
561,549	-14,5	-3,473
563,727	-14,5	-3,478
565,892	-14,5	-3,479
568,058	-14,5	-3,482
570,236	-15	-3,487
572,408	-14,5	-3,489
574,58	-14,5	-3,493
576,746	-15	-3,496
578,912	-14,5	-3,496
581,084	-15	-3,497
583,243	-15	-3,497
585,409	-15	-3,498
587,575	-15	-3,498
589,747	-15	-3,498
591,919	-14,5	-3,498
594,085	-15	-3,498
596,257	-14,5	-3,499
598,429	-14,5	-3,499
600,595	-14,5	-3,499
602,76	-14,5	-3,5
604,926	-14,5	-3,486
607,098	-14,5	-3,348
609,264	-14,5	-3,253
611,43	-13,5	-3,144
613,602	-13,5	-3,065
615,762	-13,5	-3,084
617,934	-12,5	-2,995
620,111	-11	-2,854
622,277	-10,5	-2,79
624,443	-10,5	-2,715
626,621	-10	-2,628
628,793	-9	-2,576
630,959	-9	-2,566
633,125	-8	-2,46
635,296	-8	-2,385
637,462	-7,5	-2,316
639,634	-7	-2,275
641,8	-7	-2,269
643,966	-6,5	-2,229
646,138	-6	-2,084
648,31	-4,5	-1,927
650,482	-4,5	-1,794
652,647	-4	-1,763
654,819	-3,5	-1,674
656,997	-3,5	-1,656
659,175	-3	-1,586
661,335	-3	-1,604
663,501	-2,5	-1,439
665,673	-2	-1,324
667,845	-2	-1,25
670,017	-1,5	-1,199
672,188	-1,5	-1,169
674,366	-1	-1,06
676,538	-1	-0,999
678,71	-0,5	-0,904
680,882	-0,5	-0,83
683,048	0	-0,745
685,22	0	-0,709
687,392	0	-0,568
689,563	0	-0,462
691,735	0,5	-0,364
693,901	0	-0,368
696,073	1	-0,234
698,239	1	-0,183
700,417	1	-0,15
702,583	1,5	-0,13
704,755	1,5	-0,089
706,932	2	-0,07
709,098	2	-0,064
711,27	2,5	-0,053
713,436	2,5	-0,05
715,608	2,5	-0,046
717,774	2	-0,037
719,952	2,5	-0,024
722,118	2,5	-0,018
724,295	3	-0,01
726,467	3	-0,008
728,639	3	-0,004
730,811	2,5	-0,004
732,983	2,5	-0,003
735,149	3	-0,003
737,315	2,5	-0,003
739,475	3	-0,003
741,646	2,5	-0,002
743,818	3	-0,002
745,984	3	-0,002
748,15	2,5	-0,001
750,328	2,5	-0,001
752,5	2,5	-0,001
754,666	3	-0,001
756,838	2,5	0
759,003	2,5	0
761,169	2,5	0
763,341	2,5	-0,046
765,507	2,5	-0,03
767,673	2,5	-0,107
769,839	2,5	-0,149
772,005	2,5	-0,246
774,171	1,5	-0,43
776,336	1	-0,552
778,508	0	-0,721
780,674	0	-0,853
782,846	-1	-1,059
785,018	-1,5	-1,303
787,184	-1,5	-1,452
789,35	-2,5	-1,682
791,522	-3	-1,812
793,687	-3	-1,924
795,859	-4	-2,126
798,019	-4,5	-2,212
800,191	-4,5	-2,333
802,363	-4,5	-2,299
804,535	-5	-2,446
806,695	-6	-2,608
808,867	-6,5	-2,682
811,032	-6,5	-2,73
813,192	-7	-2,818
815,358	-7,5	-2,902
817,53	-8	-3,017
819,696	-9	-3,136
821,862	-9	-3,131
824,034	-9,5	-3,296
826,2	-10,5	-3,318
828,372	-10,5	-3,369
830,543	-12	-3,427
832,709	-12	-3,44
834,875	-12,5	-3,441
837,041	-12,5	-3,452
839,207	-13	-3,463
841,373	-13	-3,47
843,539	-13,5	-3,476
845,704	-13,5	-3,477
847,876	-13,5	-3,482
850,048	-13,5	-3,489
852,22	-13,5	-3,492
854,392	-13,5	-3,494
856,552	-13,5	-3,496
858,724	-13,5	-3,498
860,896	-13,5	-3,499
863,061	-13,5	-3,499
865,233	-13,5	-3,5
867,399	-13,5	-3,366
869,571	-13,5	-3,227
871,743	-12,5	-3,045
873,909	-12	-2,976
876,075	-10,5	-2,896
878,247	-10	-2,743
880,419	-8,5	-2,589
882,596	-7,5	-2,434
884,762	-7,5	-2,386
886,928	-6,5	-2,22
889,1	-5,5	-2,104
891,266	-5	-2,014
893,432	-4	-1,886
895,604	-4	-1,76
897,776	-3,5	-1,694
899,947	-3,5	-1,678
902,113	-3	-1,572
904,279	-2	-1,481
906,451	-2	-1,365
908,623	-2	-1,303
910,801	-1,5	-1,169
912,979	-1	-1,114
915,151	-1	-0,966
917,316	-0,5	-0,859
919,494	-0,5	-0,789
921,66	-0,5	-0,772
923,832	0	-0,683
926,004	0	-0,679
928,17	0	-0,695
930,354	0	-0,536
932,52	0	-0,605
934,692	0	-0,521
936,863	0,5	-0,41
939,035	0,5	-0,407
941,207	0	-0,318
943,373	1	-0,218
945,551	1,5	-0,175
947,729	1,5	-0,14
949,895	1,5	-0,125
952,066	1,5	-0,11
954,238	1,5	-0,099
956,41	2,5	-0,08
958,582	2	-0,066
960,748	2,5	-0,058
962,926	2,5	-0,039
965,092	3	-0,031
967,27	3	-0,025
969,435	2,5	-0,019
971,613	3	-0,015
973,785	3	-0,011
975,945	3	-0,009
978,111	2,5	-0,009
980,283	3	-0,006
982,455	3	-0,004
984,627	3	-0,003
986,798	3	-0,002
988,97	3	-0,002
991,13	3	-0,001
993,302	3	-0,001
995,474	3	-0,001
997,64	3	0
999,818	3	-0,003
1001,978	3	-0,07
1004,149	2,5	-0,162
1006,315	3	-0,264
1008,487	2	-0,363
1010,653	2	-0,417
1012,825	1,5	-0,538
1014,997	0,5	-0,681
1017,163	0,5	-0,745
1019,335	0	-0,849
1021,506	-1	-1,066
1023,672	-1	-1,135
1025,844	-1,5	-1,298
1028,01	-1,5	-1,458
1030,182	-2	-1,563
1032,354	-2	-1,605
1034,526	-2,5	-1,735
1036,692	-2,5	-1,747
1038,863	-2,5	-1,798
1041,023	-3	-1,858
1043,189	-3	-1,934
1045,361	-3	-2,012
1047,527	-4	-2,167
1049,699	-4	-2,24
1051,871	-4,5	-2,42
1054,037	-5	-2,489
1056,208	-5,5	-2,599
1058,374	-5,5	-2,662
1060,54	-6,5	-2,786
1062,706	-7	-2,865
1064,872	-7,5	-3,004
1067,044	-8,5	-3,087
1069,216	-9	-3,223
1071,388	-9,5	-3,24
1073,547	-9,5	-3,258
1075,713	-10	-3,322
1077,873	-10	-3,352
1080,051	-11	-3,409
1082,217	-11,5	-3,433
1084,395	-12	-3,46
1086,561	-12,5	-3,467
1088,721	-12,5	-3,473
1090,892	-12,5	-3,482
1093,058	-13	-3,483
1095,23	-12,5	-3,487
1097,396	-13	-3,488
1099,562	-13	-3,49
1101,734	-12,5	-3,492
1103,912	-13	-3,495
1106,078	-13	-3,497
1108,249	-13	-3,497
1110,415	-13	-3,498
1112,587	-12,5	-3,498
1114,753	-13	-3,498
1116,919	-12,5	-3,498
1119,085	-12,5	-3,498
1121,269	-13	-3,498
1123,435	-13	-3,499
1125,606	-12,5	-3,499
1127,778	-13	-3,499
1129,944	-13	-3,499
1132,116	-13	-3,499
1134,282	-13	-3,499
1136,454	-13	-3,499
1138,62	-13	-3,499
1140,78	-12,5	-3,499
1142,951	-13	-3,499
1145,123	-13	-3,499
1147,289	-13	-3,5
1149,461	-13	-3,5
1151,627	-13	-3,492
1153,793	-12,5	-3,492
1155,959	-12,5	-3,492
1158,131	-12,5	-3,496
1160,291	-12,5	-3,497
1162,462	-12,5	-3,498
1164,628	-13	-3,479
1166,794	-12,5	-3,382
1168,96	-12,5	-3,433
1171,138	-12,5	-3,269
1173,304	-12,5	-3,231
1175,476	-12	-3,146
1177,636	-12	-3,142
1179,807	-12,5	-3,171
1181,973	-12	-3,181
1184,139	-12,5	-3,231
1186,311	-12,5	-3,21
1188,483	-12	-3,18
1190,649	-12,5	-3,238
1192,815	-12	-3,227
1194,987	-12,5	-3,212
1197,158	-12,5	-3,213
1199,324	-12,5	-3,268
1201,49	-13	-3,284
1203,656	-12,5	-3,245
1205,828	-12	-3,116
1207,994	-11,5	-3,1
1210,16	-12	-3,1
1212,332	-11,5	-3,09
1214,503	-12,5	-3,092
1216,669	-12	-3,086
1218,841	-11	-2,992
1221,007	-10,5	-2,96
1223,179	-10	-2,904
1225,345	-9,5	-2,784
1227,517	-8,5	-2,724
1229,683	-9	-2,749
1231,861	-8,5	-2,652
1234,026	-8	-2,565
1236,192	-7,5	-2,56
1238,352	-7	-2,515
1240,524	-6,5	-2,352
1242,69	-6	-2,389
1244,85	-6	-2,429
1247,022	-6	-2,326
1249,181	-7	-2,354
1251,341	-6,5	-2,405
1253,507	-6,5	-2,335
1255,673	-5,5	-2,271
1257,833	-6	-2,344
1260,005	-6,5	-2,35
1262,171	-5,5	-2,26
1264,337	-5,5	-2,285
1266,508	-5	-2,235
1268,68	-5,5	-2,203
1270,852	-4,5	-2,105
1273,018	-5	-2,099
1275,184	-5	-2,13
1277,344	-5,5	-2,17
1279,51	-5	-2,175
1281,676	-4,5	-2,1
1283,841	-4,5	-2,021
1286,007	-4	-2,01
1288,173	-4	-1,983
1290,339	-4	-1,945
1292,499	-4,5	-1,969
1294,671	-4	-1,895
1296,837	-4	-1,886
1299,009	-3,5	-1,849
1301,175	-4	-1,838
1303,352	-3	-1,719
1305,518	-3	-1,64
1307,696	-2,5	-1,532
1309,862	-2,5	-1,472
1312,04	-2	-1,374
1314,206	-2	-1,418
1316,366	-1,5	-1,215
1318,544	-1	-1,024
1320,709	0	-0,78
1322,881	0	-0,569
1325,047	0	-0,452
1327,225	0	-0,344
1329,397	0,5	-0,231
1331,563	1	-0,168
1333,729	1,5	-0,122
1335,9	1,5	-0,075
1338,066	2,5	-0,046
1340,238	2,5	-0,039
1342,398	2,5	-0,038
1344,564	2,5	-0,027
1346,73	2,5	-0,026
1348,902	2,5	-0,021
1351,074	2,5	-0,017
1353,239	2,5	-0,01
1355,411	3	-0,005
1357,577	3	-0,004
1359,743	3	-0,004
1361,909	3	-0,004
1364,069	2,5	-0,002
1366,241	3	-0,002
1368,407	3	-0,002
1370,572	3	-0,002
1372,744	3	-0,001
1374,91	3	-0,001
1377,082	3	0
1379,242	3	0
1381,408	3	-0,088
1383,574	2,5	-0,176
1385,74	2,5	-0,185
1387,906	2,5	-0,174
1390,071	3	-0,19
1392,243	3	-0,238
1394,409	3	-0,228
1396,581	2,5	-0,34
1398,753	2,5	-0,36
1400,919	2	-0,328
1403,091	2	-0,375
1405,257	2,5	-0,35
1407,422	2,5	-0,37
1409,588	2,5	-0,328
1411,76	2	-0,38
1413,932	2	-0,447
1416,104	1,5	-0,5
1418,276	1,5	-0,61
1420,442	0,5	-0,62
1422,614	1	-0,645
1424,773	1	-0,664
1426,951	0,5	-0,714
1429,111	0,5	-0,721
1431,271	1	-0,676
1433,437	0,5	-0,692
1435,609	0	-0,866
1437,781	0	-0,965
1439,953	-0,5	-1,081
1442,124	-0,5	-1,106
1444,296	-0,5	-1,146
1446,462	-0,5	-1,169
1448,634	-1	-1,252
1450,8	-1	-1,186
1452,966	-1	-1,259
1455,144	-1	-1,345
1457,31	-1	-1,356
1459,481	-1,5	-1,381
1461,647	-1,5	-1,466
1463,813	-1,5	-1,606
1465,979	-1,5	-1,611
1468,145	-1,5	-1,627
1470,317	-2	-1,685
1472,477	-2	-1,724
1474,649	-2	-1,845
1476,814	-2,5	-1,834
1478,98	-2,5	-1,872
1481,146	-2,5	-2,011
1483,324	-2,5	-2,076
1485,49	-2,5	-2,076
1487,662	-3	-2,112
1489,834	-3,5	-2,26
1492	-4	-2,404
1494,165	-4	-2,5
1496,331	-4	-2,516
1498,497	-4,5	-2,639
1500,663	-4,5	-2,703
1502,829	-4,5	-2,72
1504,995	-5	-2,735
1507,167	-5	-2,74
1509,333	-5	-2,734
1511,51	-5	-2,805
1513,67	-5	-2,846
1515,842	-5,5	-2,902
1518,002	-5,5	-2,808
1520,168	-5	-2,836
1522,334	-5,5	-2,91
1524,506	-6	-2,988
1526,672	-6	-2,936
1528,837	-6	-2,931
1531,015	-6	-2,986
1533,181	-6	-2,986
1535,347	-6	-3,067
1537,513	-7	-3,168
1539,679	-7	-3,267
1541,845	-8	-3,337
1544,011	-9	-3,364
1546,17	-9	-3,358
1548,348	-9	-3,409
1550,52	-9,5	-3,425
1552,692	-9,5	-3,424
1554,852	-9,5	-3,404
1557,018	-9,5	-3,42
1559,19	-9,5	-3,425
1561,35	-9,5	-3,415
1563,515	-9,5	-3,418
1565,681	-9	-3,426
1567,847	-9,5	-3,428
1570,019	-9,5	-3,418
1572,191	-9,5	-3,418
1574,357	-9,5	-3,414
1576,523	-9,5	-3,429
1578,689	-10	-3,44
1580,854	-10	-3,441
1583,02	-9,5	-3,444
1585,192	-10	-3,448
1587,352	-9,5	-3,432
1589,518	-9,5	-3,431
1591,684	-9	-3,424
1593,85	-10	-3,439
1596,022	-9,5	-3,438
1598,187	-9,5	-3,435
1600,359	-9,5	-3,444
1602,525	-9,5	-3,452
1604,691	-10	-3,457
1606,875	-10	-3,462
1609,041	-10	-3,464
1611,201	-10	-3,459
1613,361	-10	-3,453
1615,52	-9,5	-3,444
1617,692	-9,5	-3,445
1619,858	-10	-3,464
1622,024	-10	-3,463
1624,19	-10	-3,473
1626,362	-10	-3,473
1628,528	-10	-3,473
1630,706	-10	-3,477
1632,872	-10	-3,48
1635,043	-10	-3,483
1637,209	-10	-3,487
1639,375	-10	-3,488
1641,547	-10,5	-3,491
1643,713	-10,5	-3,49
1645,879	-10	-3,49
1648,045	-10	-3,492
1650,21	-10	-3,492
1652,382	-10	-3,494
1654,554	-10,5	-3,494
1656,72	-10	-3,494
1658,892	-10	-3,495
1661,052	-10	-3,494
1663,23	-10	-3,495
1665,396	-10	-3,496
1667,562	-10	-3,496
1669,727	-10	-3,497
1671,899	-10	-3,497
1674,071	-10	-3,498
1676,249	-10	-3,499
1678,421	-10	-3,499
1680,593	-10	-3,499
1682,765	-10	-3,499
1684,937	-10	-3,499
1687,096	-10	-3,499
1689,262	-10	-3,499
1691,44	-10	-3,499
1693,606	-10	-3,499
1695,772	-10	-3,499
1697,944	-10	-3,499
1700,11	-10	-3,5
1702,282	-10	-3,5
1704,447	-10	-3,5
1706,619	-10	-3,5
1708,785	-10	-3,5
1710,951	-10	-3,499
1713,117	-10	-3,5
1715,295	-10	-3,42
1717,461	-10	-3,451
1719,627	-10	-3,427
1721,792	-10	-3,4
1723,958	-10	-3,344
1726,13	-10	-3,36
1728,296	-9,5	-3,339
1730,474	-9,5	-3,252
1732,64	-9	-3,229
1734,812	-9	-3,117
1736,984	-8	-3,023
1739,149	-9	-3,038
1741,315	-8	-2,984
1743,481	-7,5	-2,952
1745,647	-6,5	-2,867
1747,825	-5,5	-2,689
1749,991	-5,5	-2,668
1752,151	-5,5	-2,719
1754,329	-5,5	-2,658
1756,488	-4,5	-2,469
1758,666	-4	-2,42
1760,832	-4	-2,414
1762,998	-4	-2,424
1765,17	-4	-2,399
1767,336	-4	-2,431
1769,502	-3,5	-2,345
1771,674	-3,5	-2,268
1773,839	-3	-2,31
1776,005	-3	-2,229
1778,165	-3	-2,244
1780,331	-3	-2,254
1782,503	-3	-2,239
1784,669	-3	-2,265
1786,841	-3	-2,256
1789,013	-3	-2,231
1791,178	-3	-2,273
1793,344	-3	-2,279
1795,51	-4	-2,24
1797,676	-3	-2,235
1799,842	-3	-2,239
1802,014	-3	-2,214
1804,18	-2,5	-2,145
1806,346	-2,5	-2,139
1808,511	-2,5	-2,08
1810,683	-2	-2,034
1812,855	-2	-2,009
1815,027	-2	-1,994
1817,193	-1,5	-1,952
1819,359	-1,5	-1,92
1821,525	-1,5	-1,829
1823,697	-1	-1,756
1825,869	-1	-1,645
1828,034	-0,5	-1,588
1830,2	-0,5	-1,507
1832,372	-0,5	-1,434
1834,538	0	-1,434
1836,704	-0,5	-1,48
1838,876	0	-1,429
1841,036	-0,5	-1,423
1843,208	-0,5	-1,439
1845,379	0	-1,314
1847,551	0	-1,31
1849,717	0	-1,242
1851,883	0	-1,235
1854,049	0	-1,075
1856,221	0	-1,075
1858,393	0	-1,05
1860,559	0	-1,072
1862,724	0	-1,05
1864,89	0	-1,044
1867,056	0	-1,044
1869,228	0	-0,992
1871,394	0	-0,929
1873,56	0	-0,945
1875,732	0	-0,95
1877,897	0	-0,886
1880,069	0	-0,889
1882,241	0	-0,885
1884,407	0	-0,884
1886,573	0	-0,839
1888,739	0	-0,808
1890,905	0	-0,829
1893,071	0	-0,825
1895,243	0	-0,798
1897,408	0	-0,692
1899,574	0,5	-0,645
1901,74	1	-0,478
1903,918	0,5	-0,455
1906,084	0,5	-0,425
1908,262	1	-0,41
1910,428	1	-0,309
1912,594	1,5	-0,19
1914,765	1,5	-0,108
1916,931	2,5	-0,057
1919,103	2,5	-0,033
1921,269	2,5	-0,022
1923,441	3	-0,015
1925,613	3	-0,01
1927,785	3	-0,005
1929,951	3	-0,003
1932,122	3	-0,002
1934,294	3	-0,001
1936,46	3	-0,001
1938,638	3	-0,001
1940,798	3	-0,001
1942,964	3	0
1945,136	3	-0,058
1947,302	3	-0,318
1949,467	2	-0,42
1951,633	2	-0,507
1953,799	1	-0,676
1955,977	0	-0,806
1958,143	0	-0,854
1960,315	0	-0,916
1962,487	0	-1,022
1964,653	-0,5	-1,166
1966,824	-0,5	-1,351
1968,996	-1	-1,497
1971,156	-0,5	-1,526
1973,322	-0,5	-1,644
1975,494	-1,5	-1,84
1977,654	-1	-1,9
1979,826	-1,5	-1,999
1981,992	-1,5	-2,037
1984,169	-2	-2,134
1986,335	-2	-2,236
1988,501	-2	-2,3
1990,673	-2,5	-2,447
1992,839	-2,5	-2,565
1995,017	-2,5	-2,716
1997,183	-3,5	-2,817
1999,349	-3	-2,828
2001,514	-3,5	-2,983
2003,686	-4	-3,145
2005,852	-4,5	-3,194
2008,03	-5	-3,312
2010,196	-5,5	-3,368
2012,356	-5,5	-3,402
2014,534	-6	-3,44
2016,7	-6	-3,459
2018,865	-6,5	-3,474
2021,037	-6,5	-3,484
2023,203	-6,5	-3,486
2025,369	-7	-3,488
2027,535	-7	-3,492
2029,701	-7	-3,494
2031,867	-6,5	-3,496
2034,033	-7	-3,496
2036,198	-7	-3,496
2038,364	-6,5	-3,497
2040,536	-7	-3,498
2042,708	-6,5	-3,498
2044,874	-6,5	-3,499
2047,04	-6,5	-3,499
2049,206	-6,5	-3,499
2051,372	-6,5	-3,5
2053,537	-6,5	-3,378
2055,709	-6,5	-3,172
2057,875	-6	-3,075
2060,041	-4,5	-2,942
2062,207	-5	-2,92
2064,373	-4,5	-2,861
2066,545	-4	-2,74
2068,711	-3,5	-2,664
2070,882	-3	-2,544
2073,054	-2,5	-2,36
2075,226	-1,5	-2,16
2077,392	-1,5	-2,064
2079,564	-1	-1,975
2081,736	-0,5	-1,854
2083,908	-0,5	-1,749
2086,08	-0,5	-1,762
2088,245	-0,5	-1,735
2090,411	0	-1,618
2092,577	0	-1,483
2094,749	0	-1,385
2096,915	0	-1,342
2099,081	0	-1,293
2101,247	0	-1,25
2103,413	0	-1,16
2105,578	0	-1,089
2107,744	0	-0,978
2109,91	0	-0,84
2112,082	0,5	-0,793
2114,242	0,5	-0,671
2116,414	1	-0,554
2118,58	1	-0,452
2120,74	1	-0,376
2122,911	1,5	-0,205
2125,077	1,5	-0,155
2127,243	2	-0,091
2129,415	2,5	-0,064
2131,581	2,5	-0,057
2133,741	2,5	-0,048
2135,913	2,5	-0,03
2138,079	3	-0,021
2140,244	3	-0,016
2142,423	3	-0,012
2144,588	3	-0,009
2146,754	2,5	-0,006
2148,926	3	-0,004
2151,092	2,5	-0,003
2153,258	2,5	-0,003
2155,436	3	-0,002
2157,602	2,5	-0,001
2159,767	2,5	-0,001
2161,939	3	-0,001
2164,111	3	-0,001
2166,283	2,5	-0,052
2168,455	3	-0,233
2170,621	2	-0,346
2172,787	1,5	-0,438
2174,953	1	-0,561
2177,118	0,5	-0,668
2179,284	0,5	-0,78
2181,456	0	-0,906
2183,622	0	-1,097
2185,788	0	-1,21
2187,954	-0,5	-1,317
2190,126	-0,5	-1,443
2192,286	-0,5	-1,567
2194,451	-1	-1,648
2196,623	-1	-1,837
2198,789	-1,5	-1,976
2200,955	-1,5	-2,105
2203,133	-2	-2,357
2205,299	-2	-2,521
2207,465	-2	-2,59
2209,637	-2,5	-2,738
2211,802	-3	-2,871
2213,968	-3,5	-3,021
2216,14	-3,5	-3,173
2218,312	-4,5	-3,274
2220,484	-4,5	-3,364
2222,65	-5,5	-3,416
2224,822	-5,5	-3,45
2226,994	-5,5	-3,464
2229,153	-6	-3,47
2231,325	-5,5	-3,484
2233,491	-6	-3,488
2235,651	-6	-3,492
2237,823	-6	-3,496
2239,989	-6	-3,498
2242,155	-6	-3,498
2244,327	-6	-3,499
2246,492	-6	-3,499
2248,658	-6	-3,499
2250,824	-6	-3,5
2252,996	-5,5	-3,497
2255,168	-5,5	-3,323
2257,334	-5,5	-3,196
2259,5	-5	-3,093
2261,666	-3,5	-2,969
2263,831	-2,5	-2,729
2266,003	-2,5	-2,599
2268,169	-1,5	-2,47
2270,341	-1,5	-2,28
2272,507	-1	-2,239
2274,685	-0,5	-2,134
2276,851	-0,5	-2,022
2279,023	-0,5	-1,928
2281,206	0	-1,69
2283,366	0	-1,649
2285,532	0	-1,549
2287,704	0	-1,38
2289,87	0	-1,294
2292,042	0	-1,226
2294,214	0,5	-1,08
2296,386	0,5	-0,985
2298,551	0,5	-0,926
2300,723	0,5	-0,827
2302,889	0,5	-0,709
2305,055	1	-0,624
2307,215	1	-0,564
2309,387	1	-0,474
2311,553	1	-0,378
2313,713	1	-0,297
2315,89	1,5	-0,167
2318,056	1,5	-0,132
2320,222	1,5	-0,088
2322,388	2	-0,063
2324,554	2	-0,055
2326,72	2,5	-0,03
2328,88	2,5	-0,022
2331,052	2,5	-0,014
2333,217	3	-0,01
2335,383	3	-0,007
2337,555	3	-0,005
2339,721	2,5	-0,004
2341,887	3	-0,003
2344,053	2,5	-0,002
2346,231	2,5	-0,002
2348,397	2,5	-0,001
2350,562	2,5	-0,001
2352,728	2,5	-0,001
2354,894	2,5	-0,001
2357,066	3	-0,12
2359,244	2,5	-0,314
2361,41	2	-0,346
2363,582	2	-0,462
2365,748	1,5	-0,541
2367,913	1,5	-0,575
2370,079	1	-0,628
2372,245	0	-0,821
2374,417	0	-0,93
2376,583	0	-1,021
2378,749	0	-1,16
2380,915	0	-1,266
2383,087	0	-1,381
2385,252	0	-1,435
2387,424	-0,5	-1,556
2389,59	-0,5	-1,64
2391,756	-0,5	-1,695
2393,922	-0,5	-1,732
2396,1	-1	-1,846
2398,26	-1	-1,812
2400,426	-0,5	-1,812
2402,597	-1	-1,868
2404,763	-1	-1,926
2406,935	-1	-1,974
2409,101	-1	-2,075
2411,273	-1	-2,126
2413,433	-1	-2,113
2415,599	-1	-2,226
2417,771	-1,5	-2,389
2419,937	-1,5	-2,462
2422,102	-1,5	-2,576
2424,274	-2	-2,696
2426,446	-2	-2,769
2428,618	-2	-2,842
2430,79	-2,5	-2,962
2432,962	-3	-3,078
2435,134	-3	-3,218
2437,3	-3	-3,259
2439,466	-3,5	-3,343
2441,637	-4	-3,364
2443,803	-4,5	-3,401
2445,969	-4	-3,425
2448,141	-5	-3,452
2450,313	-5	-3,458
2452,479	-5	-3,465
2454,645	-5	-3,473
2456,81	-5	-3,476
2458,982	-5,5	-3,484
2461,148	-5	-3,487
2463,32	-5	-3,491
2465,486	-5	-3,493
2467,658	-5	-3,495
2469,824	-5	-3,496
2471,996	-5	-3,498
2474,161	-5	-3,498
2476,327	-5	-3,499
2478,487	-5	-3,499
2480,647	-5	-3,499
2482,813	-5	-3,5
2484,979	-5	-3,476
2487,151	-5	-3,327
2489,317	-5	-3,253
2491,49	-5	-3,167
2493,654	-4	-3,079
2495,82	-4	-2,984
2497,992	-2,5	-2,836
2500,164	-2,5	-2,689
2502,33	-1,5	-2,55
2504,496	-1	-2,454
2506,668	-1	-2,334
2508,833	-1	-2,3
2510,999	-0,5	-2,194
2513,165	-0,5	-2,119
2515,337	-0,5	-2,057
2517,497	0	-1,986
2519,663	0	-1,916
2521,829	0	-1,82
2523,995	0	-1,671
2526,166	0	-1,519
2528,338	0	-1,418
2530,51	0	-1,32
2532,676	0	-1,197
2534,842	0	-1,164
2537,008	0	-1,074
2539,174	0	-1,014
2541,34	0	-0,968
2543,511	0,5	-0,857
2545,677	0,5	-0,76
2547,849	0,5	-0,614
2550,015	0,5	-0,529
2552,193	0,5	-0,504
2554,353	1	-0,47
2556,519	1	-0,39
2558,691	1,5	-0,307
2560,856	1	-0,208
2563,028	1,5	-0,166
2565,194	1,5	-0,127
2567,366	2	-0,068
2569,532	2	-0,051
2571,704	2	-0,038
2573,864	2,5	-0,032
2576,036	2,5	-0,024
2578,207	2,5	-0,021
2580,379	2,5	-0,012
2582,539	2,5	-0,01
2584,705	2,5	-0,006
2586,871	2,5	-0,005
2589,037	2,5	-0,004
2591,203	2,5	-0,003
2593,369	2,5	-0,002
2595,54	2,5	-0,002
2597,706	2,5	-0,001
2599,872	2,5	-0,001
2602,044	2,5	-0,001
2604,222	2,5	-0,001
2606,388	2,5	0
2608,554	2,5	-0,022
2610,726	3	-0,114
2612,891	2,5	-0,238
2615,063	1,5	-0,391
2617,235	1,5	-0,528
2619,401	1,5	-0,535
2621,567	0	-0,721
2623,739	0	-0,814
2625,911	0	-0,904
2628,083	0	-0,952
2630,255	0	-1,055
2632,426	0	-1,156
2634,598	0	-1,259
2636,764	-0,5	-1,318
2638,93	-0,5	-1,442
2641,096	-0,5	-1,538
2643,268	-0,5	-1,706
2645,434	-0,5	-1,766
2647,606	-0,5	-1,928
2649,765	-1	-2,011
2651,937	-1	-2,099
2654,103	-1	-2,179
2656,281	-1	-2,303
2658,447	-1	-2,389
2660,613	-1	-2,486
2662,785	-1,5	-2,584
2664,956	-1,5	-2,689
2667,122	-1,5	-2,754
2669,288	-1,5	-2,844
2671,454	-1,5	-2,935
2673,626	-2	-3,036
2675,792	-2,5	-3,174
2677,958	-3	-3,264
2680,13	-3	-3,334
2682,302	-3,5	-3,383
2684,467	-3,5	-3,408
2686,633	-4	-3,441
2688,805	-4	-3,463
2690,977	-4,5	-3,48
2693,143	-4,5	-3,487
2695,309	-4,5	-3,491
2697,481	-4,5	-3,493
2699,653	-4,5	-3,495
2701,818	-4,5	-3,496
2703,99	-4	-3,497
2706,162	-4,5	-3,498
2708,328	-4,5	-3,498
2710,5	-4	-3,499
2712,672	-4,5	-3,499
2714,832	-4,5	-3,5
2716,998	-4	-3,492
2719,163	-4	-3,434
2721,335	-3,5	-3,249
2723,501	-3	-3,146
2725,667	-3	-3,017
2727,839	-2,5	-2,933
2730,005	-2	-2,882
2732,171	-2	-2,74
2734,349	-1,5	-2,574
2736,52	-0,5	-2,442
2738,686	-1	-2,389
2740,852	-0,5	-2,324
2743,024	-0,5	-2,248
2745,196	0	-2,042
2747,368	0	-1,978
2749,534	0	-1,915
2751,7	0	-1,83
2753,865	0	-1,686
2756,031	0	-1,568
2758,197	0	-1,525
2760,363	0	-1,445
2762,541	0	-1,315
2764,707	0	-1,214
2766,873	0	-1,165
2769,039	0,5	-1,044
2771,21	0	-0,934
2773,37	0	-0,894
2775,536	0	-0,814
2777,708	0,5	-0,66
2779,88	0,5	-0,523
2782,046	1	-0,444
2784,212	1	-0,369
2786,384	1	-0,202
2788,549	1	-0,168
2790,715	1,5	-0,119
2792,881	1,5	-0,088
2795,059	1,5	-0,056
2797,225	2	-0,039
2799,391	2	-0,03
2801,557	2	-0,025
2803,735	2	-0,016
2805,894	2	-0,014
2808,06	2	-0,008
2810,226	2,5	-0,005
2812,398	2	-0,004
2814,57	2	-0,003
2816,736	2	-0,002
2818,902	2	-0,002
2821,074	2	-0,001
2823,239	2,5	-0,001
2825,405	2,5	-0,001
2827,583	2	0
2829,749	2	-0,069
2831,915	2	-0,152
2834,081	2,5	-0,237
2836,253	2	-0,365
2838,413	1,5	-0,46
2840,579	1,5	-0,545
2842,744	1	-0,641
2844,916	0,5	-0,73
2847,088	0	-0,862
2849,248	0	-0,949
2851,426	0	-1,136
2853,592	0	-1,217
2855,758	0	-1,271
2857,924	0	-1,36
2860,101	0	-1,491
2862,267	-0,5	-1,671
2864,433	0	-1,742
2866,599	0	-1,885
2868,765	0	-1,992
2870,937	-0,5	-2,032
2873,103	-0,5	-2,108
2875,268	-0,5	-2,23
2877,446	-0,5	-2,343
2879,618	-0,5	-2,481
2881,784	-0,5	-2,547
2883,95	-0,5	-2,608
2886,128	-1	-2,802
2888,294	-1,5	-2,931
2890,466	-1,5	-3,019
2892,632	-1,5	-3,11
2894,797	-1,5	-3,201
2896,969	-2	-3,328
2899,141	-2,5	-3,369
2901,307	-3	-3,404
2903,479	-3	-3,426
2905,645	-3	-3,447
2907,811	-3	-3,461
2909,977	-3	-3,471
2912,148	-3	-3,482
2914,32	-3,5	-3,488
2916,486	-3,5	-3,492
2918,646	-3,5	-3,494
2920,818	-3,5	-3,496
2922,984	-3,5	-3,497
2925,144	-3,5	-3,498
2927,31	-3,5	-3,498
2929,481	-3,5	-3,499
2931,647	-3,5	-3,499
2933,819	-3,5	-3,499
2935,979	-3,5	-3,5
2938,157	-3	-3,344
2940,323	-3	-3,216
2942,495	-3	-3,109
2944,661	-3	-2,976
2946,839	-1	-2,788
2949,004	-0,5	-2,644
2951,164	-0,5	-2,608
2953,336	-0,5	-2,44
2955,502	0	-2,323
2957,668	0	-2,263
2959,828	0	-2,213
2961,994	0	-2,128
2964,159	0	-1,994
2966,319	0	-1,908
2968,485	0	-1,834
2970,663	0	-1,693
2972,829	0	-1,619
2974,995	0	-1,454
2977,161	0	-1,384
2979,333	0	-1,284
2981,498	0	-1,172
2983,67	0	-1,03
2985,836	0,5	-0,982
2988,002	0,5	-0,868
2990,18	0	-0,836
2992,346	0,5	-0,756
2994,518	0,5	-0,619
2996,684	0,5	-0,534
2998,855	0,5	-0,461
3001,021	1	-0,428
3003,187	0,5	-0,369
3005,365	1	-0,261
3007,537	1	-0,159
3009,703	1,5	-0,107
3011,875	1,5	-0,074
3014,047	1,5	-0,067
3016,212	1,5	-0,06
3018,378	1,5	-0,049
3020,544	2	-0,039
3022,71	2	-0,036
3024,87	2	-0,03
3027,036	2	-0,027
3029,202	2	-0,022
3031,374	2	-0,018
3033,539	2	-0,016
3035,705	2	-0,012
3037,871	2	-0,011
3040,043	2	-0,01
3042,209	2,5	-0,008
3044,369	2	-0,009
3046,541	2,5	-0,006
3048,713	2	-0,004
3050,884	2,5	-0,002
3053,05	2	-0,002
3055,216	2	-0,002
3057,388	2,5	-0,001
3059,554	2	-0,001
3061,72	2	-0,001
3063,892	2,5	-0,001
3066,058	2	0
3068,224	2	-0,012
3070,389	2	-0,002
3072,555	2	-0,1
3074,721	2	-0,179
3076,881	2	-0,258
3079,053	2	-0,295
3081,213	2	-0,269
3083,391	2	-0,4
3085,551	1,5	-0,424
3087,722	1,5	-0,53
3089,888	1	-0,577
3092,06	1	-0,608
3094,232	0	-0,756
3096,392	0	-0,816
3098,564	0	-0,894
3100,73	0	-0,953
3102,901	0	-1,079
3105,067	0	-1,138
3107,239	0	-1,254
3109,411	0	-1,369
3111,577	0	-1,46
3113,743	0	-1,525
3115,927	0	-1,646
3118,087	0	-1,664
3120,265	0	-1,81
3122,43	-0,5	-1,965
3124,596	-0,5	-2,034
3126,762	-0,5	-2,051
3128,928	-0,5	-2,083
3131,094	-0,5	-2,2
3133,26	-0,5	-2,27
3135,426	-0,5	-2,424
3137,592	-0,5	-2,51
3139,763	-0,5	-2,662
3141,929	-0,5	-2,72
3144,095	-1	-2,769
3146,267	-1	-2,886
3148,427	-1	-2,924
3150,599	-1	-3,02
3152,765	-1	-3,067
3154,937	-1	-3,141
3157,102	-1,5	-3,208
3159,268	-2	-3,29
3161,434	-2	-3,342
3163,6	-2,5	-3,382
3165,766	-2,5	-3,416
3167,932	-2,5	-3,432
3170,098	-2,5	-3,446
3172,276	-2,5	-3,444
3174,441	-2,5	-3,452
3176,607	-3	-3,46
3178,773	-2,5	-3,465
3180,939	-3	-3,47
3183,117	-3	-3,481
3185,283	-3	-3,483
3187,449	-3	-3,486
3189,633	-3	-3,494
3191,804	-3	-3,496
3193,97	-3	-3,496
3196,136	-3	-3,497
3198,308	-3	-3,498
3200,48	-3	-3,499
3202,646	-3	-3,499
3204,812	-3	-3,499
3206,978	-3	-3,499
3209,149	-3	-3,5
3211,321	-3	-3,452
3213,493	-3	-3,305
3215,665	-2,5	-3,153
3217,837	-2	-3,059
3220,009	-1	-2,9
3222,175	-0,5	-2,719
3224,347	-0,5	-2,684
3226,524	-0,5	-2,548
3228,69	-0,5	-2,414
3229,53	2	0