File: Cycling_tests/_30perc/_3gap/entrada/_2.txt
Time (s)	Load (N)	Displacement (mm)
46,294	-24	-3,499
47,068	0,5	-0,076
47,812	-9,5	-2,006
48,586	-21,5	-2,951
49,383	1,5	-0,006
50,253	-20	-3,372
51,045	-8,5	-1,444
51,849	-1	-0,717
52,604	-24	-3,494
53,331	-3,5	-0,732
54,19	-7	-1,652
54,951	-24	-3,399
55,732	1,5	-0,027
56,541	-14,5	-2,592
57,813	1	-0,044
58,653	-12	-2,387
59,36	-22,5	-2,926
60,159	1,5	-0,005
60,987	-18,5	-3,22
61,784	-10,5	-1,669
62,534	1,5	-0,226
63,346	-24	-3,488
64,142	-3,5	-0,585
64,977	-6	-1,671
65,768	-23,5	-3,394
66,47	0	-0,078
67,316	-12,5	-2,491
68,096	-17	-2,454
68,875	1,5	-0,001
69,584	-17	-3,058
70,405	-11,5	-1,66
71,21	1	-0,486
71,954	-23,5	-3,487
72,734	-3,5	-0,791
73,594	-6,5	-1,64
74,39	-23,5	-3,226
75,139	1,5	-0,023
75,866	-10,5	-2,267
76,653	-19	-2,663
77,366	1,5	-0,006
78,181	-17,5	-3,124
78,973	-10,5	-1,781
79,735	1,5	-0,27
80,551	-23,5	-3,49
81,283	-4,5	-0,901
82,036	-2,5	-1,026
82,813	-24	-3,498
83,587	0	-0,146
84,385	-8	-2,063
85,159	-22,5	-3,038
85,921	1,5	-0,011
86,695	-14,5	-2,757
87,487	-15	-2,114
88,747	-10	-2,246
89,623	-15	-2,286
90,373	1,5	-0,001
91,087	-18	-3,221
91,843	-12	-1,894
136,912	-13	-2,116
137,698	1,5	-0,027
138,472	-22	-3,463
139,174	-7,5	-1,471
139,978	-0,5	-0,727
140,776	-23	-3,497
141,544	-1	-0,344
142,36	-7,5	-1,904
143,14	-22,5	-3,094
143,854	1,5	-0,02
144,592	-10,5	-2,314
145,324	-20,5	-2,806
146,056	2	-0,011
146,794	-13	-2,633
147,622	-13,5	-2,124
148,36	2	-0,001
149,085	-18	-3,344
149,865	-9	-1,596
150,644	0,5	-0,499
151,426	-22,5	-3,493
152,187	-2	-0,555
153,459	-22	-3,461
154,233	-5	-1,128
154,995	-1,5	-0,877
155,769	-22,5	-3,497
156,477	-2	-0,578
157,209	-4	-1,23
157,941	-22,5	-3,498
158,739	0,5	-0,108
159,531	-9	-2,148
160,281	-21,5	-2,99
161,043	2	-0,006
161,793	-13	-2,687
162,585	-13	-2,214
163,34	2	-0,001
164,097	-19,5	-3,402
164,876	-7,5	-1,524
165,638	1	-0,449
166,418	-22,5	-3,492
167,114	-4,5	-1,069
167,864	-1	-0,813
168,602	-22,5	-3,495
169,334	-2	-0,675
170,096	-4	-1,308
170,816	-22	-3,498
171,584	0,5	-0,16
172,304	-5,5	-1,635
173,006	-22	-3,499
173,744	0,5	-0,139
174,464	-6	-1,701
175,172	-22,5	-3,499
175,874	0	-0,181
176,618	-6	-1,727
177,35	-22,5	-3,5
178,07	1	-0,096
178,76	-5,5	-1,698
179,55	-22	-3,182
180,253	1,5	-0,044
181,004	-9,5	-2,184
181,724	-22	-3,07
182,456	1,5	-0,018
183,235	-12	-2,572
184,009	-15	-2,332
184,724	2	-0,003
185,953	-22	-3,43
186,734	1,5	-0,026
187,441	-8,5	-2,162
188,155	-21,5	-3,07
188,887	2	-0,019
189,571	-9	-2,184
190,274	-22	-3,141
190,988	2	-0,031
191,683	-7,5	-2,025
192,391	-22	-3,24
193,13	1,5	-0,028
193,861	-10	-2,457
194,671	-15	-2,42
195,403	2	-0,002
196,171	-17,5	-3,353
196,897	-11,5	-2,014
197,605	2	-0,001
198,337	-18	-3,296
199,105	-8	-1,657
199,794	2	0
200,49	-19	-3,338
201,234	-9,5	-1,77
201,966	2	-0,047
202,716	-21	-3,461
203,448	-7	-1,524
204,223	1,5	-0,422
204,966	-22	-3,484
205,686	-4,5	-1,149
206,382	0,5	-0,473
207,084	-22	-3,474
207,828	-4,5	-1,168
208,536	0	-0,589
209,268	-22	-3,493
209,983	-3,5	-1,014
210,684	0	-0,727
211,416	-22	-3,49
212,112	-4,5	-1,141
212,832	0	-0,58
213,582	-22	-3,492
214,284	-3,5	-1,025
215,04	-1,5	-0,934
215,76	-22	-3,495
216,504	-0,5	-0,408
217,326	-6	-1,85
218,081	-22	-3,262
218,806	1,5	-0,048
219,527	-7,5	-2,007
220,823	-0,5	-0,384
221,574	-5	-1,545
222,287	-22	-3,499
223,055	1	-0,066
223,787	-7	-1,919
224,507	-22	-3,354
225,143	0	-0,112
225,888	-6	-1,706
226,655	-22	-3,265
227,417	2	-0,028
228,143	-8,5	-2,146
228,911	-19	-2,757
229,625	2	-0,01
230,387	-12	-2,721
231,155	-14,5	-2,387
231,887	2	-0,002
232,619	-15	-3,042
233,332	-13,5	-2,275
234,035	2,5	-0,002
234,797	-15,5	-3,214
235,51	-12,5	-2,177
236,284	2	-0,001
236,986	-18	-3,308
237,718	-10	-1,844
238,492	2	-0,236
239,182	-20,5	-3,422
239,908	-7,5	-1,611
240,682	1,5	-0,389
241,42	-21,5	-3,481
242,158	-4	-1,009
242,92	-1	-0,845
243,652	-22	-3,496
244,42	-0,5	-0,466
245,128	-3,5	-1,332
245,902	-22	-3,499
246,628	0,5	-0,148
247,33	-5	-1,598
248,008	-22	-3,499
248,728	-0,5	-0,346
249,43	-4	-1,31
250,197	-22	-3,499
250,96	1	-0,076
251,668	-6	-1,719
252,369	-22	-3,499
253,095	1	-0,1
253,833	-6	-1,863
254,535	-22	-3,449
255,219	1	-0,118
255,975	-6,5	-1,919
256,701	-21,5	-3,302
257,427	1,5	-0,034
258,141	-8	-2,031
258,867	-21,5	-3,25
259,557	1,5	-0,062
260,295	-7	-2,068
261,01	-21,5	-3,315
261,741	1,5	-0,039
262,425	-7	-1,914
263,139	-21,5	-3,386
263,823	1	-0,1
264,495	-4,5	-1,545
265,185	-22	-3,499
265,911	0	-0,264
266,649	-4,5	-1,512
267,347	-21,5	-3,499
268,035	-0,5	-0,39
268,718	-3,5	-1,23
269,421	-22	-3,497
270,147	-1	-0,335
270,915	-4,5	-1,508
271,598	-22	-3,498
272,348	0	-0,225
273,068	-5	-1,544
273,752	-21,5	-3,499
274,46	-0,5	-0,34
275,228	-5	-1,631
275,93	-21,5	-3,499
276,62	0	-0,29
277,311	-3,5	-1,281
277,988	-21,5	-3,497
278,726	-1,5	-0,546
279,446	-3,5	-1,185
280,118	-21,5	-3,495
280,838	-1,5	-0,725
281,553	-2,5	-1,083
282,284	-21,5	-3,497
283,022	-0,5	-0,454
283,754	-4	-1,362
284,462	-21,5	-3,498
285,192	0	-0,242
285,89	-4	-1,384
286,585	-21,5	-3,498
287,324	0	-0,322
288,049	-4,5	-1,455
288,745	-21,5	-3,498
289,477	0	-0,238
290,75	-21,5	-3,491
291,482	-2,5	-0,825
292,135	1	-0,566
292,867	-21	-3,491
293,599	-3	-0,974
294,295	0	-0,658
294,997	-21	-3,486
295,729	-3,5	-1,042
296,461	-1	-0,744
297,193	-21,5	-3,493
297,901	-3	-0,904
298,621	-1,5	-0,874
299,329	-21,5	-3,493
300,031	-3	-0,935
300,763	-1,5	-0,818
301,447	-21	-3,488
302,149	-3,5	-1,096
302,857	0	-0,634
303,553	-21	-3,483
304,302	-3	-0,996
305,016	-1	-0,747
305,731	-21	-3,491
306,479	-2	-0,82
307,14	0	-0,601
307,854	-21	-3,488
308,574	-4	-1,094
309,264	1	-0,487
309,96	-21	-3,472
310,656	-5,5	-1,449
311,376	2	-0,22
312,12	-21	-3,471
312,822	-5,5	-1,422
313,56	1,5	-0,414
314,268	-21	-3,472
314,958	-6	-1,406
315,726	0	-0,586
316,416	-21	-3,478
317,118	-5	-1,287
317,838	1,5	-0,421
318,576	-21	-3,483
319,26	-5,5	-1,333
319,932	2	-0,31
320,67	-20,5	-3,46
321,426	-4,5	-1,274
322,128	2	-0,446
322,835	-21	-3,467
323,525	-6	-1,381
324,233	2	-0,244
324,983	-21	-3,467
326,22	2	-0,002
326,939	-14,5	-2,991
327,642	-13,5	-2,391
328,373	2	-0,002
329,057	-13,5	-2,868
329,796	-13	-2,329
330,455	2	-0,006
331,157	-11,5	-2,597
331,877	-17	-2,7
332,567	2	-0,012
333,257	-9,5	-2,358
333,959	-19,5	-3,003
334,661	2	-0,018
335,381	-9	-2,302
336,113	-19	-2,834
336,821	2	-0,013
337,505	-9	-2,337
338,219	-18,5	-2,942
338,903	2	-0,026
339,599	-8	-2,122
340,282	-21	-3,263
341,008	1,5	-0,038
341,764	-9	-2,302
342,454	-19,5	-3,086
343,174	2	-0,024
343,858	-7,5	-2,086
344,524	-21,5	-3,425
345,245	1,5	-0,063
345,923	-5,5	-1,726
346,588	-21	-3,499
347,296	0	-0,291
348,004	-4	-1,412
348,682	-21	-3,498
349,378	-1	-0,428
350,086	-3	-1,13
350,806	-21	-3,497
351,508	-1,5	-0,624
352,18	-1,5	-0,889
352,888	-21,5	-3,494
353,572	-3,5	-1,001
354,238	0,5	-0,523
354,897	-20,5	-3,456
355,624	-5,5	-1,427
356,331	2	-0,289
357,094	-21	-3,482
357,76	-6	-1,48
358,449	2	-0,12
359,133	-19,5	-3,4
359,847	-7,5	-1,695
360,573	2	-0,175
361,299	-20	-3,441
361,971	-8,5	-1,783
362,685	2,5	0
363,315	-15	-3,047
364,041	-12	-2,177
364,761	2,5	-0,001
365,409	-12	-2,772
366,111	-14,5	-2,55
366,843	2,5	-0,003
367,557	-13,5	-2,852
368,259	-14	-2,501
368,949	2	-0,004
369,663	-11,5	-2,692
370,395	-13,5	-2,465
371,073	2	-0,005
371,793	-12	-2,656
372,488	-16	-2,703
373,184	2,5	-0,011
373,887	-9	-2,392
374,588	-18,5	-2,906
375,272	2	-0,024
375,956	-7	-2,023
376,665	-21	-3,258
377,336	1,5	-0,084
378,038	-4,5	-1,599
378,765	-21	-3,499
379,478	0,5	-0,151
380,168	-4	-1,478
380,846	-21	-3,498
381,584	0	-0,334
382,298	-4	-1,356
383	-21	-3,498
383,672	-1	-0,644
384,38	-2,5	-1,027
385,076	-21	-3,495
385,772	-2	-0,761
386,468	-0,5	-0,781
387,158	-21	-3,488
387,848	-4,5	-1,195
388,556	0,5	-0,497
389,26	-20,5	-3,476
389,954	-5	-1,425
390,661	2	-0,221
391,345	-19,5	-3,426
392,071	-6	-1,59
392,726	2,5	0
393,409	-16,5	-3,299
394,129	-9	-1,901
394,843	2,5	-0,001
395,509	-15	-3,151
396,248	-10	-1,986
396,895	2,5	-0,002
397,567	-12	-2,792
398,263	-15,5	-2,561
398,971	2,5	-0,006
399,637	-10	-2,472
400,339	-17,5	-2,872
401,039	2	-0,015
401,725	-8	-2,236
402,415	-20,5	-3,186
403,129	2	-0,035
403,771	-5,5	-1,776
404,497	-20,5	-3,37
405,184	1,5	-0,098
405,823	-4	-1,457
406,513	-21	-3,498
407,245	-0,5	-0,394
407,983	-4,5	-1,442
408,672	-21	-3,498
409,351	-1	-0,594
410,022	-2	-0,982
410,724	-21	-3,495
411,418	-2,5	-0,923
412,098	0	-0,692
412,788	-21	-3,484
413,473	-4	-1,26
414,186	1,5	-0,44
414,87	-20	-3,462
415,561	-6	-1,544
416,232	2,5	0
416,922	-17	-3,339
417,606	-10	-2,037
418,284	2,5	-0,002
418,974	-13,5	-2,924
419,64	-14,5	-2,479
420,34	2,5	-0,006
421,02	-10	-2,478
421,716	-17,5	-2,87
422,394	2	-0,023
423,048	-6	-2,088
423,768	-20,5	-3,273
424,44	1,5	-0,089
425,159	-5,5	-1,822
425,891	-20,5	-3,388
426,575	1	-0,102
427,265	-5	-1,64
427,961	-20,5	-3,499
428,628	0	-0,415
429,27	-2	-0,92
429,953	-21	-3,492
430,625	-4	-1,138
431,351	0	-0,601
432,005	-20	-3,477
432,738	-4,5	-1,349
433,427	2	-0,212
434,111	-19,5	-3,424
434,795	-7,5	-1,756
435,479	2	-0,001
436,187	-15	-3,32
436,853	-10,5	-2,189
437,51	2	-0,004
438,185	-10,5	-2,607
438,857	-19	-2,919
440,051	-3	-1,266
440,765	-21	-3,497
441,467	-1,5	-0,661
442,169	-2,5	-0,98
442,859	-21	-3,494
443,512	-4	-1,192
444,184	1,5	-0,367
444,887	-18,5	-3,464
445,546	-7	-1,561
446,218	2	-0,001
446,914	-16,5	-3,338
447,586	-10,5	-2,21
448,282	2,5	-0,002
448,942	-11,5	-2,744
449,602	-17,5	-2,876
450,298	2,5	-0,018
451	-8	-2,257
451,678	-20,5	-3,243
452,338	1	-0,097
453,034	-5	-1,698
453,712	-20,5	-3,499
454,438	0	-0,23
455,104	-3	-1,242
455,788	-21	-3,496
456,46	-2,5	-0,956
457,162	0	-0,716
457,87	-19,5	-3,489
458,536	-4,5	-1,363
459,22	2,5	-0,248
459,898	-19	-3,424
460,581	-7,5	-1,803
461,278	2,5	-0,001
461,967	-14,5	-3,254
462,718	-8,5	-1,911
463,371	2,5	-0,002
464,092	-15	-3,112
464,769	-12	-2,354
465,453	2,5	-0,004
466,143	-11,5	-2,727
466,821	-15,5	-2,721
467,542	2,5	-0,005
468,261	-10,5	-2,611
468,934	-17,5	-2,948
469,617	2	-0,027
470,295	-6,5	-1,99
470,991	-20,5	-3,284
471,663	1	-0,121
472,317	-3,5	-1,417
472,989	-20,5	-3,498
473,661	-1,5	-0,711
474,369	-2	-0,911
475,035	-20,5	-3,488
475,737	-3	-1,049
476,445	0	-0,637
477,117	-20	-3,475
477,818	-4,5	-1,374
478,491	2,5	-0,118
479,151	-16,5	-3,354
479,84	-9	-1,966
480,536	2,5	-0,001
481,221	-14,5	-3,274
481,917	-11,5	-2,282
482,636	2,5	-0,002
483,272	-10,5	-2,602
483,987	-14,5	-2,656
484,658	2,5	-0,014
485,324	-7,5	-2,288
486,008	-19,5	-3,125
486,692	2	-0,059
487,4	-5,5	-1,891
488,078	-20,5	-3,5
488,768	1	-0,148
489,452	-4,5	-1,508
490,161	-20,5	-3,499
490,844	0	-0,324
491,534	-3,5	-1,328
492,194	-20,5	-3,496
492,92	-1	-0,63
493,628	-3	-1,084
494,318	-20,5	-3,495
494,99	-3	-1,013
495,692	0	-0,66
496,376	-19,5	-3,482
497,024	-6	-1,53
497,713	2,5	-0,047
498,433	-19,5	-3,43
499,123	-6,5	-1,768
499,807	2,5	-0,001
500,486	-15,5	-3,224
501,121	-13,5	-2,438
501,817	2,5	-0,004
502,483	-10,5	-2,52
503,155	-19,5	-2,97
503,839	2	-0,022
504,529	-7,5	-2,095
505,207	-20,5	-3,394
505,876	1	-0,135
506,545	-4,5	-1,494
507,223	-20,5	-3,499
507,895	-1	-0,61
547,883	-20	-3,49
548,567	-3	-1,105
549,239	1,5	-0,416
549,916	-19	-3,454
550,636	-5,5	-1,479
551,32	2,5	-0,132
552,028	-17,5	-3,433
552,706	-8	-1,84
553,38	3	-0,001
554,062	-13,5	-3,032
554,764	-12	-2,322
555,436	2,5	-0,004
556,12	-10	-2,589
556,828	-15	-2,71
557,512	3	-0,01
558,172	-7	-2,237
558,844	-19,5	-3,294
559,522	1,5	-0,085
560,194	-4	-1,592
560,896	-20	-3,499
561,556	-0,5	-0,494
562,294	-3	-1,416
562,978	-19,5	-3,498
563,638	-1,5	-0,722
564,31	-0,5	-0,847
564,999	-20	-3,49
566,199	2,5	-0,001
566,883	-13,5	-3,058
567,543	-13	-2,33
568,246	3	-0,004
568,935	-10	-2,642
569,571	-18,5	-3,001
570,279	2,5	-0,022
570,939	-6	-1,977
571,623	-19,5	-3,457
572,301	1	-0,133
572,999	-4	-1,612
573,657	-20	-3,498
574,329	-1	-0,582
575,007	-2	-0,982
575,661	-19,5	-3,491
576,333	-4,5	-1,285
577,023	2,5	-0,315
577,707	-18	-3,458
578,409	-6	-1,59
579,075	2,5	0
579,711	-13,5	-3,066
580,353	-14	-2,525
581,013	2,5	-0,011
581,727	-9,5	-2,561
582,393	-18	-2,846
583,046	2	-0,04
583,736	-5,5	-1,972
584,408	-20	-3,47
585,086	1	-0,14
585,764	-4	-1,596
586,418	-20	-3,498
587,108	-1	-0,65
587,84	-2,5	-1,174
588,501	-20	-3,495
589,202	-2	-0,881
589,844	1,5	-0,496
590,582	-19,5	-3,486
591,272	-4	-1,265
591,926	2,5	-0,162
592,592	-16,5	-3,382
593,246	-10	-2,102
593,925	2,5	-0,002
594,578	-10,5	-2,7
595,25	-16	-2,811
595,922	2,5	-0,021
596,618	-7,5	-2,25
597,29	-20	-3,286
597,986	1,5	-0,063
598,67	-5	-1,819
599,336	-19,5	-3,499
599,984	-0,5	-0,53
600,656	-1	-0,936
601,328	-19,5	-3,49
601,981	-4	-1,326
602,66	2,5	-0,272
603,331	-17,5	-3,423
603,991	-8,5	-1,931
604,675	2,5	-0,001
605,366	-13,5	-3,114
606,073	-10,5	-2,209
606,746	2,5	-0,003
607,429	-10	-2,651
608,113	-16	-2,778
608,756	2,5	-0,023
609,463	-6,5	-2,152
610,135	-19,5	-3,376
610,825	1	-0,119
612,025	-19,5	-3,484
612,734	-3,5	-1,204
613,387	2,5	-0,22
614,047	-17	-3,391
614,755	-7,5	-1,811
615,397	2,5	-0,002
616,069	-12	-2,948
616,741	-13,5	-2,541
617,413	3	-0,009
618,102	-8,5	-2,432
618,793	-18	-2,978
619,434	1,5	-0,044
620,142	-5	-1,909
620,82	-19,5	-3,499
621,516	0,5	-0,181
622,17	-2,5	-1,261
622,854	-19,5	-3,497
623,496	-1,5	-0,914
624,174	1	-0,61
624,864	-19,5	-3,479
625,542	-4,5	-1,419
626,196	2,5	0
626,898	-17	-3,371
627,523	-11,5	-2,249
628,231	3	-0,002
628,902	-10,5	-2,693
629,586	-15,5	-2,79
630,252	2,5	-0,022
630,96	-6,5	-2,271
631,644	-19,5	-3,177
632,334	2	-0,05
633,018	-5	-1,885
633,708	-19,5	-3,5
634,38	0,5	-0,202
635,064	-3,5	-1,386
635,778	-19,5	-3,498
636,45	-1	-0,581
637,11	-1	-0,882
637,775	-19,5	-3,487
638,441	-3,5	-1,275
639,131	2,5	-0,426
639,839	-19	-3,463
640,511	-6	-1,649
641,195	2,5	0
641,879	-15	-3,297
642,545	-10,5	-2,186
643,218	2,5	-0,003
643,902	-10,5	-2,73
644,579	-14,5	-2,68
645,233	2,5	-0,019
645,887	-5,5	-2,001
646,559	-19,5	-3,471
647,231	0,5	-0,152
647,903	-3	-1,411
648,599	-19,5	-3,498
649,283	-0,5	-0,533
649,907	0	-0,782
650,591	-19,5	-3,487
651,275	-3	-1,237
651,947	3	-0,304
652,631	-18	-3,443
653,291	-7	-1,785
653,939	2,5	-0,001
654,592	-11	-2,888
655,247	-15	-2,718
655,93	3	-0,013
656,608	-6,5	-2,217
657,28	-19,5	-3,27
657,97	1,5	-0,066
658,66	-4,5	-1,802
659,339	-19,5	-3,499
660,004	0	-0,294
661,198	-19	-3,462
661,876	-5,5	-1,647
662,524	2,5	-0,001
663,208	-14	-3,217
663,862	-12	-2,415
664,546	2,5	-0,005
665,23	-9	-2,594
665,908	-17,5	-2,885
666,574	2	-0,036
667,21	-4,5	-1,734
667,876	-19,5	-3,499
668,518	-0,5	-0,566
669,208	-1,5	-1,006
669,88	-19,5	-3,492
670,545	-3,5	-1,228
671,248	2	-0,391
671,938	-18,5	-3,46
672,609	-6	-1,668
673,233	2,5	-0,001
673,887	-12	-2,937
674,577	-13	-2,541
675,249	2,5	-0,009
675,927	-6,5	-2,314
676,57	-19,5	-3,45
677,235	1	-0,158
677,913	-3,5	-1,445
678,603	-19,5	-3,498
679,281	-0,5	-0,585
679,965	-1,5	-1,046
680,619	-19,5	-3,491
681,293	-3	-1,125
681,951	2,5	-0,31
682,587	-16,5	-3,38
683,241	-9	-2,019
683,943	2,5	-0,002
684,615	-12	-2,972
685,299	-12,5	-2,499
686,001	2,5	-0,004
686,649	-7,5	-2,418
687,315	-19	-3,161
687,957	1,5	-0,1
688,652	-4,5	-1,689
689,324	-19,5	-3,499
689,996	0	-0,462
690,692	-2,5	-1,197
691,394	-19,5	-3,497
692,084	-1,5	-0,718
692,738	0	-0,65
693,386	-19	-3,465
694,058	-5,5	-1,625
694,754	2,5	-0,001
695,444	-16	-3,397
696,116	-9	-2,069
696,758	2,5	-0,003
697,43	-9,5	-2,681
698,084	-16,5	-2,916
698,756	2,5	-0,024
699,404	-5	-1,927
700,1	-19,5	-3,5
700,802	1	-0,134
701,444	-3	-1,453
702,116	-19,5	-3,498
702,752	-2	-0,958
703,424	1,5	-0,517
704,078	-18,5	-3,452
704,744	-6,5	-1,748
705,397	2,5	-0,001
706,058	-12	-2,937
706,729	-13,5	-2,545
707,401	2,5	-0,009
708,097	-8	-2,378
708,751	-19	-3,204
709,459	2	-0,041
710,083	-4	-1,712
710,731	-19,5	-3,498
711,403	-0,5	-0,59
712,081	-1,5	-1
713,311	-6	-1,774
714,001	2,5	-0,001
714,667	-13,5	-3,158
715,345	-11,5	-2,339
715,987	2,5	-0,008
716,659	-7,5	-2,357
717,319	-19,5	-3,177
717,979	1,5	-0,08
718,651	-4	-1,599
719,311	-19,5	-3,499
719,971	-1	-0,675
720,625	0	-0,773
721,303	-19,5	-3,485
721,975	-3,5	-1,316
722,628	2,5	-0,11
723,3	-16,5	-3,376
723,973	-8	-1,984
724,639	2,5	-0,002
725,304	-11	-2,838
725,958	-15,5	-2,816
726,624	2,5	-0,024
727,284	-5	-2,152
727,974	-19,5	-3,341
728,652	1	-0,136
729,318	-3	-1,387
729,996	-19,5	-3,498
730,668	-1	-0,68
731,364	-1	-0,879
732,072	-19,5	-3,493
732,738	-3	-1,176
733,374	2,5	-0,046
734,04	-15,5	-3,341
734,724	-9	-2,076
735,408	2,5	-0,002
736,05	-10	-2,648
736,74	-15	-2,73
737,412	2,5	-0,017
738,126	-7	-2,289
738,78	-19,5	-3,294
739,464	1,5	-0,078
740,147	-4,5	-1,674
740,784	-19,5	-3,498
741,449	-1	-0,742
742,122	-0,5	-0,844
742,806	-19,5	-3,489
743,459	-3,5	-1,176
744,131	2,5	-0,189
783,921	-18,5	-3,153
784,587	2	-0,068
785,259	-4,5	-1,748
785,937	-19,5	-3,499
786,597	0	-0,458
787,281	-2	-1,168
787,935	-19	-3,494
788,559	-4	-1,404
789,237	2,5	-0,124
789,897	-15,5	-3,356
790,575	-9	-2,131
791,211	2,5	-0,004
791,901	-10	-2,709
792,554	-16,5	-2,95
793,239	2,5	-0,027
793,898	-5	-2,008
794,571	-19,5	-3,5
795,242	0	-0,23
795,926	-3	-1,398
796,616	-19	-3,498
797,295	-1	-0,653
797,919	0	-0,687
798,626	-19	-3,488
799,298	-3,5	-1,288
799,982	2,5	-0,336
800,637	-17	-3,418
801,29	-8	-2,025
801,974	3	-0,001
802,646	-12	-2,982
803,324	-12	-2,509
804,008	3	-0,007
804,65	-7,5	-2,482
805,34	-18	-3,079
806,006	2,5	-0,053
806,696	-4,5	-1,85
807,374	-19	-3,499
808,046	0,5	-0,288
808,67	-1,5	-0,996
809,342	-19	-3,492
809,984	-3	-1,109
810,656	3	-0,279
811,303	-17	-3,391
811,993	-7	-1,904
812,677	3	-0,001
813,337	-11,5	-2,958
814,021	-12,5	-2,487
814,693	3	-0,008
815,366	-8	-2,412
816,031	-19	-3,194
816,703	2	-0,072
817,387	-4	-1,693
818,041	-19	-3,498
818,708	-0,5	-0,64
819,373	-0,5	-0,814
820,04	-19	-3,484
820,723	-3	-1,285
821,377	2,5	-0,138
822,578	-14,5	-2,765
823,249	3	-0,019
823,915	-6	-2,168
824,551	-19	-3,5
825,247	1,5	-0,138
825,913	-3	-1,424
826,585	-19	-3,498
827,287	-0,5	-0,571
827,964	-1,5	-0,94
828,655	-19	-3,493
829,302	-2,5	-1,15
829,98	3	-0,321
830,652	-17,5	-3,434
831,342	-6	-1,807
831,996	2,5	-0,001
832,704	-14	-3,198
833,346	-12	-2,511
834,018	3	-0,008
834,696	-7,5	-2,408
835,374	-18	-3,083
836,082	2,5	-0,028
836,736	-5	-1,932
837,402	-19	-3,5
838,056	0	-0,326
838,758	-2,5	-1,335
839,418	-19	-3,497
840,102	-1	-0,852
840,786	-0,5	-0,762
841,446	-19	-3,479
842,124	-4	-1,434
842,796	2,5	-0,168
843,462	-16,5	-3,385
844,146	-7,5	-1,988
844,806	3	-0,002
845,478	-11	-2,882
846,149	-13,5	-2,654
846,81	3	-0,016
847,445	-5,5	-1,956
848,112	-19	-3,499
848,819	1	-0,158
849,491	-3	-1,452
850,169	-19	-3,498
850,841	0	-0,641
851,507	-1	-0,869
852,179	-19	-3,488
852,857	-3,5	-1,264
853,547	1,5	-0,391
854,171	-16,5	-3,387
854,867	-7	-1,91
855,539	2,5	-0,001
856,193	-11	-2,906
856,841	-13,5	-2,72
857,495	2,5	-0,013
858,179	-6	-2,127
858,869	-19	-3,26
859,523	1,5	-0,112
860,183	-3,5	-1,494
860,861	-19	-3,498
900,044	-2,5	-1,224
900,717	3	-0,22
901,358	-16	-3,381
902,018	-8,5	-2,19
902,696	3	-0,002
903,344	-9	-2,602
904,028	-15	-2,869
904,688	2,5	-0,031
905,348	-4,5	-1,83
905,972	-19	-3,499
906,65	0	-0,44
907,322	-1,5	-0,96
907,988	-19	-3,49
908,63	-3,5	-1,406
909,29	3	-0,143
909,962	-15,5	-3,351
910,634	-9	-2,114
911,276	3	-0,004
911,912	-7,5	-2,536
912,596	-18	-3,093
913,298	2,5	-0,025
913,946	-4	-1,762
914,6	-19	-3,499
915,253	-0,5	-0,653
915,925	-1	-0,832
916,604	-18,5	-3,488
917,281	-3	-1,3
917,911	3	-0,003
918,578	-15	-3,312
919,231	-10	-2,305
919,867	3	-0,008
920,569	-8	-2,478
921,223	-18	-3,14
921,859	1,5	-0,087
922,519	-3,5	-1,506
923,185	-19	-3,498
923,827	-1	-0,856
924,499	0	-0,654
925,164	-18	-3,474
925,837	-4	-1,531
926,491	3	0
927,163	-14,5	-3,263
927,805	-10,5	-2,413
928,465	3	-0,007
929,119	-7	-2,293
929,743	-19	-3,444
930,427	1,5	-0,147
931,063	-2,5	-1,236
931,747	-19	-3,496
932,431	-1	-0,804
933,072	1	-0,553
933,757	-17,5	-3,473
934,44	-4	-1,514
935,106	3	0
935,748	-12,5	-3,102
936,42	-11	-2,482
937,08	3	-0,01
937,758	-7,5	-2,312
1015,292	-18	-3,473
1015,934	-5	-1,691
1016,588	3	-0,001
1017,266	-13	-3,163
1017,908	-12	-2,55
1018,592	2,5	-0,008
1019,264	-7,5	-2,398
1019,96	-18	-2,987
1020,583	2	-0,077
1021,249	-3	-1,658
1021,903	-18,5	-3,498
1022,545	-0,5	-0,716
1023,241	-1,5	-0,926
1023,889	-18,5	-3,485
1024,537	-4	-1,512
1025,173	3	0
1025,809	-12,5	-3,096
1026,463	-11,5	-2,498
1027,111	3	-0,012
1027,807	-7,5	-2,406
1028,432	-18,5	-3,292
1029,091	1,5	-0,112
1029,751	-3,5	-1,583
1030,447	-18,5	-3,499
1031,113	0	-0,578
1031,767	-1	-0,892
1032,463	-18,5	-3,492
1033,093	-3	-1,369
1033,765	2,5	-0,115
1034,401	-13,5	-3,286
1035,061	-10,5	-2,305
1035,715	3	-0,006
1036,387	-7,5	-2,503
1037,065	-17	-3,004
1037,718	2	-0,051
1038,384	-4	-1,812
1039,044	-19	-3,499
1039,668	-1	-0,643
1040,328	0	-0,852
1041	-18,5	-3,488
1041,636	-4	-1,426
1042,314	2,5	-0,158
1042,992	-16	-3,4
1043,676	-7	-1,939
1044,318	3	-0,002
1045,008	-10	-2,88
1045,68	-14	-2,69
1046,334	3	-0,019
1046,97	-4,5	-1,903
1047,63	-18,5	-3,499
1048,326	0,5	-0,19
1048,968	-2,5	-1,301
1049,646	-18,5	-3,496
1050,318	-2	-0,961
1050,96	2	-0,458
1051,62	-17,5	-3,448
1052,262	-7,5	-1,939
1052,928	3	-0,002
1092,328	-16,5	-3,436
1093,023	-6	-1,775
1093,647	2,5	-0,002
1094,319	-10	-2,878
1094,961	-14,5	-2,782
1095,621	2,5	-0,023
1096,275	-4,5	-1,913
1096,959	-18,5	-3,5
1097,601	0	-0,326
1098,297	-2,5	-1,342
1098,981	-18,5	-3,498
1099,629	-1,5	-0,863
1100,289	0,5	-0,606
1100,973	-18	-3,477
1101,627	-4,5	-1,606
1102,311	3	0
1103,007	-15,5	-3,373
1103,631	-9,5	-2,304
1104,339	3	-0,002
1105,017	-10,5	-2,873
1105,671	-13,5	-2,715
1106,325	2,5	-0,02
1106,979	-4,5	-1,945
1107,657	-18,5	-3,5
1108,317	0,5	-0,236
1108,97	-2	-1,186
1109,618	-18,5	-3,493
1110,267	-3	-1,18
1110,938	2,5	-0,308
1111,604	-17	-3,426
1112,228	-8,5	-2,134
1112,894	2,5	-0,003
1113,566	-10	-2,767
1114,202	-16,5	-2,94
1114,88	2,5	-0,029
1115,546	-4,5	-1,929
1116,218	-18	-3,499
1116,842	0	-0,473
1117,514	-1,5	-1,008
1118,168	-18,5	-3,49
1118,816	-3	-1,314
1119,47	2,5	-0,13
1120,112	-14,5	-3,313
1120,796	-8,5	-2,095
1121,456	3	-0,002
1122,117	-9,5	-2,793
1122,842	-12,5	-2,546
1123,478	2,5	-0,016
1124,162	-5,5	-2,21
1124,822	-18	-3,296
1125,445	0,5	-0,199
1126,1	-2	-1,21
1126,753	-18,5	-3,494
1127,413	-2	-1,095
1128,091	2	-0,472
1128,758	-17,5	-3,454
1129,393	-7	-1,909
1168,547	2,5	-0,017
1169,195	-5	-2,047
1169,873	-18,5	-3,444
1170,539	0,5	-0,156
1171,211	-3	-1,452
1171,865	-18,5	-3,497
1172,549	-1	-0,729
1173,197	0,5	-0,654
1173,851	-17,5	-3,469
1174,541	-4	-1,405
1175,225	2,5	-0,113
1175,867	-14	-3,303
1176,545	-8,5	-2,189
1177,217	3	-0,003
1177,882	-9	-2,647
1178,524	-16,5	-3,019
1179,178	2	-0,053
1179,803	-3	-1,481
1180,45	-18,5	-3,497
1181,098	-1,5	-0,795
1181,746	1,5	-0,467
1182,394	-16,5	-3,438
1183,049	-6,5	-1,748
1183,72	3	-0,001
1184,368	-10	-2,832
1185,022	-13,5	-2,64
1185,677	2,5	-0,022
1186,3	-4,5	-1,936
1186,985	-18	-3,499
1187,656	0	-0,304
1188,28	-1,5	-1,096
1188,928	-18	-3,49
1189,612	-3	-1,189
1190,284	2	-0,38
1190,944	-17	-3,433
1191,598	-7	-1,94
1192,276	3	-0,001
1192,954	-11	-2,981
1193,608	-13	-2,65
1194,28	2,5	-0,013
1194,945	-6	-2,197
1195,588	-18	-3,425
1196,247	1	-0,159
1196,89	-2,5	-1,306
1197,561	-18,5	-3,496
1198,215	-1,5	-0,95
1198,882	0,5	-0,552
1199,505	-16,5	-3,43
1200,147	-7,5	-2,013
1200,813	3	-0,002
1201,449	-8	-2,595
1202,109	-16	-2,97
1202,775	2,5	-0,039
1203,465	-5	-1,952
1204,137	-18	-3,5
1204,773	0	-0,4
1205,421	-1,5	-0,966
1206,063	-18	-3,486
1396,84	-6	-1,89
1397,524	3	-0,001
1398,178	-11,5	-3,027
1398,802	-13	-2,696
1399,492	3	-0,012
1400,146	-5,5	-2,218
1400,77	-18	-3,5
1401,436	0,5	-0,224
1402,078	-2	-1,133
1402,756	-18	-3,495
1403,38	-2,5	-1,215
1404,058	2,5	-0,34
1404,73	-15	-3,443
1405,372	-6	-1,926
1406,013	3	-0,002
1406,637	-8	-2,572
1407,303	-15,5	-2,968
1407,975	2,5	-0,035
1408,641	-4,5	-1,932
1409,283	-18	-3,499
1409,949	0	-0,397
1410,597	-1,5	-1,066
1411,257	-17,5	-3,492
1411,935	-2	-1,117
1412,577	2,5	-0,232
1413,261	-14,5	-3,428
1413,885	-7	-2,104
1414,575	2,5	-0,002
1415,241	-10	-2,837
1415,907	-12	-2,632
1416,555	2,5	-0,022
1417,227	-5,5	-2,124
1417,905	-18	-3,388
1418,577	1	-0,122
1419,231	-2,5	-1,41
1419,855	-18	-3,495
1420,539	-1	-0,868
1421,199	1	-0,547
1421,841	-16	-3,448
1422,483	-6	-1,892
1423,148	3	-0,001
1423,803	-10	-2,881
1424,456	-12,5	-2,704
1425,116	2,5	-0,018
1425,758	-4,5	-1,954
1426,424	-18	-3,5
1427,072	0	-0,362
1427,726	-2	-1,113
1428,416	-18	-3,496
1429,04	-2,5	-1,176
1429,73	1	-0,468
1430,354	-14,5	-3,411
1431,014	-6	-1,95
1431,68	2,5	-0,002
1432,34	-10	-2,837
1432,976	-14	-2,82
1433,618	2,5	-0,035
1434,308	-5	-2,002
1510,756	3	-0,002
1511,398	-8	-2,646
1512,051	-15	-2,955
1512,723	2,5	-0,033
1513,377	-4	-1,801
1514,013	-17,5	-3,498
1514,673	0	-0,368
1515,363	-1,5	-1,066
1515,999	-17,5	-3,489
1516,665	-2,5	-1,235
1517,289	3	-0,009
1517,955	-14	-3,317
1518,609	-8	-2,211
1519,263	2,5	-0,004
1519,917	-7	-2,507
1520,583	-16	-3,034
1521,237	1,5	-0,056
1521,897	-3,5	-1,737
1522,563	-17,5	-3,499
1523,199	-0,5	-0,586
1523,877	-1	-0,945
1524,501	-17	-3,48
1525,185	-3	-1,268
1525,809	2,5	-0,084
1526,475	-13,5	-3,325
1527,111	-9,5	-2,208
1527,77	3	-0,005
1528,431	-7	-2,497
1529,073	-17	-3,126
1529,708	1,5	-0,099
1530,38	-3	-1,566
1531,022	-17,5	-3,498
1531,688	-1	-0,77
1532,33	0,5	-0,766
1533,014	-17	-3,48
1533,668	-4	-1,502
1534,292	2,5	-0,001
1534,958	-12	-3,136
1535,612	-10,5	-2,345
1536,254	3	-0,011
1536,908	-5,5	-2,224
1537,553	-17,5	-3,42
1538,21	0,5	-0,162
1538,87	-2,5	-1,396
1539,548	-17,5	-3,498
1540,172	-1,5	-0,82
1540,826	2	-0,51
1541,48	-16,5	-3,451
1542,14	-5	-1,716
1542,794	3	-0,001
1543,436	-9	-2,868
1544,09	-13,5	-2,71
1544,714	2,5	-0,033
1545,367	-4	-1,821
1545,991	-18	-3,498
1546,645	-0,5	-0,627
1547,311	-0,5	-0,86
1660,549	-2,5	-1,451
1661,227	-17,5	-3,498
1661,869	-1	-0,813
1662,529	1	-0,617
1663,171	-16,5	-3,465
1663,825	-5	-1,756
1664,467	3	-0,001
1665,151	-11	-3,035
1665,823	-10	-2,399
1666,477	3	-0,008
1667,119	-5,5	-2,238
1667,827	-16	-3,05
1668,481	2	-0,06
1669,14	-3	-1,684
1669,783	-17,5	-3,499
1670,424	-1	-0,74
1671,078	0	-0,682
1671,72	-16,5	-3,465
1672,374	-4	-1,628
1672,998	3	-0,001
1673,676	-10,5	-3,012
1674,331	-11	-2,578
1674,972	3	-0,017
1675,644	-4,5	-2,135
1676,268	-17	-3,499
1676,94	0,5	-0,265
1677,6	-1,5	-1,217
1678,242	-17	-3,494
1678,89	-2	-1,198
1679,532	3	-0,121
1680,186	-13,5	-3,342
1680,81	-9	-2,374
1681,47	3	-0,006
1682,13	-6	-2,367
1682,784	-17	-3,248
1683,444	1,5	-0,098
1684,104	-2,5	-1,562
1684,758	-17	-3,498
1685,435	0	-0,643
1686,059	0,5	-0,666
1686,713	-16,5	-3,47
1687,338	-5	-1,77
1688,003	3	-0,001
1688,645	-9	-2,874
1689,293	-12,5	-2,762
1689,929	3	-0,032
1690,583	-3	-1,771
1691,237	-17	-3,499
1691,897	0	-0,545
1692,539	0	-0,79
1693,181	-16,5	-3,475
1693,853	-3,5	-1,52
1694,525	3	-0,006
1695,167	-12	-3,226
1695,833	-8,5	-2,274
1696,475	3	-0,006
1697,147	-6	-2,432
1697,801	-16,5	-3,148
1698,437	1,5	-0,105
1699,109	-3	-1,545
1699,775	-17	-3,498
1700,447	0	-0,625
1701,071	0	-0,653
1701,737	-16,5	-3,474
1702,397	-3,5	-1,566
1703,05	3	0
1703,674	-10,5	-2,992
1704,311	-12	-2,676
1704,952	3	-0,022
1705,624	-4,5	-2,026
1706,281	-17	-3,5
1706,902	0	-0,44
1707,568	-1,5	-1,08
1708,211	-17	-3,49
1708,846	-3	-1,404
1709,47	3	0
1710,118	-11,5	-3,132
1710,773	-10	-2,456
1711,438	3	-0,008
1712,08	-5	-2,22
1712,734	-17	-3,407
1713,376	0,5	-0,206
1714,054	-2,5	-1,366
1714,678	-17	-3,494
1715,356	-1,5	-0,956
1715,992	1,5	-0,395
1716,616	-14,5	-3,389
1717,276	-6,5	-2,032
1717,918	3	-0,003
1718,56	-7	-2,561
1719,214	-16	-3,055
1719,85	2	-0,079
1720,491	-2,5	-1,482
1721,145	-17,5	-3,498
1721,787	-1	-0,902
1722,447	0,5	-0,571
1723,071	-15,5	-3,435
1723,707	-6	-1,951
1724,361	3	-0,002
1725,027	-9	-2,758
1725,681	-13,5	-2,8
1726,323	2,5	-0,033
1726,983	-3,5	-1,846
1727,607	-17,5	-3,499
1728,297	0	-0,39
1728,921	-0,5	-0,83
1729,581	-17	-3,483
1730,205	-4	-1,6
1730,877	3	0
1731,513	-11	-3,071
1732,161	-10,5	-2,51
1732,821	3	-0,01
1733,445	-4,5	-2,046
1734,099	-17	-3,5
1734,765	1	-0,218
1735,425	-2	-1,222
3190,365	0	-1,491
3191,007	3	-0,001
3191,661	-4	-3,06
3192,315	-3	-2,547
3192,939	3	-0,02
3193,563	-1	-1,725
3194,217	-8	-3,499
3194,841	0,5	-0,755
3195,489	1,5	-0,525
3196,113	-6,5	-3,426
3196,761	-1,5	-1,995
3197,415	3	-0,002
3198,063	-2,5	-2,555
3198,687	-7,5	-3,213
3199,341	1,5	-0,097
3199,965	-0,5	-1,32
3200,631	-7,5	-3,496
3201,285	0	-0,998
3201,921	2	-0,414
3202,545	-6	-3,395
3203,199	-1,5	-2,065
3203,841	3	-0,003
3204,477	-2	-2,366
3205,113	-7,5	-3,322
3205,767	1,5	-0,135
3206,409	-0,5	-1,29
3207,051	-8	-3,494
3207,675	0	-1,255
3208,358	2,5	-0,278
3209,048	-6,5	-3,443
3209,672	-1	-2,019
3210,332	3	-0,002
3211,022	-3	-2,871
3211,646	-5,5	-2,911
3212,3	2,5	-0,038
3212,588	3	0