File: Cycling_tests/_30perc/_3gap/entrada/_3.txt
Time (s)	Load (N)	Displacement (mm)
0	-0,5	-0,051
2,229	-0,5	-0,406
4,389	0	-0,449
6,555	-1	-0,526
8,72	-1	-0,511
10,88	0	-0,369
13,046	0	-0,32
15,206	0	-0,275
17,372	0,5	-0,242
19,538	0,5	-0,145
21,698	0,5	0
23,87	1	-0,022
26,029	1	0
28,189	1	0
30,355	0,5	0
32,521	0,5	0
34,681	1	-0,001
36,853	1	-0,001
39,019	1	-0,001
41,185	0,5	-0,001
43,35	1	-0,001
45,522	1	-0,001
47,682	1	-0,001
49,842	1	-0,001
52,008	1	-0,001
54,174	1	-0,001
56,334	1	-0,001
58,5	1	-0,001
60,66	1	-0,001
62,825	1	-0,001
64,991	1	0
67,151	1	0
69,323	1	-0,004
71,489	1	-0,04
73,655	1,5	-0,058
75,815	1,5	-0,084
77,981	1	-0,084
80,141	1	-0,075
82,312	1,5	-0,189
84,472	1	-0,236
86,644	1	-0,352
88,816	0,5	-0,373
90,982	0,5	-0,416
93,154	0,5	-0,458
95,313	0,5	-0,512
97,473	0,5	-0,495
99,639	0	-0,548
101,805	0	-0,606
103,971	-0,5	-0,713
106,131	-1,5	-0,774
108,291	-1	-0,766
110,475	-3	-0,957
112,653	-3,5	-1,108
114,824	-4	-1,159
116,996	-4,5	-1,26
119,162	-5	-1,339
121,334	-5	-1,37
123,494	-5	-1,404
125,666	-5,5	-1,488
127,832	-5,5	-1,615
130,009	-6	-1,702
132,175	-7	-1,782
134,335	-7,5	-1,832
136,501	-7,5	-1,902
138,661	-8	-1,963
140,839	-9	-2,087
142,999	-8	-1,999
145,177	-8,5	-2,033
147,343	-8	-2,017
149,514	-8,5	-2,047
151,68	-8	-2,048
153,852	-9	-2,115
156,024	-9	-2,183
158,202	-11	-2,408
160,374	-12	-2,496
162,534	-11,5	-2,452
164,699	-11	-2,441
166,865	-11	-2,457
169,043	-12	-2,587
171,203	-12	-2,568
173,381	-12,5	-2,606
175,553	-13,5	-2,653
177,725	-12	-2,609
179,885	-12,5	-2,622
182,051	-13,5	-2,713
184,21	-13,5	-2,684
186,382	-13	-2,697
188,554	-13	-2,675
190,72	-13	-2,682
192,88	-12,5	-2,599
195,046	-12	-2,588
197,212	-12,5	-2,646
199,383	-13	-2,72
201,555	-13,5	-2,782
203,721	-14	-2,84
205,893	-14,5	-2,845
208,065	-14	-2,849
210,237	-15	-2,932
212,403	-14,5	-2,938
214,569	-15,5	-3,04
216,74	-15,5	-3,09
218,912	-16,5	-3,136
221,09	-17	-3,207
223,256	-16,5	-3,176
225,428	-17,5	-3,216
227,594	-17,5	-3,211
229,772	-18	-3,288
231,938	-18	-3,278
234,11	-18,5	-3,314
236,281	-18,5	-3,344
238,459	-18,5	-3,343
240,625	-19,5	-3,351
242,797	-19	-3,359
244,975	-19	-3,36
247,135	-18,5	-3,341
249,307	-19,5	-3,384
251,473	-19	-3,356
253,65	-19,5	-3,379
255,828	-20,5	-3,412
258	-20	-3,416
260,172	-20,5	-3,415
262,344	-20,5	-3,413
264,504	-19,5	-3,395
266,676	-20	-3,416
268,854	-20	-3,426
271,025	-20,5	-3,43
273,203	-21	-3,447
275,375	-21	-3,444
277,553	-21	-3,444
279,725	-21	-3,45
281,897	-21	-3,457
284,069	-21	-3,452
286,24	-21	-3,456
288,412	-21	-3,457
290,584	-21	-3,449
292,756	-21	-3,463
294,934	-21	-3,47
297,106	-21	-3,47
299,284	-21,5	-3,468
301,444	-21	-3,455
303,616	-20,5	-3,449
305,793	-21	-3,453
307,971	-20,5	-3,449
310,143	-20,5	-3,438
312,321	-21	-3,454
314,487	-21	-3,463
316,665	-21	-3,471
318,837	-21	-3,47
321,009	-21,5	-3,471
323,186	-21	-3,474
325,358	-21	-3,477
327,524	-21	-3,476
329,702	-21	-3,475
331,862	-21	-3,473
334,034	-21	-3,472
336,206	-21	-3,475
338,384	-21	-3,478
340,555	-21	-3,479
342,727	-21	-3,477
344,899	-21	-3,48
347,071	-21	-3,484
349,237	-21	-3,485
351,403	-21,5	-3,488
353,581	-21,5	-3,493
355,741	-21,5	-3,492
357,918	-21	-3,49
360,09	-21	-3,492
362,262	-21,5	-3,492
364,428	-21,5	-3,493
366,6	-21,5	-3,493
368,772	-21,5	-3,492
370,944	-21,5	-3,495
373,116	-21,5	-3,495
375,281	-21,5	-3,495
377,447	-21	-3,494
379,619	-21	-3,496
381,791	-21,5	-3,496
383,957	-21	-3,496
386,135	-21,5	-3,497
388,301	-21	-3,497
390,485	-21,5	-3,498
392,65	-21,5	-3,497
394,822	-21,5	-3,497
396,988	-21,5	-3,497
399,154	-21	-3,497
401,332	-21,5	-3,498
403,504	-21,5	-3,498
405,676	-21,5	-3,498
407,854	-21	-3,498
410,025	-21	-3,499
412,197	-21	-3,499
414,363	-21	-3,499
416,541	-21	-3,499
418,707	-21	-3,499
420,879	-21	-3,5
423,051	-21	-3,499
425,229	-21	-3,5
427,4	-21	-3,471
429,566	-21	-3,497
431,738	-21	-3,497
433,904	-21	-3,48
436,07	-21	-3,407
438,254	-21	-3,366
440,432	-21	-3,334
442,604	-20,5	-3,291
444,769	-21	-3,317
446,941	-21	-3,293
449,113	-21	-3,262
451,285	-20,5	-3,159
453,451	-20,5	-3,131
455,629	-19,5	-3,017
457,795	-19	-3,06
459,967	-19,5	-3,072
462,139	-19	-3,058
464,31	-19,5	-3,049
466,488	-20,5	-3,052
468,666	-19,5	-2,98
470,838	-18	-2,956
473,004	-18	-2,966
475,188	-17	-2,828
477,354	-18	-2,822
479,532	-15,5	-2,772
481,697	-18	-2,714
483,875	-18	-2,684
486,047	-15	-2,612
488,213	-14	-2,628
490,391	-13,5	-2,546
492,563	-14,5	-2,541
494,729	-14,5	-2,541
496,9	-13,5	-2,528
499,072	-13	-2,502
501,244	-13	-2,408
503,416	-11,5	-2,293
505,594	-10,5	-2,205
507,766	-10,5	-2,122
509,938	-10	-2,112
512,11	-9	-2,07
514,287	-9	-1,99
516,453	-8	-1,914
518,625	-7,5	-1,821
520,803	-6,5	-1,697
522,969	-6	-1,669
525,147	-6	-1,594
527,319	-5,5	-1,537
529,485	-5,5	-1,546
531,651	-4,5	-1,483
533,816	-4,5	-1,448
535,988	-4,5	-1,452
538,16	-4,5	-1,347
540,326	-3,5	-1,268
542,51	-3	-1,165
544,694	-2,5	-1,076
546,872	-2	-1
549,05	-2	-0,908
551,209	-2	-1,004
553,381	-2,5	-1,018
555,553	-2	-0,903
557,743	-1	-0,686
559,921	-1,5	-0,753
562,087	-1,5	-0,913
564,259	-1,5	-0,866
566,425	-1,5	-0,802
568,602	-1	-0,678
570,774	-0,5	-0,558
572,952	-0,5	-0,523
575,124	0	-0,408
577,29	-0,5	-0,414
579,468	-0,5	-0,364
581,64	0	-0,318
583,805	0	-0,258
585,977	0	-0,242
588,137	0	-0,275
590,303	0	-0,258
592,481	0	-0,22
594,647	0,5	-0,162
596,831	1	-0,104
599,009	1	-0,088
601,193	1,5	-0,053
603,358	1,5	-0,048
605,536	1,5	-0,045
607,708	2	-0,033
609,88	2	-0,03
612,046	2	-0,034
614,212	2	-0,024
616,39	2	-0,016
618,55	2	-0,014
620,727	2	-0,01
622,899	2,5	-0,006
625,066	2,5	-0,006
627,237	2,5	-0,005
629,409	2	-0,003
631,575	2,5	-0,003
633,741	2	-0,002
635,913	2	-0,002
638,078	2,5	-0,002
640,25	2	-0,001
642,428	2,5	-0,001
644,606	2	-0,001
646,772	2	-0,001
648,938	2	-0,001
651,104	2,5	-0,001
653,282	2	0
655,453	2	-0,001
657,631	2,5	-0,014
659,803	2,5	-0,108
661,975	2,5	-0,184
664,141	2,5	-0,2
666,307	2,5	-0,294
668,485	1	-0,442
670,657	1,5	-0,481
672,835	1	-0,553
675,012	0	-0,671
677,184	0	-0,67
679,356	0	-0,728
681,528	-0,5	-0,79
683,7	-1,5	-0,958
685,872	-1,5	-1,005
688,046	-2	-1,057
690,209	-2	-1,089
692,393	-2,5	-1,232
694,559	-2,5	-1,19
696,731	-2,5	-1,247
698,903	-3	-1,352
701,063	-3	-1,27
703,247	-3	-1,36
705,419	-3,5	-1,444
707,584	-3,5	-1,454
709,756	-4	-1,553
711,922	-3,5	-1,549
714,094	-3,5	-1,574
716,266	-4	-1,689
718,444	-5	-1,814
720,616	-5	-1,835
722,782	-5,5	-1,976
724,965	-5,5	-2,009
727,131	-5,5	-2,026
729,297	-5,5	-1,988
731,469	-6	-2,082
733,641	-6,5	-2,15
735,801	-6	-2,089
737,973	-6,5	-2,199
740,145	-6,5	-2,176
742,328	-7,5	-2,299
744,494	-8	-2,315
746,666	-7,5	-2,339
748,838	-8	-2,36
751,01	-7	-2,39
753,188	-8,5	-2,482
755,366	-9,5	-2,564
757,538	-10	-2,626
759,709	-9,5	-2,65
761,887	-10	-2,712
764,065	-10,5	-2,804
766,237	-12	-2,988
768,415	-13	-3,027
770,587	-12,5	-2,994
772,753	-12,5	-2,946
774,919	-12	-2,904
777,09	-12	-2,988
779,256	-12,5	-2,983
781,428	-13	-3,093
783,594	-14	-3,135
785,766	-13,5	-3,146
787,938	-13,5	-3,111
790,11	-13,5	-3,174
792,276	-14	-3,163
794,441	-12,5	-3,026
796,619	-13,5	-3,108
798,797	-13,5	-3,087
800,969	-13,5	-3,204
803,135	-14	-3,172
805,307	-14	-3,137
807,485	-13	-3,125
809,645	-12,5	-3,052
811,816	-13	-3,077
813,994	-13,5	-3,074
816,16	-12,5	-3,037
818,332	-13,5	-3,073
820,504	-14	-3,204
822,676	-14,5	-3,207
824,848	-13,5	-3,17
827,014	-14,5	-3,211
829,179	-14	-3,176
831,351	-15	-3,233
833,517	-14	-3,214
835,689	-15	-3,242
837,867	-14,5	-3,273
840,039	-14	-3,309
842,205	-15	-3,33
844,372	-15	-3,3
846,537	-15	-3,301
848,708	-16,5	-3,358
850,874	-16	-3,351
853,046	-15,5	-3,358
855,218	-15,5	-3,34
857,396	-16	-3,363
859,562	-15	-3,312
861,734	-15	-3,284
863,912	-15	-3,318
866,077	-15	-3,29
868,243	-13,5	-3,174
870,409	-13	-3,062
872,581	-12,5	-3,019
874,741	-12	-2,972
876,919	-12	-2,964
879,097	-13	-3,094
881,263	-13	-3,094
883,434	-14,5	-3,223
885,612	-14,5	-3,252
887,778	-15	-3,305
889,956	-15	-3,285
892,128	-15	-3,305
894,294	-14,5	-3,308
896,466	-15	-3,282
898,632	-15	-3,263
900,803	-16	-3,336
902,969	-15,5	-3,33
905,153	-16	-3,358
907,319	-16,5	-3,395
909,485	-17	-3,384
911,651	-16,5	-3,384
913,823	-17	-3,386
915,995	-17	-3,41
918,166	-18	-3,44
920,338	-18,5	-3,467
922,516	-18,5	-3,47
924,682	-19	-3,473
926,848	-19	-3,474
929,02	-19	-3,483
931,186	-19,5	-3,486
933,358	-19	-3,488
935,523	-19	-3,491
937,695	-19	-3,492
939,867	-19	-3,493
942,045	-19	-3,495
944,217	-19	-3,496
946,383	-19	-3,496
948,555	-19	-3,497
950,721	-19	-3,497
952,898	-19	-3,498
955,07	-19	-3,498
957,239	-19	-3,498
959,402	-19	-3,498
961,58	-19	-3,498
963,752	-19	-3,498
965,93	-19	-3,499
968,108	-19	-3,499
970,273	-19,5	-3,498
972,445	-19	-3,499
974,617	-19	-3,499
976,795	-19	-3,499
978,967	-19	-3,499
981,145	-19	-3,5
983,311	-19	-3,5
985,483	-19	-3,5
987,66	-19	-3,466
989,826	-19	-3,402
991,998	-19	-3,363
994,176	-19	-3,242
996,342	-19	-3,207
998,514	-16,5	-2,956
1000,68	-15,5	-2,973
1002,852	-17	-2,943
1005,023	-15	-2,864
1007,189	-15	-2,832
1009,361	-17,5	-2,817
1011,539	-14	-2,804
1013,705	-15	-2,851
1015,877	-14	-2,794
1018,055	-14,5	-2,729
1020,221	-13,5	-2,739
1022,386	-14	-2,739
1024,558	-14	-2,703
1026,724	-13,5	-2,671
1028,896	-12	-2,614
1031,068	-12	-2,52
1033,234	-12	-2,503
1035,4	-11	-2,471
1037,566	-11	-2,448
1039,732	-11	-2,39
1041,909	-9,5	-2,239
1044,075	-8,5	-2,175
1046,247	-7,5	-1,996
1048,419	-7,5	-2,029
1050,591	-7,5	-2,014
1052,775	-6,5	-1,938
1054,941	-7	-1,975
1057,112	-8	-2,022
1059,284	-7,5	-2,008
1061,456	-7	-2
1063,628	-9	-2,111
1065,794	-9	-2,175
1067,966	-9,5	-2,187
1070,138	-8,5	-2,12
1072,298	-9	-2,192
1074,469	-10	-2,235
1076,635	-10	-2,331
1078,807	-10,5	-2,333
1080,973	-10,5	-2,396
1083,133	-10,5	-2,383
1085,311	-10,5	-2,307
1087,477	-10	-2,28
1089,655	-9	-2,177
1091,826	-9	-2,126
1093,992	-9	-2,168
1096,164	-9	-2,126
1098,336	-8,5	-2,107
1100,508	-9	-2,114
1102,674	-9	-2,156
1104,84	-9	-2,176
1107,012	-9,5	-2,253
1109,189	-9	-2,123
1111,355	-9	-2,149
1113,527	-9	-2,14
1115,693	-9	-2,156
1117,865	-9	-2,153
1120,031	-9	-2,168
1122,209	-9	-2,14
1124,387	-8	-2,031
1126,546	-9	-2,124
1128,718	-9	-2,153
1130,884	-9,5	-2,194
1133,062	-9	-2,129
1135,228	-10	-2,192
1137,394	-9	-2,198
1139,572	-8,5	-2,11
1141,738	-8,5	-2,099
1143,903	-8	-2,039
1146,075	-7,5	-2,004
1148,241	-8	-2,037
1150,413	-8	-2,075
1152,579	-8	-2,059
1154,751	-7,5	-2,007
1156,917	-8,5	-2,081
1159,089	-8	-2,072
1161,261	-9	-2,127
1163,426	-9,5	-2,18
1165,598	-9	-2,186
1167,764	-9	-2,138
1169,942	-8	-2,035
1172,114	-7,5	-2,026
1174,286	-7,5	-1,948
1176,458	-7	-1,908
1178,624	-7,5	-1,938
1180,789	-6,5	-1,922
1182,955	-7	-1,928
1185,121	-8,5	-2,049
1187,287	-8,5	-2,054
1189,459	-7,5	-2,024
1191,625	-7,5	-2,092
1193,797	-8	-2,062
1195,969	-8	-2,111
1198,128	-9	-2,21
1200,3	-9,5	-2,196
1202,478	-9	-2,205
1204,644	-8,5	-2,193
1206,816	-9,5	-2,243
1208,988	-9,5	-2,26
1211,154	-10	-2,296
1213,32	-10	-2,301
1215,491	-9,5	-2,298
1217,663	-9	-2,268
1219,835	-9,5	-2,243
1222,007	-9,5	-2,26
1224,173	-10	-2,303
1226,339	-9,5	-2,228
1228,505	-9,5	-2,312
1230,677	-10	-2,292
1232,848	-9,5	-2,257
1235,02	-10	-2,264
1237,192	-9	-2,223
1239,364	-8,5	-2,186
1241,542	-8	-2,132
1243,708	-8,5	-2,158
1245,874	-9	-2,205
1248,04	-9,5	-2,232
1250,217	-9	-2,171
1252,383	-9	-2,24
1254,549	-9	-2,192
1256,721	-8,5	-2,193
1258,893	-9	-2,21
1261,065	-8	-2,106
1263,231	-7,5	-2,069
1265,409	-7	-1,96
1267,574	-7	-1,975
1269,746	-6,5	-1,971
1271,912	-7	-1,999
1274,084	-7	-1,969
1276,25	-7	-1,936
1278,434	-6	-1,823
1280,611	-5	-1,738
1282,778	-5,5	-1,726
1284,961	-4,5	-1,651
1287,127	-5	-1,688
1289,305	-4,5	-1,633
1291,471	-5	-1,68
1293,649	-4,5	-1,546
1295,815	-4,5	-1,565
1297,975	-4,5	-1,554
1300,141	-4	-1,575
1302,312	-4,5	-1,54
1304,478	-4	-1,508
1306,65	-4	-1,46
1308,81	-4	-1,454
1310,982	-3,5	-1,464
1313,16	-3,5	-1,442
1315,326	-4	-1,463
1317,504	-3,5	-1,44
1319,663	-4	-1,501
1321,841	-3,5	-1,462
1324,013	-4	-1,432
1326,185	-3,5	-1,417
1328,357	-3	-1,388
1330,523	-3	-1,35
1332,689	-3	-1,343
1334,867	-3	-1,294
1337,032	-3,5	-1,315
1339,198	-3	-1,358
1341,37	-3,5	-1,423
1343,536	-3,5	-1,496
1345,702	-4,5	-1,598
1347,874	-5	-1,662
1350,04	-5	-1,726
1352,206	-5	-1,678
1354,371	-5	-1,677
1356,543	-4,5	-1,668
1358,703	-5	-1,74
1360,881	-5	-1,728
1363,041	-5	-1,725
1365,225	-4,5	-1,635
1367,391	-5	-1,699
1369,557	-5	-1,725
1371,722	-4,5	-1,66
1373,9	-4,5	-1,638
1376,066	-5	-1,716
1378,244	-5	-1,752
1380,422	-5	-1,676
1382,588	-5	-1,707
1384,766	-5	-1,673
1386,932	-5	-1,668
1389,097	-4,5	-1,672
1391,263	-5	-1,73
1393,441	-4,5	-1,616
1395,613	-4	-1,56
1397,785	-4	-1,483
1399,957	-3	-1,378
1402,123	-3	-1,34
1404,289	-3	-1,296
1406,46	-2,5	-1,25
1408,632	-2,5	-1,289
1410,798	-3	-1,33
1412,976	-3	-1,286
1415,142	-3	-1,304
1417,314	-3	-1,335
1419,48	-3	-1,333
1421,646	-3	-1,372
1423,812	-3	-1,388
1425,983	-3	-1,369
1428,149	-3	-1,278
1430,315	-3	-1,277
1432,487	-3	-1,253
1434,665	-3	-1,245
1436,837	-3	-1,278
1439,015	-3	-1,309
1441,181	-3,5	-1,363
1443,352	-3,5	-1,437
1445,524	-3	-1,253
1447,69	-2,5	-1,231
1449,868	-2,5	-1,128
1452,034	-2	-1,128
1454,206	-2,5	-1,183
1456,378	-2,5	-1,157
1458,544	-2	-1,119
1460,703	-2	-1,129
1462,869	-1,5	-1,074
1465,041	-2	-1,007
1467,207	-1,5	-1,028
1469,379	-1,5	-1,029
1471,545	-1,5	-0,918
1473,717	-1	-0,871
1475,889	-0,5	-0,814
1478,06	-0,5	-0,698
1480,226	-1	-0,762
1482,398	-0,5	-0,638
1484,576	0	-0,511
1486,748	0,5	-0,271
1488,914	0,5	-0,187
1491,08	1	-0,15
1493,246	1	-0,106
1495,411	1,5	-0,094
1497,571	1,5	-0,106
1499,737	1,5	-0,075
1501,903	1,5	-0,068
1504,069	1,5	-0,076
1506,241	1,5	-0,061
1508,407	2	-0,048
1510,573	2	-0,051
1512,744	2	-0,058
1514,916	2	-0,054
1517,082	2	-0,041
1519,254	2	-0,044
1521,426	2	-0,043
1523,598	2	-0,038
1525,764	2	-0,041
1527,936	2	-0,038
1530,107	2,5	-0,035
1532,267	2	-0,048
1534,439	2	-0,046
1536,599	1,5	-0,052
1538,771	2	-0,04
1540,937	2	-0,05
1543,109	2	-0,046
1545,281	2	-0,036
1547,452	2	-0,04
1549,618	2	-0,032
1551,79	2	-0,02
1553,956	2	-0,019
1556,128	2	-0,017
1558,294	2	-0,018
1560,466	2,5	-0,016
1562,638	2	-0,012
1564,803	2,5	-0,013
1566,975	2	-0,013
1569,147	2,5	-0,011
1571,313	2	-0,012
1573,479	2,5	-0,012
1575,651	2,5	-0,016
1577,823	2,5	-0,013
1579,995	2,5	-0,012
1582,16	2,5	-0,008
1584,326	2,5	-0,01
1586,498	2,5	-0,011
1588,67	2,5	-0,014
1590,842	2,5	-0,017
1593,008	2	-0,024
1595,174	2	-0,03
1597,34	2	-0,038
1599,505	2	-0,046
1601,671	2	-0,052
1603,843	1,5	-0,068
1606,009	1,5	-0,084
1608,181	1,5	-0,078
1610,347	1,5	-0,078
1612,519	1,5	-0,076
1614,691	1,5	-0,069
1616,85	1,5	-0,074
1619,022	2	-0,054
1621,194	1,5	-0,056
1623,366	2	-0,046
1625,532	2	-0,041
1627,698	2	-0,037
1629,876	2	-0,029
1632,054	2,5	-0,024
1634,226	2,5	-0,023
1636,397	2,5	-0,018
1638,569	2,5	-0,012
1640,741	2,5	-0,011
1642,907	2,5	-0,011
1645,079	2,5	-0,008
1647,245	2,5	-0,008
1649,423	2,5	-0,007
1651,588	2,5	-0,006
1653,76	2,5	-0,006
1655,932	3	-0,004
1658,092	2,5	-0,004
1660,264	2,5	-0,004
1662,43	2,5	-0,004
1664,608	2,5	-0,003
1666,78	2,5	-0,003
1668,957	2,5	-0,002
1671,123	2,5	-0,002
1673,289	2,5	-0,002
1675,461	2,5	-0,002
1677,633	2,5	-0,002
1679,805	2,5	-0,002
1681,971	3	-0,002
1684,137	2,5	-0,002
1686,309	2,5	-0,002
1688,474	3	-0,002
1690,652	2,5	-0,002
1692,818	2,5	-0,002
1694,99	2,5	-0,002
1697,162	2,5	-0,001
1699,334	2,5	-0,001
1701,506	2,5	-0,001
1703,671	2,5	-0,001
1705,843	2,5	-0,001
1708,009	2,5	0
1710,175	2,5	0
1712,347	2,5	0
1714,519	2	-0,009
1716,685	2,5	-0,009
1718,845	2,5	0
1721,017	2,5	0
1723,182	2,5	-0,002
1725,36	2,5	-0,031
1727,526	2,5	-0,018
1729,692	2,5	-0,031
1731,864	2,5	-0,046
1734,03	2,5	-0,001
1736,202	2,5	-0,07
1738,368	2,5	-0,184
1740,533	2,5	-0,206
1742,705	2,5	-0,281
1744,883	2	-0,412
1747,049	1,5	-0,481
1749,221	0,5	-0,586
1751,387	0,5	-0,6
1753,553	0	-0,679
1755,725	0	-0,778
1757,89	-0,5	-0,767
1760,056	0	-0,741
1762,234	-0,5	-0,823
1764,4	-1	-0,882
1766,578	-1	-0,926
1768,75	-1	-0,978
1770,916	-1	-0,988
1773,094	-1,5	-1,081
1775,265	-1	-1,143
1777,437	-1,5	-1,232
1779,609	-2	-1,256
1781,787	-1,5	-1,323
1783,953	-2	-1,317
1786,125	-2	-1,321
1788,297	-2	-1,422
1790,457	-2	-1,391
1792,634	-2,5	-1,468
1794,8	-2,5	-1,532
1796,972	-3	-1,568
1799,144	-2,5	-1,598
1801,31	-3	-1,678
1803,482	-3,5	-1,72
1805,642	-3	-1,716
1807,808	-3,5	-1,743
1809,979	-3,5	-1,78
1812,145	-3,5	-1,816
1814,323	-3,5	-1,86
1816,495	-4	-1,917
1818,655	-4	-1,868
1820,827	-4,5	-1,909
1822,993	-4	-1,951
1825,165	-4	-1,997
1827,33	-4,5	-1,992
1829,502	-4	-2,038
1831,668	-5	-2,092
1833,84	-5	-2,186
1836,012	-5,5	-2,211
1838,178	-5,5	-2,228
1840,35	-6	-2,258
1842,516	-5,5	-2,242
1844,687	-6	-2,284
1846,859	-5,5	-2,298
1849,025	-6	-2,288
1851,191	-5,5	-2,256
1853,363	-5,5	-2,297
1855,535	-6	-2,328
1857,707	-6	-2,347
1859,873	-6	-2,326
1862,044	-6,5	-2,379
1864,21	-6,5	-2,442
1866,382	-6	-2,478
1868,554	-7,5	-2,582
1870,72	-7	-2,572
1872,886	-8	-2,647
1875,052	-7,5	-2,632
1877,218	-7	-2,557
1879,389	-7,5	-2,572
1881,561	-8	-2,592
1883,733	-8	-2,616
1885,899	-7,5	-2,644
1888,059	-8	-2,673
1890,237	-8,5	-2,802
1892,409	-9,5	-2,834
1894,581	-9,5	-2,862
1896,747	-9,5	-2,89
1898,912	-9,5	-2,922
1901,084	-11	-3,048
1903,25	-10,5	-3,044
1905,422	-11,5	-3,13
1907,594	-12,5	-3,256
1909,76	-13,5	-3,3
1911,932	-13	-3,299
1914,097	-13	-3,309
1916,263	-14,5	-3,351
1918,441	-15	-3,378
1920,607	-15	-3,383
1922,779	-15	-3,408
1924,945	-15	-3,429
1927,111	-15	-3,434
1929,283	-15,5	-3,45
1931,448	-15	-3,452
1933,62	-16	-3,474
1935,786	-16,5	-3,475
1937,958	-16,5	-3,481
1940,136	-16,5	-3,484
1942,302	-16,5	-3,49
1944,474	-16,5	-3,49
1946,634	-16,5	-3,491
1948,806	-16,5	-3,494
1950,977	-16,5	-3,495
1953,149	-16,5	-3,496
1955,315	-16,5	-3,497
1957,481	-16,5	-3,497
1959,647	-17	-3,497
1961,813	-16,5	-3,498
1963,973	-16,5	-3,498
1966,145	-16,5	-3,498
1968,316	-16,5	-3,498
1970,482	-16,5	-3,499
1972,648	-16,5	-3,499
1974,82	-16,5	-3,5
1976,986	-16,5	-3,471
1979,152	-16,5	-3,338
1981,324	-15,5	-3,075
1983,49	-14	-2,964
1985,655	-12,5	-2,905
1987,821	-13	-2,91
1989,993	-12,5	-2,809
1992,165	-11	-2,679
1994,331	-10,5	-2,604
1996,515	-8,5	-2,433
1998,681	-7,5	-2,279
2000,853	-7,5	-2,233
2003,018	-6	-2,152
2005,184	-6	-2,019
2007,35	-6	-2,035
2009,522	-5	-1,93
2011,688	-5	-1,919
2013,86	-4,5	-1,82
2016,032	-4,5	-1,794
2018,198	-4,5	-1,81
2020,375	-3,5	-1,649
2022,541	-3	-1,599
2024,713	-3	-1,522
2026,885	-3	-1,46
2029,051	-3	-1,47
2031,217	-2,5	-1,453
2033,383	-2,5	-1,415
2035,549	-2,5	-1,304
2037,72	-1,5	-1,204
2039,886	-1,5	-1,183
2042,052	-1,5	-1,15
2044,224	-1	-1,015
2046,396	-0,5	-0,914
2048,568	-1	-0,794
2050,74	-0,5	-0,78
2052,906	-0,5	-0,768
2055,071	-0,5	-0,758
2057,243	-0,5	-0,753
2059,409	-0,5	-0,753
2061,575	-0,5	-0,736
2063,747	-0,5	-0,695
2065,913	-0,5	-0,705
2068,085	-0,5	-0,686
2070,251	0	-0,674
2072,416	0	-0,658
2074,588	0	-0,634
2076,748	0	-0,638
2078,914	0	-0,674
2081,092	0	-0,65
2083,258	0	-0,645
2085,43	-0,5	-0,624
2087,602	0	-0,584
2089,767	-0,5	-0,621
2091,939	0	-0,584
2094,099	0	-0,642
2096,265	0	-0,674
2098,437	-0,5	-0,684
2100,603	-0,5	-0,663
2102,769	0	-0,607
2104,941	-0,5	-0,653
2107,106	-0,5	-0,696
2109,284	-0,5	-0,604
2111,45	0	-0,566
2113,61	0	-0,527
2115,77	0	-0,558
2117,948	0	-0,534
2120,114	0	-0,56
2122,292	0	-0,504
2124,463	0	-0,426
2126,629	0	-0,426
2128,807	0	-0,366
2130,973	0	-0,318
2133,139	0	-0,349
2135,311	0	-0,35
2137,477	0	-0,35
2139,649	0	-0,304
2141,814	0	-0,314
2143,981	0	-0,313
2146,158	0,5	-0,246
2148,324	0,5	-0,229
2150,49	0,5	-0,24
2152,656	1	-0,181
2154,822	0,5	-0,175
2156,994	1	-0,162
2159,159	0,5	-0,17
2161,325	1,5	-0,146
2163,491	1,5	-0,112
2165,657	1,5	-0,084
2167,823	1,5	-0,066
2170,001	2	-0,043
2172,167	2,5	-0,035
2174,333	2,5	-0,026
2176,51	2,5	-0,017
2178,676	2,5	-0,014
2180,854	3	-0,01
2183,02	2,5	-0,009
2185,186	2,5	-0,008
2187,352	3	-0,006
2189,524	2,5	-0,005
2191,69	2,5	-0,004
2193,861	2,5	-0,003
2196,027	2,5	-0,003
2198,199	2,5	-0,003
2200,371	2,5	-0,002
2202,543	2,5	-0,002
2204,715	2,5	-0,002
2206,887	2,5	-0,001
2209,053	2,5	-0,001
2211,218	3	-0,001
2213,396	3	-0,001
2215,562	3	-0,001
2217,734	3	0
2219,906	2,5	-0,002
2222,072	2,5	-0,056
2224,238	3	-0,158
2226,41	2,5	-0,3
2228,576	1,5	-0,503
2230,747	0	-0,757
2232,913	-0,5	-0,932
2235,079	-1	-1,12
2237,245	-1,5	-1,396
2239,411	-2	-1,514
2241,583	-3	-1,71
2243,755	-3,5	-2,074
2245,921	-5	-2,325
2248,086	-5,5	-2,517
2250,258	-7,5	-2,727
2252,43	-8,5	-2,965
2254,596	-9,5	-3,189
2256,774	-12	-3,385
2258,94	-13,5	-3,437
2261,1	-14	-3,468
2263,272	-14	-3,481
2265,437	-14,5	-3,489
2267,603	-14,5	-3,495
2269,781	-14,5	-3,498
2271,947	-14,5	-3,498
2274,119	-14,5	-3,499
2276,291	-14,5	-3,499
2278,457	-14	-3,499
2280,634	-14	-3,5
2282,8	-14	-3,5
2284,966	-14	-3,5
2287,138	-14	-3,5
2289,31	-14	-3,5
2291,476	-14	-3,5
2293,642	-14	-3,432
2295,808	-14,5	-3,257
2297,974	-14	-3,165
2300,145	-13	-3,096
2302,317	-11,5	-3
2304,483	-12,5	-3,016
2306,655	-10	-2,858
2308,821	-9,5	-2,763
2310,987	-9,5	-2,74
2313,165	-8,5	-2,653
2315,331	-7,5	-2,478
2317,496	-6,5	-2,338
2319,662	-5,5	-2,222
2321,834	-4,5	-2,089
2324,006	-5	-2,097
2326,178	-4,5	-2,072
2328,344	-4	-1,971
2330,51	-4	-1,874
2332,676	-3	-1,769
2334,841	-3	-1,73
2337,013	-2	-1,54
2339,179	-2	-1,498
2341,345	-2	-1,46
2343,517	-1	-1,296
2345,689	-1	-1,186
2347,855	-0,5	-1,038
2350,033	0	-0,903
2352,198	0	-0,704
2354,37	0,5	-0,51
2356,536	0,5	-0,468
2358,702	0,5	-0,399
2360,874	1	-0,213
2363,04	1,5	-0,148
2365,206	1,5	-0,117
2367,372	2	-0,08
2369,537	2,5	-0,062
2371,703	2,5	-0,027
2373,881	2,5	-0,017
2376,047	2,5	-0,013
2378,213	2,5	-0,008
2380,391	3	-0,003
2382,557	2,5	-0,002
2384,729	2,5	-0,001
2386,9	2,5	-0,001
2389,066	2,5	-0,001
2391,232	2,5	0
2393,404	2,5	-0,014
2395,57	2,5	-0,158
2397,736	2,5	-0,28
2399,908	1,5	-0,546
2402,074	0	-0,738
2404,24	-1	-1,018
2406,417	-0,5	-1,06
2408,589	-1,5	-1,313
2410,749	-2	-1,491
2412,915	-2,5	-1,677
2415,081	-3	-1,895
2417,259	-3,5	-2,104
2419,425	-4	-2,29
2421,59	-5	-2,446
2423,756	-5,5	-2,584
2425,916	-5,5	-2,736
2428,082	-7	-2,874
2430,254	-8	-3,017
2432,42	-8,5	-3,123
2434,586	-9,5	-3,285
2436,764	-11	-3,382
2438,929	-13	-3,44
2441,095	-13	-3,462
2443,261	-13,5	-3,477
2445,439	-13,5	-3,486
2447,605	-13,5	-3,492
2449,777	-13,5	-3,494
2451,943	-13,5	-3,496
2454,109	-13,5	-3,498
2456,281	-14	-3,499
2458,452	-13,5	-3,499
2460,612	-13,5	-3,499
2462,784	-13,5	-3,5
2464,956	-13,5	-3,427
2467,122	-13,5	-3,3
2469,3	-12,5	-3,091
2471,466	-10	-2,943
2473,632	-9,5	-2,868
2475,803	-8	-2,678
2477,969	-6	-2,469
2480,135	-5,5	-2,363
2482,307	-5	-2,247
2484,473	-4,5	-2,124
2486,639	-4	-2,013
2488,805	-3	-1,848
2490,971	-2,5	-1,699
2493,142	-2	-1,604
2495,314	-1,5	-1,446
2497,486	-1	-1,277
2499,652	-1	-1,261
2501,83	-0,5	-1,057
2503,996	-0,5	-0,983
2506,162	0	-0,919
2508,334	0	-0,776
2510,499	0	-0,729
2512,665	0	-0,588
2514,837	0,5	-0,469
2517,009	1	-0,338
2519,181	1	-0,179
2521,353	1,5	-0,092
2523,519	2	-0,072
2525,691	2,5	-0,04
2527,85	3	-0,027
2530,022	2,5	-0,017
2532,188	2,5	-0,012
2534,354	2,5	-0,007
2536,526	2,5	-0,004
2538,692	3	-0,002
2540,864	2,5	-0,001
2543,03	2,5	-0,001
2545,195	3	0
2547,361	2,5	-0,029
2549,539	2,5	-0,272
2551,699	2	-0,446
2553,859	1,5	-0,581
2556,031	0	-0,808
2558,203	-0,5	-1,01
2560,363	-0,5	-1,065
2562,528	-0,5	-1,187
2564,694	-1	-1,267
2566,86	-1,5	-1,443
2569,026	-1,5	-1,603
2571,192	-2	-1,705
2573,364	-2	-1,906
2575,536	-3	-2,085
2577,708	-3,5	-2,258
2579,873	-4,5	-2,526
2582,045	-5,5	-2,747
2584,211	-6	-2,869
2586,377	-7	-2,97
2588,543	-7,5	-3,12
2590,709	-9	-3,282
2592,875	-10	-3,368
2595,035	-10	-3,385
2597,206	-11	-3,43
2599,372	-12	-3,45
2601,544	-12,5	-3,469
2603,716	-12,5	-3,477
2605,888	-12,5	-3,489
2608,06	-12,5	-3,493
2610,226	-13	-3,494
2612,398	-12,5	-3,496
2614,563	-12,5	-3,497
2616,735	-12,5	-3,498
2618,901	-13	-3,498
2621,067	-12,5	-3,499
2623,239	-12,5	-3,499
2625,405	-12,5	-3,5
2627,571	-12,5	-3,439
2629,743	-12	-3,28
2631,908	-12	-3,191
2634,068	-11,5	-3,115
2636,24	-9,5	-2,947
2638,412	-8,5	-2,83
2640,584	-7	-2,677
2642,756	-5,5	-2,545
2644,922	-5	-2,391
2647,088	-4,5	-2,263
2649,271	-4	-2,109
2651,437	-2,5	-1,917
2653,603	-2,5	-1,879
2655,775	-2	-1,722
2657,947	-1,5	-1,538
2660,107	-1	-1,413
2662,279	-0,5	-1,286
2664,445	0	-1,194
2666,61	0	-1,073
2668,788	0	-0,917
2670,954	0	-0,82
2673,12	0	-0,661
2675,286	0,5	-0,527
2677,458	0,5	-0,454
2679,624	1	-0,338
2681,796	1	-0,25
2683,961	1,5	-0,195
2686,133	1,5	-0,138
2688,293	2	-0,099
2690,465	2	-0,06
2692,631	2,5	-0,043
2694,797	2,5	-0,034
2696,969	2,5	-0,026
2699,129	3	-0,018
2701,289	3	-0,016
2703,46	3	-0,009
2705,626	3	-0,006
2707,792	3	-0,005
2709,964	3	-0,003
2712,13	3	-0,002
2714,296	3	-0,002
2716,468	3	-0,001
2718,634	2,5	-0,001
2720,805	2,5	-0,001
2722,977	2,5	-0,136
2725,143	2,5	-0,226
2727,303	2,5	-0,267
2729,475	2	-0,362
2731,647	2	-0,463
2733,813	1	-0,58
2735,979	0,5	-0,623
2738,15	0	-0,744
2740,316	0	-0,819
2742,482	-0,5	-0,989
2744,654	-0,5	-1,085
2746,82	-0,5	-1,164
2748,986	-0,5	-1,276
2751,158	-1	-1,424
2753,33	-1,5	-1,618
2755,495	-1,5	-1,667
2757,673	-2	-1,849
2759,839	-2	-1,924
2762,005	-2,5	-2,094
2764,171	-3	-2,21
2766,349	-3	-2,31
2768,515	-3	-2,368
2770,681	-3,5	-2,455
2772,852	-4	-2,564
2775,018	-4	-2,628
2777,19	-4,5	-2,792
2779,362	-5	-2,897
2781,528	-6	-3,009
2783,688	-6	-3,07
2785,86	-7	-3,256
2788,026	-8	-3,3
2790,197	-8,5	-3,368
2792,369	-9,5	-3,415
2794,535	-10	-3,442
2796,701	-10	-3,45
2798,873	-10,5	-3,468
2801,039	-10,5	-3,475
2803,205	-10,5	-3,48
2805,371	-10,5	-3,482
2807,542	-10,5	-3,49
2809,708	-11	-3,493
2811,874	-11	-3,495
2814,052	-10,5	-3,496
2816,218	-11	-3,497
2818,396	-10,5	-3,498
2820,574	-11	-3,499
2822,74	-10,5	-3,499
2824,905	-10,5	-3,499
2827,083	-11	-3,499
2829,255	-11	-3,42
2831,421	-11	-3,336
2833,587	-10,5	-3,211
2835,747	-10	-3,134
2837,913	-9,5	-3,04
2840,079	-9	-2,955
2842,25	-7	-2,834
2844,41	-6,5	-2,784
2846,576	-6	-2,657
2848,754	-5	-2,522
2850,92	-4,5	-2,425
2853,086	-3,5	-2,276
2855,258	-3	-2,086
2857,424	-2,5	-2,028
2859,589	-2,5	-1,92
2861,755	-2,5	-1,936
2863,921	-2	-1,824
2866,093	-1,5	-1,677
2868,265	-1	-1,562
2870,431	-0,5	-1,403
2872,597	-0,5	-1,284
2874,769	0	-1,116
2876,94	0	-1,043
2879,1	0	-0,972
2881,272	0	-0,845
2883,438	0	-0,75
2885,61	0,5	-0,579
2887,776	0,5	-0,438
2889,948	1	-0,249
2892,114	1	-0,204
2894,279	1,5	-0,149
2896,452	1,5	-0,109
2898,611	2	-0,076
2900,777	2,5	-0,044
2902,949	2	-0,028
2905,115	2,5	-0,02
2907,281	2,5	-0,014
2909,459	2,5	-0,007
2911,624	2,5	-0,004
2913,79	3	-0,004
2915,956	3	-0,003
2918,128	3	-0,002
2920,294	2,5	-0,002
2922,46	3	-0,001
2924,638	3	-0,001
2926,804	3	0
2928,969	3	-0,027
2931,141	3	-0,143
2933,325	2	-0,365
2935,491	1,5	-0,492
2937,663	0	-0,71
2939,829	0	-0,732
2941,995	0	-0,753
2944,155	0	-0,886
2946,332	0	-0,97
2948,498	-0,5	-1,092
2950,664	-0,5	-1,205
2952,836	-1	-1,384
2955,002	-1	-1,453
2957,174	-1	-1,564
2959,334	-1,5	-1,539
2961,506	-1,5	-1,65
2963,671	-1,5	-1,708
2965,837	-1,5	-1,89
2968,009	-2,5	-2,01
2970,181	-2,5	-2,114
2972,353	-3	-2,326
2974,525	-3,5	-2,489
2976,691	-3,5	-2,638
2978,851	-4	-2,678
2981,023	-4,5	-2,751
2983,188	-4,5	-2,812
2985,36	-5	-2,914
2987,526	-5,5	-3,008
2989,698	-6	-3,089
2991,864	-6	-3,163
2994,036	-7	-3,286
2996,208	-8	-3,366
2998,374	-9	-3,403
3000,539	-9	-3,417
3002,717	-9,5	-3,456
3004,889	-10	-3,473
3007,055	-10	-3,477
3009,233	-10	-3,486
3011,399	-10	-3,491
3013,565	-10,5	-3,494
3015,737	-10,5	-3,496
3017,908	-10,5	-3,496
3020,074	-10,5	-3,496
3022,246	-10,5	-3,497
3024,418	-10,5	-3,498
3026,584	-10	-3,499
3028,756	-10,5	-3,499
3030,922	-10	-3,499
3033,088	-10,5	-3,471
3035,253	-10	-3,268
3037,425	-10	-3,184
3039,597	-9	-3,115
3041,769	-7,5	-3,026
3043,935	-6,5	-2,898
3046,113	-5,5	-2,753
3048,279	-5	-2,682
3050,445	-5,5	-2,653
3052,616	-4,5	-2,573
3054,782	-5,5	-2,609
3056,954	-4,5	-2,553
3059,12	-5	-2,558
3061,292	-4,5	-2,511
3063,458	-4	-2,451
3065,63	-3,5	-2,411
3067,796	-3,5	-2,319
3069,961	-3,5	-2,364
3072,127	-3	-2,34
3074,299	-3	-2,167
3076,471	-2,5	-2,12
3078,637	-2,5	-2,13
3080,809	-2,5	-2,099
3082,975	-2,5	-2,094
3085,135	-2,5	-2,039
3087,312	-2	-1,926
3089,49	-1,5	-1,844
3091,65	-1,5	-1,836
3093,822	-1,5	-1,731
3095,994	-0,5	-1,531
3098,16	-0,5	-1,445
3100,326	-0,5	-1,322
3102,492	0	-1,2
3104,669	0	-1,044
3106,835	0	-0,916
3109,007	0	-0,769
3111,179	0	-0,59
3113,351	0,5	-0,474
3115,517	0,5	-0,414
3117,695	0,5	-0,307
3119,861	0,5	-0,25
3122,026	1	-0,272
3124,192	1	-0,244
3126,364	1	-0,277
3128,536	1	-0,209
3130,702	1	-0,15
3132,874	1,5	-0,132
3135,04	1,5	-0,112
3137,206	1,5	-0,106
3139,371	1,5	-0,097
3141,537	1,5	-0,072
3143,703	2,5	-0,05
3145,869	2	-0,044
3148,041	2	-0,032
3150,213	2,5	-0,024
3152,385	2,5	-0,017
3154,551	2,5	-0,019
3156,711	2,5	-0,021
3158,876	3	-0,016
3161,042	2,5	-0,011
3163,208	2,5	-0,009
3165,374	3	-0,007
3167,54	2,5	-0,005
3169,718	3	-0,004
3171,884	3	-0,003
3174,05	2,5	-0,003
3176,227	2,5	-0,002
3178,393	3	-0,002
3180,559	2,5	-0,002
3182,719	3	-0,002
3184,891	3	-0,002
3187,057	2,5	-0,001
3189,223	3	-0,001
3191,395	3	-0,001
3193,566	2,5	0
3195,732	3	-0,001
3197,91	2,5	0
3200,076	2,5	-0,002
3202,248	3	-0,018
3204,414	3	-0,009
3206,586	2,5	-0,09
3208,752	2,5	-0,186
3210,917	3	-0,209
3213,089	3	-0,29
3215,255	2,5	-0,307
3217,421	2	-0,36
3219,587	2	-0,366
3221,765	2	-0,352
3223,931	2	-0,348
3226,102	1,5	-0,448
3228,274	2	-0,461
3230,44	1,5	-0,447
3232,606	1,5	-0,452
3234,772	2	-0,431
3236,824	2,5	-0,001