File: Cycling_tests/_30perc/_3gap/entrada/_4.txt
Time (s)	Load (N)	Displacement (mm)
0	0	-0,031
2,105	0,5	-0,073
4,271	0	-0,402
6,37	0	-0,429
8,458	1	-0,347
10,546	0	-0,378
12,634	1	-0,301
14,728	1	-0,159
16,816	1,5	-0,073
18,904	1,5	-0,007
20,992	1,5	0
23,079	1,5	0
25,173	1,5	0
27,261	1,5	0
29,349	1,5	-0,001
31,437	1,5	-0,001
33,525	1,5	-0,001
35,613	1,5	-0,002
37,707	1,5	-0,001
39,794	1,5	-0,001
41,882	1,5	-0,002
43,97	1,5	-0,002
46,06	1,5	-0,003
48,146	1,5	-0,004
50,24	1,5	-0,005
52,34	1,5	-0,006
54,434	1,5	-0,008
56,522	1,5	-0,009
58,627	1,5	-0,008
60,715	1,5	-0,01
62,803	1,5	-0,011
64,891	1,5	-0,011
66,991	1,5	-0,01
69,085	1,5	-0,009
71,185	1,5	-0,009
73,273	1,5	-0,01
75,367	1,5	-0,009
77,466	2	-0,011
79,56	1,5	-0,012
81,654	1,5	-0,01
83,748	2	-0,009
85,836	1,5	-0,009
87,93	2	-0,01
90,024	1,5	-0,009
92,118	1,5	-0,008
94,205	1,5	-0,01
96,293	1,5	-0,013
98,393	1,5	-0,014
100,481	1,5	-0,012
102,575	1,5	-0,013
104,663	2	-0,015
106,751	1,5	-0,02
108,839	1,5	-0,024
110,932	1,5	-0,042
113,02	1	-0,084
115,114	0,5	-0,094
117,208	0,5	-0,097
119,296	0,5	-0,124
121,384	0,5	-0,121
123,484	0,5	-0,129
125,578	0,5	-0,147
127,671	0	-0,122
129,765	0,5	-0,103
131,859	1	-0,085
133,953	0,5	-0,092
136,053	1	-0,068
138,141	1,5	-0,07
140,229	1	-0,091
142,317	1	-0,108
144,41	0,5	-0,106
146,5	0,5	-0,117
148,588	0,5	-0,136
150,68	1	-0,122
152,768	0	-0,186
154,856	0	-0,19
156,95	0	-0,18
159,044	0	-0,234
161,143	0	-0,222
163,231	-0,5	-0,31
165,325	0	-0,264
167,419	0	-0,282
169,519	0	-0,322
171,619	-0,5	-0,358
173,719	-0,5	-0,454
175,813	-0,5	-0,463
177,913	-1	-0,538
180,006	-1,5	-0,535
182,1	-1,5	-0,58
184,188	-2	-0,674
186,282	-2	-0,655
188,382	-1,5	-0,649
190,482	-1,5	-0,65
192,576	-1,5	-0,669
194,676	-2	-0,744
196,769	-3	-0,869
198,864	-3,5	-0,974
200,975	-3,5	-1,01
203,075	-3,5	-1,089
205,163	-4,5	-1,187
207,269	-5	-1,231
209,369	-5	-1,242
211,457	-5,5	-1,354
213,551	-5,5	-1,417
215,644	-6,5	-1,499
217,75	-6	-1,497
219,844	-6,5	-1,473
221,95	-5,5	-1,418
224,05	-6	-1,485
226,138	-7	-1,557
228,232	-6,5	-1,539
230,332	-6,5	-1,571
232,425	-7,5	-1,579
234,531	-6	-1,518
236,625	-7,5	-1,584
238,719	-7	-1,594
240,813	-7	-1,639
242,913	-6,5	-1,581
245,013	-7	-1,624
247,101	-7,5	-1,668
249,194	-7,5	-1,668
251,3	-7,5	-1,695
253,4	-8	-1,721
255,494	-8	-1,756
257,594	-8	-1,788
259,682	-9	-1,805
261,776	-8,5	-1,803
263,876	-9	-1,851
265,981	-10	-1,832
268,076	-9	-1,862
270,175	-9,5	-1,909
272,269	-10	-2,062
274,369	-11	-2,184
276,463	-12	-2,188
278,563	-11,5	-2,139
280,663	-11	-2,119
282,757	-12,5	-2,276
284,85	-13,5	-2,449
286,956	-14,5	-2,473
289,056	-14,5	-2,504
291,15	-15	-2,566
293,259	-16	-2,596
295,356	-16	-2,59
297,462	-16	-2,57
299,568	-16	-2,668
301,667	-16,5	-2,72
303,767	-17	-2,763
305,867	-17	-2,72
307,967	-17,5	-2,79
310,079	-18,5	-2,815
312,167	-19	-2,95
314,279	-19	-2,864
316,379	-19,5	-2,91
318,49	-17	-2,755
320,59	-17,5	-2,748
322,69	-18	-2,793
324,796	-18,5	-2,874
326,89	-19,5	-2,947
328,978	-21	-3,082
331,072	-21,5	-3,166
333,184	-20,5	-3,096
335,284	-21	-3,212
337,377	-21,5	-3,455
339,483	-21,5	-3,5
341,583	-21,5	-3,499
343,677	-21,5	-3,499
345,771	-21,5	-3,499
347,871	-21,5	-3,498
349,983	-21,5	-3,497
352,089	-21,5	-3,496
354,176	-21,5	-3,495
356,27	-21,5	-3,494
358,382	-21,5	-3,494
360,482	-21,5	-3,492
362,582	-21,5	-3,492
364,688	-21	-3,492
366,788	-21,5	-3,492
368,888	-21,5	-3,491
370,994	-21	-3,48
373,099	-20,5	-3,466
375,205	-21	-3,47
377,305	-21	-3,468
379,399	-20,5	-3,46
381,499	-20	-3,44
383,605	-20,5	-3,45
385,705	-20,5	-3,458
387,805	-20,5	-3,456
389,91	-20	-3,461
392,016	-20,5	-3,465
394,116	-21	-3,472
396,222	-21	-3,48
398,328	-21	-3,488
400,434	-21,5	-3,492
402,534	-21,5	-3,493
404,634	-21,5	-3,494
406,745	-21,5	-3,496
408,839	-21	-3,496
410,951	-21,5	-3,497
413,051	-21	-3,497
415,157	-21	-3,498
417,257	-21,5	-3,498
419,357	-21	-3,499
421,451	-21	-3,499
423,55	-21	-3,499
425,656	-21	-3,482
427,756	-21	-3,344
429,85	-21	-3,293
431,956	-20,5	-3,185
434,062	-21	-3,165
436,156	-20,5	-3,18
438,268	-19,5	-3,049
440,368	-20,5	-3,135
442,462	-20,5	-3,165
444,561	-20,5	-3,207
446,661	-20	-3,132
448,755	-18,5	-2,992
450,855	-18	-2,98
452,949	-19,5	-3,016
455,055	-18,5	-2,985
457,149	-19	-2,974
459,242	-17,5	-2,887
461,342	-16,5	-2,802
463,442	-16	-2,759
465,536	-15	-2,645
467,63	-14	-2,489
469,742	-11,5	-2,238
471,842	-10	-2,063
473,948	-8,5	-1,928
476,054	-7,5	-1,77
478,16	-7	-1,695
480,259	-7	-1,706
482,353	-6,5	-1,7
484,453	-6	-1,62
486,553	-6	-1,595
488,653	-5	-1,471
490,741	-5	-1,42
492,835	-5	-1,445
494,934	-4,5	-1,375
497,034	-4,5	-1,374
499,14	-4	-1,255
501,24	-3	-1,116
503,34	-3	-1,111
505,44	-3	-1,074
507,54	-2,5	-0,994
509,64	-2,5	-0,978
511,745	-2	-0,91
513,845	-2	-0,868
515,939	-1,5	-0,782
518,057	-1	-0,644
520,145	-1	-0,582
522,245	-0,5	-0,554
524,345	-0,5	-0,523
526,439	-0,5	-0,526
528,532	0	-0,434
530,638	0	-0,319
532,732	0	-0,268
534,832	0,5	-0,2
536,932	1	-0,124
539,032	1,5	-0,094
541,132	2	-0,053
543,232	2	-0,047
545,332	2,5	-0,025
547,425	2	-0,028
549,519	2	-0,028
551,619	2,5	-0,022
553,707	2,5	-0,022
555,813	2,5	-0,015
557,919	2,5	-0,01
560,013	2,5	-0,01
562,113	2,5	-0,009
564,212	2,5	-0,006
566,306	2,5	-0,006
568,406	2,5	-0,006
570,506	2,5	-0,004
572,6	3	-0,002
574,694	3	-0,002
576,8	3	-0,001
578,9	3	-0,001
581	2,5	-0,001
583,093	3	-0,001
585,199	2,5	-0,001
587,299	3	0
589,393	2,5	0
591,487	2,5	-0,007
593,587	2,5	-0,06
595,687	2,5	-0,13
597,793	2,5	-0,196
599,898	2	-0,33
602,004	2	-0,436
604,098	1	-0,558
606,198	0	-0,64
608,298	-1	-0,852
610,398	-0,5	-0,836
612,492	-1,5	-0,882
614,592	-2	-1,015
616,691	-2,5	-1,062
618,785	-2,5	-1,091
620,873	-2,5	-1,127
622,967	-3	-1,277
625,061	-3	-1,36
627,167	-4	-1,532
629,267	-4,5	-1,697
631,367	-5,5	-1,89
633,466	-5,5	-1,958
635,56	-6	-2,055
637,666	-7,5	-2,213
639,766	-8,5	-2,367
641,866	-9	-2,462
643,966	-10	-2,591
646,06	-10	-2,636
648,154	-11,5	-2,812
650,254	-12	-2,919
652,347	-13,5	-3,064
654,453	-14,5	-3,142
656,553	-15	-3,211
658,647	-15,5	-3,273
660,741	-15	-3,271
662,835	-15	-3,264
664,929	-15	-3,241
667,029	-15,5	-3,281
669,128	-15,5	-3,306
671,228	-16	-3,329
673,322	-16	-3,306
675,416	-15,5	-3,31
677,516	-16	-3,357
679,604	-17,5	-3,372
681,698	-16,5	-3,355
683,798	-17	-3,387
685,891	-17	-3,391
687,985	-18	-3,397
690,085	-18	-3,405
692,179	-18	-3,406
694,279	-18	-3,41
696,373	-16	-3,406
698,473	-15,5	-3,396
700,573	-16	-3,412
702,673	-16	-3,419
704,76	-15,5	-3,392
706,866	-16	-3,409
708,966	-16	-3,41
711,066	-16	-3,411
713,154	-17,5	-3,403
715,254	-16,5	-3,405
717,348	-17	-3,404
719,436	-18	-3,423
721,535	-18,5	-3,444
723,623	-19	-3,452
725,733	-19	-3,468
727,823	-19,5	-3,474
729,917	-19,5	-3,472
732,011	-19,5	-3,477
734,099	-19,5	-3,479
736,199	-19,5	-3,482
738,299	-19,5	-3,479
740,392	-19,5	-3,478
742,498	-19,5	-3,481
744,592	-19,5	-3,483
746,686	-19,5	-3,486
748,78	-19,5	-3,488
750,88	-19,5	-3,488
752,98	-19,5	-3,489
755,086	-19,5	-3,491
757,179	-19,5	-3,491
759,267	-19,5	-3,491
761,361	-19,5	-3,492
763,461	-19,5	-3,494
765,555	-19,5	-3,492
767,649	-19,5	-3,49
769,743	-19,5	-3,489
771,843	-19,5	-3,49
773,936	-19,5	-3,491
776,036	-19,5	-3,494
778,124	-19,5	-3,492
780,23	-19,5	-3,493
782,336	-19,5	-3,494
784,436	-19,5	-3,493
786,53	-19,5	-3,494
788,636	-19,5	-3,496
790,742	-19,5	-3,496
792,835	-19,5	-3,496
794,947	-19,5	-3,497
797,047	-19,5	-3,497
799,147	-19,5	-3,498
801,247	-19,5	-3,498
803,347	-19,5	-3,499
805,447	-19,5	-3,499
807,547	-19,5	-3,499
809,64	-19,5	-3,499
811,734	-19,5	-3,499
813,834	-19,5	-3,5
815,928	-19,5	-3,5
818,022	-19,5	-3,5
820,122	-19,5	-3,499
822,222	-19,5	-3,392
824,316	-19,5	-3,312
826,415	-19,5	-3,262
828,509	-19,5	-3,135
830,603	-19	-3,123
832,703	-18,5	-3,084
834,809	-18,5	-3,075
836,909	-18	-3,018
839,003	-17	-2,936
841,109	-17	-2,889
843,215	-15	-2,774
845,314	-15	-2,694
847,42	-14	-2,649
849,508	-14,5	-2,699
851,614	-14	-2,664
853,714	-14	-2,618
855,814	-14	-2,664
857,914	-14,5	-2,71
860,008	-15	-2,698
862,113	-14	-2,7
864,207	-15	-2,672
866,307	-15	-2,688
868,407	-14,5	-2,634
870,507	-13,5	-2,58
872,601	-13,5	-2,589
874,701	-13	-2,542
876,795	-13	-2,539
878,901	-13	-2,514
880,994	-12	-2,492
883,088	-12,5	-2,565
885,188	-12,5	-2,58
887,288	-12	-2,495
889,382	-12,5	-2,494
891,482	-11	-2,324
893,576	-10,5	-2,312
895,676	-9,5	-2,2
897,763	-11	-2,212
899,857	-10	-2,22
901,951	-8,5	-2,085
904,045	-8	-1,978
906,145	-7	-1,834
908,245	-6	-1,77
910,339	-6	-1,73
912,433	-5,5	-1,718
914,532	-5,5	-1,693
916,626	-5,5	-1,611
918,732	-4	-1,49
920,82	-5	-1,502
922,92	-5	-1,47
925,014	-3,5	-1,351
927,114	-3,5	-1,335
929,208	-3	-1,275
931,301	-3,5	-1,28
933,407	-3	-1,201
935,501	-3	-1,188
937,607	-2	-1,094
939,707	-2	-1,089
941,807	-2	-1,031
943,901	-3	-1,129
945,995	-3	-1,155
948,095	-2,5	-1,085
950,188	-2,5	-1,13
952,282	-2,5	-1,05
954,382	-2,5	-1,06
956,476	-3	-1,1
958,576	-2,5	-1,123
960,67	-2	-1,068
962,764	-2	-1,065
964,864	-2	-1,066
966,957	-2	-1,016
969,063	-1,5	-0,9
971,157	-1,5	-0,879
973,257	-1,5	-0,85
975,357	-1,5	-0,86
977,451	-1	-0,822
979,545	-0,5	-0,736
981,645	-0,5	-0,768
983,744	-0,5	-0,745
985,838	-1	-0,712
987,932	-1	-0,71
990,038	-0,5	-0,626
992,138	-0,5	-0,638
994,232	-0,5	-0,663
996,326	-0,5	-0,74
998,426	-1	-0,724
1000,525	-1	-0,836
1002,625	-1,5	-0,841
1004,725	-1,5	-0,889
1006,825	-1	-0,789
1008,925	-0,5	-0,708
1011,019	-1	-0,79
1013,113	-1,5	-0,842
1015,213	-1,5	-0,832
1017,313	-1	-0,799
1019,412	-1	-0,784
1021,506	-0,5	-0,75
1023,606	-1	-0,788
1025,706	-1	-0,766
1027,806	-1	-0,793
1029,912	-1,5	-0,918
1032,012	-2	-0,949
1034,118	-1,5	-0,894
1036,211	-1,5	-0,895
1038,311	-2	-1,003
1040,405	-2,5	-1,085
1042,505	-2	-1,038
1044,593	-3	-1,246
1046,693	-3,5	-1,342
1048,781	-3,5	-1,412
1050,887	-3	-1,308
1052,981	-3	-1,301
1055,08	-2,5	-1,216
1057,174	-3,5	-1,32
1059,274	-4	-1,369
1061,374	-4,5	-1,494
1063,474	-4	-1,426
1065,58	-4	-1,466
1067,674	-4,5	-1,464
1069,774	-4,5	-1,507
1071,867	-5	-1,66
1073,979	-5	-1,705
1076,067	-7,5	-1,963
1078,161	-8,5	-2,104
1080,255	-10	-2,33
1082,349	-13	-2,604
1084,443	-13,5	-2,666
1086,543	-14,5	-2,821
1088,636	-15,5	-2,974
1090,742	-16,5	-3,002
1092,836	-17,5	-3,112
1094,93	-18,5	-3,202
1097,03	-18,5	-3,343
1099,124	-19	-3,357
1101,224	-18,5	-3,412
1103,318	-19	-3,398
1105,418	-18,5	-3,326
1107,517	-18,5	-3,343
1109,623	-18,5	-3,272
1111,717	-18,5	-3,236
1113,817	-18	-3,22
1115,911	-19	-3,365
1118,005	-19	-3,474
1120,099	-19	-3,499
1122,247	-18,5	-3,461
1124,334	-18,5	-3,5
1126,44	-19	-3,5
1128,54	-18,5	-3,489
1130,64	-18,5	-3,499
1132,74	-18,5	-3,499
1134,84	-18,5	-3,499
1136,94	-18,5	-3,5
1139,034	-18,5	-3,5
1141,127	-18,5	-3,499
1143,227	-18,5	-3,499
1145,321	-18,5	-3,499
1147,421	-18,5	-3,499
1149,515	-18,5	-3,498
1151,615	-18,5	-3,498
1153,709	-18,5	-3,498
1155,809	-18,5	-3,497
1157,897	-18,5	-3,496
1159,996	-19	-3,496
1162,096	-19	-3,492
1164,19	-18,5	-3,492
1166,29	-18,5	-3,492
1168,384	-18,5	-3,49
1170,484	-18,5	-3,49
1172,578	-18,5	-3,487
1174,678	-18,5	-3,485
1176,771	-18,5	-3,474
1178,871	-18	-3,465
1180,965	-16	-3,443
1183,065	-15,5	-3,44
1185,165	-15	-3,428
1187,259	-15	-3,417
1189,359	-16,5	-3,408
1191,453	-15,5	-3,356
1193,558	-14,5	-3,394
1195,652	-14,5	-3,286
1197,752	-15	-3,296
1199,846	-13,5	-3,253
1201,946	-13,5	-3,252
1204,04	-14,5	-3,295
1206,134	-14	-3,224
1208,234	-13	-3,135
1210,328	-12	-3
1212,421	-12	-2,991
1214,527	-11,5	-2,92
1216,627	-11,5	-2,922
1218,733	-11	-2,871
1220,827	-10,5	-2,819
1222,921	-9,5	-2,736
1225,015	-9	-2,62
1227,109	-9	-2,559
1229,208	-8	-2,484
1231,308	-7,5	-2,378
1233,408	-6,5	-2,213
1235,508	-6	-2,107
1237,608	-5,5	-1,991
1239,702	-5	-1,95
1241,796	-5	-1,957
1243,89	-4,5	-1,778
1245,984	-3,5	-1,679
1248,077	-3,5	-1,622
1250,177	-3	-1,516
1252,265	-3	-1,466
1254,371	-3	-1,444
1256,465	-2,5	-1,402
1258,559	-2	-1,307
1260,659	-2,5	-1,318
1262,753	-2,5	-1,3
1264,846	-2,5	-1,312
1266,94	-2,5	-1,261
1269,028	-2,5	-1,191
1271,122	-1,5	-1,107
1273,216	-1,5	-1,077
1275,31	-1,5	-1,006
1277,404	-1,5	-0,996
1279,504	-1,5	-0,975
1281,603	-1,5	-0,964
1283,697	-1	-0,955
1285,785	-1	-0,922
1287,885	-1,5	-0,986
1289,979	0	-0,886
1292,079	-1,5	-1,036
1294,173	-1,5	-1,026
1296,273	-1,5	-1,131
1298,372	-2	-1,239
1300,466	-2	-1,22
1302,566	-2	-1,304
1304,66	-2,5	-1,375
1306,76	-2,5	-1,514
1308,854	-2,5	-1,505
1310,96	-3	-1,593
1313,054	-3	-1,621
1315,16	-3	-1,63
1317,254	-3	-1,606
1319,347	-3	-1,561
1321,441	-3	-1,53
1323,553	-3	-1,58
1325,653	-3	-1,58
1327,747	-3	-1,561
1329,847	-3	-1,656
1331,941	-3,5	-1,706
1334,04	-4	-1,769
1336,134	-4	-1,861
1338,24	-5	-2,067
1340,334	-5	-2,063
1342,446	-6	-2,294
1344,54	-6	-2,237
1346,64	-6	-2,264
1348,734	-6	-2,32
1350,834	-6	-2,292
1352,921	-6	-2,21
1355,015	-5,5	-2,181
1357,115	-5,5	-2,234
1359,215	-5,5	-2,256
1361,315	-6	-2,26
1363,403	-5,5	-2,206
1365,503	-5,5	-2,243
1367,603	-5,5	-2,233
1369,708	-5,5	-2,231
1371,802	-6,5	-2,329
1373,896	-6,5	-2,341
1375,996	-6,5	-2,336
1378,09	-6,5	-2,422
1380,196	-8	-2,564
1382,29	-7,5	-2,513
1384,39	-7	-2,482
1386,483	-7	-2,478
1388,589	-7,5	-2,487
1390,683	-7	-2,452
1392,777	-7	-2,427
1394,883	-7,5	-2,463
1396,977	-7,5	-2,438
1399,077	-7,5	-2,507
1401,171	-7	-2,461
1403,265	-6,5	-2,372
1405,364	-6	-2,324
1407,458	-7	-2,363
1409,564	-6,5	-2,362
1411,658	-6	-2,22
1413,758	-6	-2,246
1415,852	-5	-2,2
1417,94	-5,5	-2,176
1420,04	-5,5	-2,145
1422,127	-5	-2,053
1424,227	-4,5	-1,985
1426,322	-4,5	-1,927
1428,427	-4,5	-1,985
1430,527	-4,5	-2,042
1432,627	-4,5	-1,99
1434,721	-4,5	-1,886
1436,815	-4	-1,828
1438,914	-3,5	-1,733
1441,008	-3	-1,65
1443,102	-3	-1,604
1445,208	-3	-1,618
1447,308	-3	-1,607
1449,402	-2,5	-1,466
1451,496	-2,5	-1,362
1453,602	-2,5	-1,407
1455,696	-2,5	-1,377
1457,789	-2	-1,225
1459,889	-1,5	-1,166
1461,983	-1,5	-1,142
1464,083	-2	-1,232
1466,177	-2	-1,18
1468,277	-1,5	-1,026
1470,371	-1,5	-0,911
1472,459	0	-0,751
1474,558	0	-0,719
1476,652	0	-0,608
1478,758	1	-0,531
1480,852	2,5	-0,266
1482,946	2,5	-0,023
1485,046	3	0
1487,14	2,5	-0,001
1489,24	2,5	-0,001
1491,333	2,5	-0,001
1493,427	2,5	-0,001
1495,533	2,5	-0,001
1497,627	3	-0,002
1499,727	3	-0,002
1501,821	2,5	-0,002
1503,915	2,5	-0,002
1506,015	3	-0,002
1508,109	3	-0,003
1510,208	3	-0,003
1512,296	2,5	-0,005
1514,396	2,5	-0,003
1516,496	2,5	-0,004
1518,584	3	-0,004
1520,684	3	-0,004
1522,778	3	-0,006
1524,872	3	-0,007
1526,965	3	-0,01
1529,059	3	-0,011
1531,159	3	-0,01
1533,253	2,5	-0,014
1535,347	2,5	-0,016
1537,453	3	-0,017
1539,547	2,5	-0,025
1541,647	2,5	-0,023
1543,74	2,5	-0,028
1545,834	2,5	-0,03
1547,934	2,5	-0,041
1550,028	2,5	-0,045
1552,122	2	-0,061
1554,216	1,5	-0,084
1556,31	2,5	-0,057
1558,41	2,5	-0,057
1560,503	1,5	-0,067
1562,597	2	-0,057
1564,697	2	-0,06
1566,798	2	-0,049
1568,903	2,5	-0,04
1570,997	2,5	-0,043
1573,091	2,5	-0,051
1575,191	2	-0,059
1577,291	2,5	-0,055
1579,384	2	-0,052
1581,478	2	-0,052
1583,578	3	-0,035
1585,672	2,5	-0,047
1587,766	2,5	-0,036
1589,872	2,5	-0,026
1591,966	3	-0,022
1594,072	3	-0,018
1596,165	3	-0,019
1598,265	3	-0,02
1600,365	3	-0,018
1602,465	3	-0,013
1604,559	3	-0,011
1606,653	3	-0,01
1608,741	2,5	-0,01
1610,835	2,5	-0,012
1612,935	3	-0,01
1615,034	3	-0,009
1617,128	2,5	-0,008
1619,222	3	-0,009
1621,316	3	-0,01
1623,418	3	-0,011
1625,51	3	-0,012
1627,604	3	-0,012
1629,698	3	-0,014
1631,797	3	-0,012
1633,897	3	-0,011
1635,997	3	-0,01
1638,097	3	-0,008
1640,197	3	-0,007
1642,291	3	-0,008
1644,385	3	-0,007
1646,479	3	-0,006
1648,579	3	-0,005
1650,678	3	-0,005
1652,772	3	-0,004
1654,866	3	-0,005
1656,966	3	-0,004
1659,066	3	-0,005
1661,16	3	-0,005
1663,266	3	-0,004
1665,36	3	-0,007
1667,453	3	-0,008
1669,559	3	-0,009
1671,659	3	-0,011
1673,753	3	-0,009
1675,847	3	-0,011
1677,941	3	-0,011
1680,041	3	-0,008
1682,141	3	-0,008
1684,235	3	-0,008
1686,328	3	-0,008
1688,422	3	-0,008
1690,522	3	-0,007
1692,622	3	-0,006
1694,71	2,5	-0,006
1696,804	2,5	-0,006
1698,904	3	-0,005
1700,991	3	-0,004
1703,085	3	-0,005
1705,185	3	-0,005
1707,279	2,5	-0,005
1709,379	3	-0,004
1711,473	3	-0,005
1713,567	3	-0,005
1715,667	3	-0,004
1717,761	3	-0,005
1719,854	3	-0,006
1721,96	3	-0,005
1724,048	3	-0,005
1726,142	3	-0,008
1728,242	3	-0,008
1730,33	3	-0,012
1732,424	3	-0,016
1734,518	3	-0,014
1736,611	2,5	-0,014
1738,705	2,5	-0,015
1740,805	2,5	-0,013
1742,893	3	-0,016
1744,987	3	-0,018
1747,087	3	-0,022
1749,181	3	-0,028
1751,281	2,5	-0,03
1753,38	2,5	-0,036
1755,474	3	-0,04
1757,574	2,5	-0,036
1759,668	2,5	-0,049
1761,762	2	-0,069
1763,862	2,5	-0,07
1765,956	2,5	-0,074
1768,05	2	-0,086
1770,15	1,5	-0,115
1772,243	1,5	-0,129
1774,337	1,5	-0,17
1776,437	0,5	-0,214
1778,531	0,5	-0,247
1780,625	0	-0,317
1782,725	0	-0,438
1784,819	0	-0,554
1786,919	0	-0,548
1789,012	0	-0,653
1791,106	-1	-0,769
1793,206	-1,5	-1,014
1795,3	-2,5	-1,16
1797,394	-2,5	-1,274
1799,488	-3	-1,4
1801,588	-4	-1,448
1803,688	-4,5	-1,554
1805,782	-4,5	-1,579
1807,875	-4	-1,603
1809,975	-4,5	-1,577
1812,069	-4,5	-1,618
1814,169	-4,5	-1,644
1816,263	-4,5	-1,648
1818,363	-5	-1,701
1820,457	-5	-1,763
1822,545	-5,5	-1,828
1824,644	-5,5	-1,817
1826,738	-5	-1,73
1828,832	-4,5	-1,681
1830,926	-4,5	-1,647
1833,02	-4	-1,534
1835,114	-3	-1,42
1837,208	-3	-1,413
1839,308	-3	-1,386
1841,401	-2,5	-1,234
1843,489	-2,5	-1,218
1845,589	-2	-1,208
1847,683	-2,5	-1,178
1849,789	-2,5	-1,21
1851,883	-2,5	-1,218
1853,977	-2	-1,079
1856,071	-1,5	-1,056
1858,165	-1,5	-0,978
1860,258	-1,5	-0,929
1862,358	-1	-0,893
1864,452	-1	-0,875
1866,546	-0,5	-0,75
1868,64	-1	-0,738
1870,734	-0,5	-0,709
1872,828	-0,5	-0,692
1874,928	0	-0,634
1877,021	-0,5	-0,605
1879,115	0	-0,645
1881,209	-0,5	-0,67
1883,309	0	-0,622
1885,403	0	-0,567
1887,509	0	-0,473
1889,609	0	-0,319
1891,703	0	-0,348
1893,802	0	-0,322
1895,896	0	-0,385
1897,99	0	-0,399
1900,09	0,5	-0,247
1902,184	0,5	-0,234
1904,278	0	-0,369
1906,378	0	-0,469
1908,472	0	-0,373
1910,566	0	-0,301
1912,659	0	-0,369
1914,759	0	-0,363
1916,853	0	-0,508
1918,947	0	-0,471
1921,047	0	-0,487
1923,141	0	-0,528
1925,241	-0,5	-0,559
1927,335	-0,5	-0,621
1929,428	-0,5	-0,694
1931,528	-1	-0,826
1933,628	-0,5	-0,81
1935,722	-1	-0,814
1937,822	-0,5	-0,783
1939,922	-0,5	-0,72
1942,022	-0,5	-0,734
1944,116	-1	-0,77
1946,221	-0,5	-0,709
1948,315	-0,5	-0,728
1950,409	-0,5	-0,784
1952,503	-0,5	-0,791
1954,603	-1	-0,904
1956,697	-1,5	-0,944
1958,791	-1,5	-1,07
1960,891	-2	-1,177
1962,985	-2,5	-1,271
1965,084	-3	-1,329
1967,184	-3	-1,341
1969,278	-3	-1,37
1971,378	-3,5	-1,439
1973,478	-3	-1,414
1975,566	-3,5	-1,51
1977,66	-3,5	-1,54
1979,76	-4,5	-1,72
1981,847	-5	-1,765
1983,941	-4,5	-1,714
1986,035	-6	-1,952
1988,129	-6,5	-2,035
1990,223	-8	-2,225
1992,323	-9	-2,373
1994,417	-10,5	-2,526
1996,511	-10,5	-2,498
1998,611	-10	-2,481
2000,704	-11	-2,608
2002,792	-12,5	-2,72
2004,892	-13	-2,779
2006,992	-13,5	-2,811
2009,086	-13,5	-2,856
2011,186	-14	-2,92
2013,28	-15	-3,046
2015,373	-16,5	-3,141
2017,467	-16,5	-3,204
2019,567	-16,5	-3,188
2021,661	-16,5	-3,263
2023,755	-16,5	-3,355
2025,855	-16,5	-3,418
2027,949	-16,5	-3,45
2030,043	-16,5	-3,46
2032,143	-16,5	-3,499
2034,242	-16,5	-3,5
2036,336	-16,5	-3,499
2038,436	-16,5	-3,5
2040,524	-16,5	-3,499
2042,618	-16,5	-3,499
2044,718	-16,5	-3,499
2046,818	-16,5	-3,499
2048,912	-16,5	-3,498
2051,005	-16	-3,497
2053,105	-16,5	-3,498
2055,211	-16	-3,498
2057,305	-16	-3,498
2059,411	-15,5	-3,498
2061,505	-16	-3,498
2063,599	-15,5	-3,497
2065,693	-15,5	-3,497
2067,793	-15,5	-3,496
2069,892	-15,5	-3,496
2071,986	-15,5	-3,496
2074,086	-15,5	-3,495
2076,18	-15,5	-3,495
2078,28	-15,5	-3,495
2080,374	-15,5	-3,494
2082,48	-15,5	-3,494
2084,574	-15,5	-3,494
2086,667	-15,5	-3,494
2088,767	-15,5	-3,495
2090,855	-15,5	-3,495
2092,949	-15,5	-3,492
2095,055	-15,5	-3,492
2097,143	-15,5	-3,492
2099,237	-15,5	-3,491
2101,337	-15	-3,488
2103,436	-15	-3,486
2105,53	-15	-3,486
2107,63	-15	-3,488
2109,73	-15	-3,483
2111,824	-15	-3,481
2113,918	-15	-3,478
2116,018	-15	-3,475
2118,112	-15	-3,468
2120,206	-15	-3,467
2122,305	-15	-3,473
2124,399	-15	-3,455
2126,487	-14,5	-3,447
2128,581	-15	-3,445
2130,681	-14,5	-3,429
2132,775	-13,5	-3,392
2134,869	-13,5	-3,375
2136,969	-13,5	-3,381
2139,062	-13	-3,38
2141,156	-13,5	-3,377
2143,262	-13,5	-3,397
2145,356	-13,5	-3,368
2147,456	-13	-3,368
2149,556	-14	-3,397
2151,65	-14	-3,396
2153,744	-13,5	-3,393
2155,837	-12,5	-3,326
2157,937	-11,5	-3,265
2160,031	-11,5	-3,25
2162,131	-11	-3,172
2164,231	-10	-3,182
2166,325	-10	-3,137
2168,419	-9,5	-3,037
2170,519	-9,5	-3,048
2172,613	-9,5	-3,024
2174,706	-9	-2,93
2176,8	-8	-2,814
2178,894	-8	-2,785
2180,988	-8	-2,738
2183,082	-7	-2,666
2185,176	-7	-2,652
2187,276	-7	-2,588
2189,37	-6,5	-2,531
2191,475	-6	-2,51
2193,575	-6,5	-2,566
2195,669	-6,5	-2,532
2197,763	-5,5	-2,482
2199,863	-5,5	-2,444
2201,963	-5,5	-2,407
2204,063	-5	-2,337
2206,163	-5	-2,326
2208,251	-5	-2,24
2210,344	-4,5	-2,157
2212,444	-4,5	-2,097
2214,538	-4	-2,032
2216,632	-4	-1,996
2218,732	-4	-1,99
2220,826	-3,5	-1,976
2222,92	-3	-1,91
2225,014	-3	-1,841
2227,107	-3	-1,716
2229,207	-2,5	-1,6
2231,301	-2	-1,51
2233,389	-2	-1,435
2235,489	-2	-1,355
2237,583	-1,5	-1,086
2239,677	-1	-1,061
2241,777	-1	-0,96
2243,87	-1	-0,91
2245,97	-0,5	-0,903
2248,064	-0,5	-0,825
2250,164	-0,5	-0,792
2252,258	0	-0,732
2254,352	0	-0,75
2256,446	0	-0,704
2258,54	0,5	-0,605
2260,628	1,5	-0,465
2262,727	1,5	-0,417
2264,827	2	-0,363
2266,915	3	-0,225
2269,009	3	-0,019
2271,109	2,5	0
2273,203	2,5	0
2275,297	3	-0,001
2277,391	3	-0,001
2279,484	3	-0,002
2281,578	3	-0,003
2283,672	3	-0,004
2285,772	3	-0,004
2287,866	3	-0,006
2289,96	3	-0,008
2292,048	3	-0,011
2294,148	3	-0,012
2296,241	3	-0,013
2298,341	3	-0,016
2300,435	3	-0,019
2302,529	3	-0,028
2304,623	2,5	-0,031
2306,723	2,5	-0,042
2308,817	2	-0,063
2310,917	2	-0,06
2313,01	2	-0,06
2315,11	2	-0,07
2317,204	1,5	-0,09
2319,304	1,5	-0,088
2321,398	1,5	-0,107
2323,516	2	-0,104
2325,61	1,5	-0,156
2327,704	0,5	-0,219
2329,798	1	-0,289
2331,897	0,5	-0,31
2333,991	0	-0,384
2336,085	0	-0,504
2338,179	0	-0,583
2340,273	0	-0,739
2342,367	0	-0,775
2344,461	0	-0,804
2346,561	0	-0,847
2348,654	-0,5	-0,914
2350,749	-0,5	-1,067
2352,836	-1	-1,217
2354,93	-1,5	-1,284
2357,024	-2	-1,478
2359,112	-2,5	-1,554
2361,212	-3	-1,64
2363,306	-3	-1,734
2365,4	-3,5	-1,806
2367,493	-3	-1,821
2369,593	-3,5	-1,815
2371,687	-4	-1,924
2373,781	-4,5	-2,06
2375,875	-5	-2,182
2377,975	-5	-2,229
2380,063	-6	-2,316
2382,163	-5,5	-2,248
2384,257	-5,5	-2,25
2386,356	-5,5	-2,255
2388,45	-5,5	-2,21
2390,544	-5,5	-2,22
2392,644	-6	-2,326
2394,738	-6	-2,335
2396,832	-6,5	-2,359
2398,926	-6	-2,294
2401,02	-6,5	-2,345
2403,119	-6	-2,287
2405,213	-5,5	-2,307
2407,313	-5,5	-2,291
2409,413	-5,5	-2,264
2411,507	-6	-2,348
2413,601	-7	-2,441
2415,689	-6,5	-2,428
2417,783	-7	-2,451
2419,876	-6	-2,423
2421,97	-7,5	-2,469
2424,07	-6	-2,4
2426,17	-6	-2,384
2428,264	-6,5	-2,419
2430,358	-7	-2,508
2432,458	-7,5	-2,588
2434,552	-8,5	-2,692
2436,645	-9,5	-2,779
2438,751	-9	-2,787
2440,845	-10,5	-2,865
2442,945	-11,5	-2,977
2445,039	-11,5	-3,002
2447,133	-12	-3,08
2449,227	-12	-3,046
2451,321	-12	-3,081
2453,427	-12,5	-3,056
2455,514	-12	-3,133
2457,614	-11,5	-3,096
2459,708	-12	-3,148
2461,814	-11,5	-3,08
2463,908	-11,5	-3,024
2466,008	-10,5	-3,004
2468,102	-11	-3,007
2470,201	-10,5	-2,927
2472,295	-10	-2,924
2474,389	-10	-2,97
2476,483	-11,5	-3,055
2478,583	-11	-2,996
2480,677	-9,5	-2,904
2482,771	-9	-2,848
2484,865	-9,5	-2,862
2486,965	-9	-2,761
2489,058	-8	-2,722
2491,152	-7,5	-2,693
2493,246	-6,5	-2,618
2495,346	-6,5	-2,6
2497,44	-7,5	-2,615
2499,534	-7,5	-2,678
2501,634	-7,5	-2,694
2503,728	-7,5	-2,744
2505,821	-8	-2,71
2507,915	-7,5	-2,688
2510,009	-7	-2,685
2512,109	-6,5	-2,649
2514,197	-6,5	-2,634
2516,291	-5,5	-2,53
2518,385	-5,5	-2,498
2520,485	-4,5	-2,384
2522,579	-5	-2,34
2524,672	-4,5	-2,329
2526,778	-4	-2,192
2528,872	-3,5	-2,164
2530,972	-3,5	-2,116
2533,066	-3	-2,055
2535,166	-2,5	-1,975
2537,26	-3	-2,022
2539,36	-2,5	-1,904
2541,459	-2,5	-1,925
2543,553	-2,5	-1,886
2545,647	-2	-1,843
2547,741	-2	-1,787
2549,841	-2	-1,755
2551,935	-1,5	-1,69
2554,029	-1,5	-1,699
2556,129	-1	-1,656
2558,216	-1	-1,608
2560,31	-1	-1,582
2562,41	-1	-1,58
2564,498	-1	-1,588
2566,598	-1	-1,529
2568,686	-0,5	-1,494
2570,78	-0,5	-1,418
2572,874	-0,5	-1,389
2574,968	0	-1,265
2577,061	0	-1,144
2579,161	0	-1,06
2581,255	0	-0,926
2583,349	0	-0,908
2585,449	0	-0,854
2587,543	0	-0,88
2589,643	0,5	-0,838
2591,737	0	-0,835
2593,837	0	-0,834
2595,936	0	-0,824
2598,036	0	-0,734
2600,13	0,5	-0,631
2602,224	0,5	-0,55
2604,324	1	-0,507
2606,418	0,5	-0,426
2608,506	1	-0,315
2610,611	1,5	-0,204
2612,705	1,5	-0,174
2614,799	1,5	-0,145
2616,893	2	-0,116
2618,999	2,5	-0,082
2621,093	2,5	-0,072
2623,181	2,5	-0,083
2625,275	2	-0,074
2627,375	2,5	-0,049
2629,474	3	-0,028
2631,568	3	-0,023
2633,662	3	-0,018
2635,762	3	-0,018
2637,856	3	-0,015
2639,95	3	-0,014
2642,044	3	-0,011
2644,144	3	-0,008
2646,237	3	-0,006
2648,331	3	-0,005
2650,437	3	-0,002
2652,531	3,5	-0,002
2654,625	3	-0,002
2656,719	3	-0,002
2658,819	3	-0,001
2660,913	3	-0,001
2663,007	3	-0,001
2665,1	3	0
2667,206	3	-0,019
2669,294	3	-0,102
2671,394	3	-0,212
2673,488	2,5	-0,29
2675,588	3	-0,273
2677,682	2,5	-0,345
2679,776	2	-0,377
2681,881	2	-0,441
2683,975	2	-0,4
2686,069	2,5	-0,364
2688,163	2	-0,361
2690,263	2,5	-0,426
2692,357	1,5	-0,502
2694,445	1,5	-0,49
2696,551	1,5	-0,557
2698,644	0,5	-0,634
2700,738	0,5	-0,651
2702,838	0,5	-0,635
2704,932	0,5	-0,696
2707,026	0	-0,862
2709,12	-0,5	-0,982
2711,214	-0,5	-1,052
2713,308	-0,5	-1,051
2715,402	-0,5	-1,062
2717,501	-0,5	-1,056
2719,595	-0,5	-1,16
2721,695	-1	-1,271
2723,789	-1	-1,267
2725,889	-1	-1,454
2727,983	-1	-1,466
2730,089	-1,5	-1,63
2732,177	-1,5	-1,644
2734,27	-1,5	-1,715
2736,364	-1,5	-1,844
2738,47	-2	-1,922
2740,564	-2	-2,041
2742,664	-2,5	-2,147
2744,758	-2,5	-2,202
2746,858	-2,5	-2,271
2748,952	-3	-2,326
2751,045	-3	-2,403
2753,145	-3	-2,499
2755,245	-3,5	-2,568
2757,339	-4	-2,67
2759,433	-4,5	-2,726
2761,533	-4,5	-2,87
2763,627	-4,5	-2,817
2765,721	-4	-2,792
2767,815	-4,5	-2,806
2769,914	-4	-2,817
2772,008	-4,5	-2,872
2774,102	-4,5	-2,958
2776,196	-4,5	-3,049
2778,302	-5	-3,092
2780,42	-5	-3,24
2782,514	-5,5	-3,224
2784,614	-6,5	-3,319
2786,707	-7,5	-3,364
2788,801	-6	-3,371
2790,901	-7,5	-3,401
2793,001	-8	-3,429
2795,089	-7,5	-3,402
2797,183	-7,5	-3,421
2799,277	-8,5	-3,44
2801,371	-9	-3,458
2803,471	-9	-3,463
2805,558	-8,5	-3,473
2807,664	-9	-3,48
2809,758	-9	-3,486
2811,852	-9	-3,488
2813,952	-9	-3,49
2816,046	-9	-3,491
2818,152	-9	-3,494
2820,246	-9,5	-3,495
2822,339	-9,5	-3,497
2824,433	-9,5	-3,497
2826,533	-9	-3,498
2828,621	-9,5	-3,498
2830,721	-9	-3,498
2832,815	-9	-3,498
2834,915	-9	-3,499
2837,009	-9	-3,499
2839,102	-9	-3,499
2841,196	-9	-3,5
2843,296	-9,5	-3,488
2845,39	-9,5	-3,425
2847,49	-9	-3,332
2849,59	-9,5	-3,248
2851,69	-9	-3,189
2853,784	-8	-3,074
2855,878	-8	-3,035
2857,977	-8	-2,998
2860,071	-7,5	-3,017
2862,165	-6,5	-2,945
2864,259	-6,5	-2,896
2866,353	-6	-2,815
2868,447	-5,5	-2,78
2870,547	-4,5	-2,68
2872,641	-5	-2,668
2874,74	-5	-2,609
2876,84	-3,5	-2,439
2878,94	-3,5	-2,423
2881,034	-3	-2,367
2883,134	-2,5	-2,191
2885,234	-2	-2,113
2887,328	-1,5	-1,967
2889,422	-1	-1,88
2891,515	-1,5	-1,824
2893,615	-1	-1,697
2895,709	-0,5	-1,642
2897,803	-0,5	-1,507
2899,903	0	-1,38
2902,003	0	-1,29
2904,097	0	-1,266
2906,191	0	-1,153
2908,285	0	-1,06
2910,39	0	-0,85
2912,484	0,5	-0,71
2914,578	0,5	-0,654
2916,678	0,5	-0,553
2918,772	0,5	-0,568
2920,866	0,5	-0,533
2922,972	0,5	-0,36
2925,06	1	-0,325
2927,159	1	-0,232
2929,253	1	-0,212
2931,347	1,5	-0,148
2933,447	1,5	-0,122
2935,547	2	-0,094
2937,641	2	-0,073
2939,735	2	-0,058
2941,835	2,5	-0,034
2943,935	3	-0,019
2946,022	3	-0,019
2948,116	3	-0,014
2950,21	3	-0,011
2952,31	3	-0,008
2954,416	3	-0,005
2956,51	3	-0,004
2958,61	3	-0,003
2960,71	3	-0,002
2962,803	3	-0,001
2964,897	3	-0,001
2967,003	3	-0,027
2969,097	3	-0,213
2971,191	3	-0,271
2973,279	2,5	-0,322
2975,379	2	-0,435
2977,473	1,5	-0,543
2979,566	0,5	-0,657
2981,666	0	-0,742
2983,76	0	-0,761
2985,86	0	-0,82
2987,948	0	-0,816
2990,042	0	-0,83
2992,136	0	-0,8
2994,242	0	-0,866
2996,335	0	-0,948
2998,435	0	-0,991
3000,529	0	-0,976
3002,629	0	-1,03
3004,729	-0,5	-1,088
3006,823	-0,5	-1,165
3008,911	0	-1,106
3010,999	-0,5	-1,135
3013,092	-0,5	-1,232
3015,18	-0,5	-1,242
3017,274	-0,5	-1,244
3019,374	-0,5	-1,345
3021,486	-0,5	-1,511
3023,58	-1	-1,588
3025,674	-1	-1,643
3027,768	-1	-1,713
3029,868	-1	-1,815
3031,961	-1	-1,716
3034,061	-1	-1,812
3036,155	-1,5	-1,887
3038,261	-1,5	-2,046
3040,355	-1,5	-2,09
3042,467	-2	-2,177
3044,561	-2	-2,2
3046,655	-2	-2,244
3048,748	-1,5	-2,214
3050,848	-1,5	-2,251
3052,942	-2	-2,327
3055,042	-2	-2,301
3057,136	-2,5	-2,313
3059,23	-2	-2,374
3061,324	-2,5	-2,423
3063,424	-2,5	-2,53
3065,524	-3	-2,636
3067,617	-3	-2,632
3069,711	-3	-2,687
3071,805	-3	-2,753
3073,905	-3,5	-2,865
3075,999	-4	-2,872
3078,099	-4	-2,973
3080,193	-4	-2,986
3082,293	-4,5	-3,087
3084,386	-4,5	-3,164
3086,48	-5	-3,207
3088,58	-5,5	-3,312
3090,686	-6	-3,364
3092,78	-6,5	-3,404
3094,88	-7	-3,426
3096,974	-7,5	-3,444
3099,074	-7,5	-3,443
3101,167	-7,5	-3,449
3103,261	-8	-3,455
3105,355	-7,5	-3,455
3107,461	-8	-3,47
3109,561	-8	-3,476
3111,655	-8	-3,48
3113,755	-8	-3,484
3115,849	-8	-3,486
3117,936	-8	-3,488
3120,03	-8,5	-3,49
3122,136	-8	-3,492
3124,236	-8	-3,493
3126,33	-8	-3,495
3128,424	-8	-3,496
3130,518	-8,5	-3,498
3132,612	-8	-3,498
3134,718	-8,5	-3,499
3136,805	-8,5	-3,499
3138,899	-8,5	-3,499
3140,993	-8	-3,499
3143,093	-8,5	-3,5
3144,101	3	-0,001