File: ensaios_Ciclicos/_newS/_4G30/entrada/_1.txt
Time (s)	Load (N)	Displacement (mm)
0	-0,22	-0,031
2,261	-2,8	-0,759
4,409	-3,26	-0,828
6,546	-3,48	-0,817
8,687	-3,82	-0,926
10,823	-2,68	-0,898
12,964	-4,24	-0,954
15,106	-4,54	-1,037
17,248	-4,64	-1,098
19,39	-4,36	-1,112
21,526	-5,26	-1,168
23,664	-4,52	-1,173
25,804	-5,64	-1,262
27,94	-4,8	-1,266
30,075	-4,72	-1,281
32,211	-5,08	-1,212
34,353	-4,36	-1,203
36,495	-4,96	-1,227
38,643	-4,9	-1,176
40,785	-4,02	-1,13
42,921	-2,76	-1,087
45,056	-3,52	-1,081
47,193	-3,04	-1,079
49,334	-3,5	-1,072
51,477	-3,02	-1,08
53,63	-4,2	-1,158
55,778	-4,12	-1,212
57,92	-4,46	-1,294
60,068	-5,54	-1,438
62,21	-5,84	-1,435
64,351	-5,54	-1,422
66,487	-4,32	-1,252
68,623	-4,64	-1,23
70,771	-5,46	-1,432
72,907	-4,54	-1,432
75,049	-4,64	-1,391
77,197	-5,28	-1,456
79,351	-5,86	-1,524
81,486	-5,18	-1,47
83,622	-4,98	-1,357
85,776	-5,5	-1,442
87,912	-5,4	-1,431
90,06	-6,18	-1,522
92,214	-6,1	-1,594
94,356	-6,72	-1,646
96,504	-7,52	-1,721
98,646	-7,5	-1,686
100,793	-7,48	-1,746
102,941	-7,74	-1,746
105,083	-7,9	-1,812
107,237	-8,72	-1,934
109,379	-10,54	-2,102
111,527	-10,86	-2,203
113,663	-11,5	-2,218
115,81	-11,4	-2,272
117,946	-11,74	-2,319
120,088	-12,1	-2,327
122,23	-12,26	-2,382
124,384	-13,02	-2,467
126,532	-13,14	-2,552
128,68	-12,92	-2,607
130,834	-13,6	-2,696
132,976	-14,9	-2,708
135,117	-16,16	-2,792
137,259	-15,48	-2,761
139,407	-16,82	-2,902
141,556	-16,66	-2,96
143,697	-17,12	-2,941
145,833	-16,46	-2,898
147,981	-17,64	-3
150,135	-17,64	-3,111
152,282	-18,98	-3,127
154,436	-20,38	-3,264
156,578	-20,44	-3,292
158,726	-21,2	-3,335
160,88	-23,16	-3,428
163,046	-23,74	-3,455
165,194	-24,16	-3,47
167,342	-24,38	-3,478
169,489	-24,48	-3,483
171,643	-24,6	-3,49
173,791	-24,58	-3,492
175,945	-24,64	-3,495
178,099	-24,64	-3,498
180,247	-24,6	-3,498
182,401	-24,54	-3,498
184,548	-24,42	-3,499
186,702	-24,4	-3,499
188,844	-24,4	-3,5
190,998	-24,34	-3,5
193,152	-24,32	-3,425
195,306	-24,28	-3,269
197,46	-23,94	-3,145
199,602	-23,8	-3,074
201,744	-22,14	-2,939
203,898	-19,54	-2,795
206,045	-19,46	-2,624
208,193	-16,06	-2,427
210,341	-15,3	-2,277
212,501	-14,3	-2,024
214,649	-12,1	-1,906
216,809	-11,24	-1,665
218,969	-8,06	-1,45
221,116	-6,56	-1,295
223,258	-10,6	-1,544
225,4	-7,54	-1,424
227,548	-6,48	-1,294
229,69	-5,68	-1,148
231,844	-4,08	-1,001
233,992	-2,08	-0,756
236,14	-1,46	-0,595
238,287	-0,52	-0,468
240,441	-0,88	-0,516
242,589	0,18	-0,367
244,737	1,78	-0,199
246,897	2,9	-0,096
249,045	3,64	-0,062
251,199	4,18	-0,034
253,347	4,38	-0,019
255,506	4,52	-0,012
257,648	4,54	-0,009
259,802	4,6	-0,007
261,956	4,62	-0,004
264,11	4,6	-0,002
266,264	4,6	-0,001
268,424	4,56	-0,126
270,572	4,56	-0,129
272,726	4,56	-0,32
274,881	3,84	-0,442
277,033	3,78	-0,467
279,187	4,6	-0,23
281,335	4,18	-0,36
283,483	2,98	-0,596
285,631	1,16	-0,698
287,785	3,44	-0,538
289,938	3,48	-0,456
292,08	4,28	-0,346
294,222	3,64	-0,412
296,382	4,66	-0,317
298,542	4,4	-0,32
300,696	4,68	-0,244
302,856	4,72	-0,09
305,01	4,74	-0,002
307,17	4,76	0
309,329	4,78	0
311,495	4,8	-0,001
313,649	4,82	-0,001
315,797	4,82	-0,001
317,945	4,84	-0,002
320,099	4,86	-0,003
322,247	4,88	-0,005
324,395	4,88	-0,008
326,548	4,88	-0,009
328,708	4,84	-0,012
330,862	4,68	-0,024
333,016	4,36	-0,046
335,17	3,5	-0,098
337,318	1,62	-0,205
339,472	1,28	-0,31
341,626	3,04	-0,126
343,779	3,56	-0,088
345,933	2,28	-0,153
348,087	2,7	-0,166
350,235	2,8	-0,129
352,383	3,58	-0,117
354,531	3,66	-0,092
356,691	4,6	-0,034
358,846	4,8	-0,026
360,986	4,9	-0,014
363,146	4,9	-0,015
365,3	4,88	-0,016
367,454	5	-0,006
369,605	5,02	-0,006
371,75	5,02	-0,002
373,898	5,02	-0,002
376,046	5,04	-0,002
378,199	5,04	-0,002
380,365	5,06	-0,003
382,507	5,08	-0,004
384,667	5,06	-0,002
386,827	5,06	-0,002
388,975	5,06	-0,002
391,135	5,06	-0,001
393,289	5,06	-0,001
395,448	5,06	-0,001
397,602	5,08	-0,001
399,756	5,12	-0,002
401,91	5,12	-0,002
404,064	5,14	-0,003
406,218	5,14	-0,003
408,366	5,16	-0,005
410,514	5,12	-0,009
412,668	5,16	-0,004
414,815	5,16	-0,006
416,969	5,18	-0,006
419,123	5,18	-0,006
421,277	5,18	-0,008
423,431	5,16	-0,009
425,585	5,12	-0,01
427,739	5,12	-0,019
429,892	5,04	-0,019
432,046	5,08	-0,016
434,206	5,18	-0,012
436,36	5,18	-0,012
438,508	5,14	-0,016
440,662	5,18	-0,014
442,816	5,18	-0,013
444,97	5,22	-0,01
447,124	5,18	-0,015
449,271	4,82	-0,034
451,413	3,52	-0,11
453,567	3,74	-0,096
455,721	4,1	-0,079
457,875	4,32	-0,064
460,037	3,76	-0,086
462,189	4,1	-0,072
464,343	4,54	-0,065
466,49	3,12	-0,118
468,656	3,22	-0,164
470,804	1,96	-0,231
472,958	1,36	-0,389
475,118	-0,18	-0,586
477,266	-1,22	-0,694
479,414	-1,4	-0,731
481,568	-2,14	-0,855
483,716	-1,74	-0,828
485,869	-1,38	-0,754
488,035	-1,04	-0,732
490,201	-0,7	-0,7
492,355	-0,84	-0,728
494,503	-0,8	-0,716
496,645	-1,34	-0,751
498,805	-0,66	-0,626
500,952	0,26	-0,487
503,1	0,7	-0,332
505,254	3,32	-0,167
507,408	3,36	-0,121
509,562	4,5	-0,073
511,716	5,04	-0,037
513,864	5,2	-0,026
516,012	5,32	-0,013
518,159	5,32	-0,018
520,319	5,42	-0,008
522,479	5,44	-0,006
524,645	5,44	-0,002
526,805	5,42	-0,002
528,953	5,42	-0,001
531,101	5,4	-0,001
533,249	5,42	0
535,408	5,38	-0,206
537,556	4,12	-0,494
539,704	3,2	-0,58
541,858	1,52	-0,77
544,006	1,56	-0,829
546,154	-0,2	-1,006
548,314	-1,64	-1,21
550,468	-1,24	-1,248
552,621	-1,98	-1,297
554,775	-2,6	-1,343
556,929	-2,3	-1,385
559,089	-2,98	-1,452
561,249	-4,18	-1,672
563,415	-3,62	-1,635
565,563	-4,72	-1,706
567,711	-6,44	-1,923
569,865	-6,78	-2,066
572,018	-8,06	-2,155
574,166	-7,52	-2,161
576,32	-8,86	-2,255
578,462	-8,16	-2,205
580,628	-7,8	-2,153
582,788	-7,9	-2,197
584,942	-7,12	-2,1
587,095	-7,62	-2,184
589,249	-7,78	-2,131
591,409	-6,04	-2,047
593,563	-6,52	-2,035
595,723	-5,22	-1,814
597,871	-5,8	-1,868
600,025	-6,48	-1,99
602,179	-7,14	-2,084
604,333	-8,02	-2,12
606,48	-7,52	-2,132
608,634	-9,28	-2,301
610,782	-8,36	-2,355
612,95	-10,8	-2,522
615,096	-11,38	-2,585
617,25	-12,32	-2,695
619,416	-13,76	-2,85
621,57	-14,96	-2,992
623,723	-15,32	-3,06
625,883	-16,2	-3,19
628,037	-16,36	-3,2
630,191	-16,44	-3,134
632,345	-16,36	-3,221
634,487	-17,8	-3,233
636,641	-16,82	-3,232
638,795	-16,58	-3,212
640,943	-16,12	-3,162
643,108	-18,32	-3,317
645,262	-19,28	-3,372
647,422	-18,94	-3,405
649,57	-20,5	-3,437
651,742	-20,98	-3,457
653,896	-21,38	-3,456
656,056	-21,5	-3,459
658,203	-21,52	-3,458
660,357	-21,6	-3,466
662,505	-21,82	-3,474
664,653	-22,02	-3,484
666,813	-22,14	-3,492
668,979	-22,16	-3,495
671,139	-22,18	-3,496
673,293	-22,16	-3,498
675,447	-22,18	-3,499
677,6	-22,16	-3,499
679,754	-22,14	-3,499
681,908	-22,16	-3,499
684,074	-22,12	-3,499
686,222	-22,1	-3,5
688,364	-22,08	-3,497
690,518	-22,1	-3,413
692,671	-22,08	-3,264
694,837	-22,04	-3,321
696,985	-22,04	-3,497
699,127	-22,06	-3,432
701,287	-21,56	-3,175
703,435	-20,44	-2,983
705,583	-19,78	-3,03
707,737	-20,06	-2,925
709,89	-20,8	-3,08
712,044	-20,54	-3,06
714,192	-22,02	-3,166
716,346	-20,4	-3,055
718,494	-21,46	-3,103
720,642	-20,08	-3,059
722,796	-21,64	-3,13
724,95	-21,96	-3,196
727,11	-20,26	-3,027
729,257	-20,04	-2,919
731,417	-18,18	-2,811
733,577	-17,02	-2,68
735,725	-15,28	-2,606
737,885	-13,52	-2,38
740,039	-12,94	-2,291
742,187	-11,58	-2,178
744,34	-10,54	-2,063
746,494	-9,32	-1,904
748,648	-8,1	-1,762
750,802	-6,3	-1,604
752,95	-5,1	-1,369
755,098	-3,62	-1,261
757,251	-3,4	-1,13
759,4	-3,04	-1,109
761,554	-2,6	-1,019
763,708	-1,86	-0,909
765,861	-0,66	-0,788
768,009	-0,4	-0,686
770,169	0,18	-0,625
772,329	1	-0,469
774,483	1,58	-0,375
776,649	3,38	-0,167
778,803	4,84	-0,073
780,956	5,36	-0,054
783,11	4,92	-0,064
785,258	5,52	-0,035
787,406	5,42	-0,042
789,554	5	-0,056
791,708	4,96	-0,073
793,856	5,34	-0,054
796,01	4,74	-0,069
798,163	5,26	-0,057
800,317	4,96	-0,073
802,465	4,5	-0,103
804,619	4,48	-0,088
806,773	4,86	-0,088
808,927	4,34	-0,092
811,081	3,98	-0,143
813,229	3,52	-0,145
815,388	3,88	-0,137
817,536	3,34	-0,2
819,684	3,18	-0,163
821,838	5,06	-0,071
823,992	5,22	-0,044
826,146	5,74	-0,023
828,294	5,76	-0,026
830,448	5,92	-0,012
832,608	5,98	-0,006
834,761	5,98	-0,003
836,909	5,96	-0,009
839,063	5,96	-0,008
841,211	5,96	-0,008
843,359	6	-0,006
845,507	6	-0,004
847,661	6	-0,002
849,814	5,96	-0,001
851,974	5,94	0
854,128	5,96	-0,001
856,276	5,96	-0,001
858,424	5,96	-0,001
860,578	5,94	0
862,738	5,92	-0,009
864,886	5,92	-0,179
867,033	5,94	-0,089
869,181	5,94	0
871,347	5,94	-0,231
873,495	5,9	-0,227
875,643	5,46	-0,395
877,797	3,32	-0,622
879,945	2,58	-0,809
882,093	1,12	-0,879
884,247	1,02	-0,963
886,394	0,44	-1,054
888,548	0,04	-1,143
890,702	-0,56	-1,201
892,844	-1,66	-1,325
894,992	-1,96	-1,5
897,14	-3,84	-1,657
899,294	-4,24	-1,741
901,448	-4,24	-1,756
903,601	-4,28	-1,782
905,749	-4,84	-1,856
907,921	-7,02	-2,157
910,069	-7,8	-2,238
912,211	-8,3	-2,262
914,365	-8,12	-2,357
916,519	-9,54	-2,467
918,661	-10,6	-2,599
920,82	-10,48	-2,68
922,962	-10,96	-2,672
925,11	-11,92	-2,763
927,264	-11,52	-2,836
929,412	-13,48	-2,932
931,566	-13,56	-2,963
933,714	-15	-3,086
935,868	-16,52	-3,245
938,009	-15,24	-3,275
940,157	-17,02	-3,309
942,305	-17,54	-3,336
944,459	-18,28	-3,374
946,613	-19,36	-3,392
948,767	-20,08	-3,421
950,915	-19,82	-3,43
953,069	-20,16	-3,446
955,222	-20,84	-3,47
957,376	-21,26	-3,481
959,53	-21,24	-3,485
961,678	-21,42	-3,489
963,832	-21,5	-3,494
965,974	-21,52	-3,496
968,134	-21,52	-3,497
970,294	-21,52	-3,498
972,453	-21,5	-3,499
974,607	-21,5	-3,499
976,767	-21,48	-3,499
978,915	-21,5	-3,5
981,075	-21,48	-3,497
983,217	-21,46	-3,394
985,383	-21,28	-3,268
987,531	-21,46	-3,284
989,69	-20,72	-3,15
991,85	-20,04	-3,099
993,998	-19,86	-3,012
996,152	-19,62	-2,97
998,3	-17,56	-2,906
1000,46	-17,66	-2,786
1002,614	-16,8	-2,772
1004,768	-15,52	-2,655
1006,922	-13,52	-2,525
1009,075	-12,4	-2,302
1011,229	-12,44	-2,181
1013,389	-9,74	-2,046
1015,531	-9,24	-1,952
1017,685	-7,76	-1,854
1019,845	-6,74	-1,69
1021,993	-6,8	-1,6
1024,147	-5,5	-1,527
1026,3	-4,4	-1,433
1028,454	-4,62	-1,344
1030,608	-3,78	-1,296
1032,756	-3,48	-1,189
1034,904	-1,48	-0,986
1037,058	-0,78	-0,813
1039,2	-0,06	-0,706
1041,354	0,22	-0,609
1043,501	1,04	-0,586
1045,655	1,08	-0,476
1047,815	2,52	-0,289
1049,963	2,9	-0,264
1052,123	4,44	-0,14
1054,277	4,64	-0,091
1056,437	5,48	-0,045
1058,591	5,94	-0,028
1060,75	6	-0,023
1062,904	6,2	-0,012
1065,058	6,22	-0,007
1067,2	6,24	-0,005
1069,354	6,26	-0,004
1071,514	6,24	-0,002
1073,668	6,24	-0,002
1075,816	6,26	-0,001
1077,969	6,24	-0,001
1080,123	6,22	0
1082,271	6,22	0
1084,425	6,2	-0,022
1086,585	6,18	-0,182
1088,727	6,2	-0,18
1090,881	6,2	-0,218
1093,035	6,18	-0,26
1095,183	5,68	-0,31
1097,342	5,04	-0,479
1099,49	4,36	-0,543
1101,638	3,32	-0,645
1103,786	2,96	-0,799
1105,934	1,8	-0,94
1108,088	0,68	-1,087
1110,242	-0,68	-1,214
1112,389	-0,6	-1,294
1114,537	-2,46	-1,47
1116,685	-2,7	-1,571
1118,851	-3,92	-1,764
1121,005	-4,72	-2,002
1123,165	-7,38	-2,254
1125,307	-7,98	-2,385
1127,461	-9,14	-2,58
1129,614	-10,72	-2,691
1131,762	-10,34	-2,717
1133,91	-10,82	-2,878
1136,064	-12,14	-2,952
1138,212	-12,24	-3,063
1140,36	-13,96	-3,236
1142,508	-15,38	-3,304
1144,668	-16,72	-3,376
1146,828	-17,58	-3,405
1148,981	-18,12	-3,43
1151,141	-18,8	-3,456
1153,289	-18,8	-3,467
1155,443	-19	-3,477
1157,585	-19,06	-3,482
1159,745	-19,18	-3,49
1161,887	-19,16	-3,491
1164,041	-19,14	-3,493
1166,182	-19,1	-3,494
1168,33	-19	-3,497
1170,484	-18,92	-3,497
1172,638	-18,84	-3,498
1174,798	-18,78	-3,499
1176,958	-18,7	-3,499
1179,106	-18,66	-3,5
1181,26	-18,6	-3,5
1183,402	-18,54	-3,42
1185,555	-18,5	-3,178
1187,715	-16	-2,951
1189,875	-13,98	-2,805
1192,017	-12,68	-2,632
1194,165	-10,3	-2,381
1196,319	-8,58	-2,175
1198,461	-6,96	-2,003
1200,614	-5,74	-1,783
1202,768	-5,14	-1,713
1204,922	-3,82	-1,517
1207,076	-2,66	-1,406
1209,218	-2,46	-1,324
1211,372	-1,3	-1,192
1213,526	-0,46	-0,991
1215,68	0,54	-0,79
1217,833	1,1	-0,68
1219,975	1,92	-0,56
1222,129	2,72	-0,407
1224,289	4,02	-0,221
1226,455	5,04	-0,093
1228,609	5,7	-0,064
1230,769	5,84	-0,047
1232,923	6,02	-0,032
1235,076	6,18	-0,021
1237,224	6,26	-0,015
1239,378	6,3	-0,01
1241,52	6,34	-0,007
1243,68	6,34	-0,004
1245,834	6,32	-0,002
1247,994	6,3	-0,001
1250,136	6,3	-0,001
1252,289	6,28	0
1254,449	6,26	-0,126
1256,603	6	-0,316
1258,751	6,02	-0,424
1260,899	4,42	-0,542
1263,059	3,04	-0,783
1265,213	0,84	-1,001
1267,355	1,86	-1,046
1269,509	-0,58	-1,232
1271,656	-0,7	-1,348
1273,81	-1,8	-1,47
1275,952	-2,14	-1,547
1278,106	-3,2	-1,695
1280,272	-3,88	-1,897
1282,426	-5,08	-2,039
1284,58	-5,34	-2,235
1286,734	-6,62	-2,388
1288,887	-7,94	-2,541
1291,047	-8,76	-2,707
1293,213	-9,46	-2,906
1295,373	-11,3	-3,124
1297,515	-12,08	-3,202
1299,681	-13,22	-3,348
1301,829	-14,98	-3,405
1303,979	-15,12	-3,434
1306,124	-15,9	-3,45
1308,278	-16,1	-3,468
1310,438	-16,26	-3,481
1312,598	-16,3	-3,488
1314,746	-16,36	-3,489
1316,9	-16,4	-3,492
1319,048	-16,38	-3,493
1321,196	-16,36	-3,494
1323,35	-16,32	-3,497
1325,497	-16,28	-3,498
1327,651	-16,24	-3,499
1329,805	-16,14	-3,499
1331,959	-16,12	-3,5
1334,101	-16,06	-3,354
1336,255	-16	-3,198
1338,403	-14,8	-3,106
1340,556	-14,3	-3,006
1342,698	-13,44	-2,891
1344,846	-12,7	-2,826
1346,994	-11,74	-2,746
1349,154	-10,14	-2,6
1351,314	-8,74	-2,395
1353,462	-8,48	-2,262
1355,622	-6,02	-2,1
1357,769	-5,36	-2,009
1359,923	-4,66	-1,889
1362,065	-4,12	-1,833
1364,213	-4,5	-1,81
1366,367	-3,4	-1,7
1368,521	-2,96	-1,61
1370,669	-2,62	-1,557
1372,817	-2,48	-1,434
1374,964	-1,44	-1,343
1377,118	-0,56	-1,216
1379,26	-0,6	-1,18
1381,414	-0,26	-1,07
1383,568	0,12	-0,971
1385,716	0,32	-0,922
1387,864	0,38	-0,826
1390,012	1,22	-0,73
1392,159	0,6	-0,692
1394,313	1,54	-0,655
1396,455	1,86	-0,598
1398,603	2,48	-0,488
1400,757	3,36	-0,365
1402,905	3,56	-0,25
1405,053	3,64	-0,193
1407,207	4,24	-0,148
1409,354	4,44	-0,129
1411,508	4,98	-0,103
1413,664	5,34	-0,075
1415,81	5,76	-0,044
1417,958	6,02	-0,034
1420,112	6,02	-0,024
1422,26	6,18	-0,016
1424,408	6,22	-0,01
1426,562	6,24	-0,006
1428,715	6,24	-0,003
1430,869	6,24	-0,002
1433,011	6,24	-0,002
1435,165	6,22	-0,001
1437,319	6,2	-0,001
1439,473	6,2	0
1441,615	6,18	-0,026
1443,775	6,16	-0,163
1445,928	5,78	-0,305
1448,082	5,74	-0,4
1450,23	5,2	-0,481
1452,378	3,98	-0,546
1454,538	3,7	-0,644
1456,686	2,88	-0,762
1458,834	2,18	-0,827
1460,982	1,16	-0,971
1463,135	0,26	-1,14
1465,289	0,04	-1,24
1467,431	-0,6	-1,312
1469,585	-1,34	-1,46
1471,739	-2,56	-1,676
1473,887	-3,04	-1,788
1476,035	-4,04	-1,97
1478,183	-4,24	-2,008
1480,336	-4,92	-2,177
1482,49	-5,42	-2,33
1484,644	-6,2	-2,419
1486,792	-6,48	-2,446
1488,958	-7,02	-2,643
1491,124	-8,38	-2,842
1493,272	-9,1	-2,868
1495,426	-8,86	-2,941
1497,573	-9,86	-3,006
1499,727	-10,04	-3,085
1501,881	-10,94	-3,22
1504,042	-12,32	-3,329
1506,183	-12,02	-3,344
1508,343	-13,06	-3,39
1510,497	-13,42	-3,41
1512,645	-13,84	-3,429
1514,804	-14,24	-3,458
1516,952	-14,66	-3,463
1519,106	-14,76	-3,473
1521,248	-14,76	-3,477
1523,402	-15	-3,487
1525,556	-14,98	-3,488
1527,704	-15	-3,491
1529,846	-14,98	-3,492
1531,993	-14,9	-3,493
1534,147	-14,98	-3,496
1536,301	-14,96	-3,496
1538,455	-14,92	-3,498
1540,597	-14,9	-3,498
1542,757	-14,84	-3,499
1544,899	-14,82	-3,499
1547,047	-14,8	-3,5
1549,201	-14,74	-3,451
1551,354	-14,72	-3,254
1553,508	-12,94	-3,056
1555,656	-12,1	-2,901
1557,816	-9,82	-2,686
1559,97	-10	-2,56
1562,112	-8,16	-2,494
1564,266	-6,86	-2,276
1566,414	-5,7	-2,133
1568,585	-4,86	-1,984
1570,727	-4,12	-1,881
1572,881	-3,16	-1,679
1575,035	-2,12	-1,533
1577,189	-1,2	-1,374
1579,331	-1,36	-1,362
1581,479	-0,84	-1,238
1583,633	-0,42	-1,128
1585,781	0,26	-0,95
1587,922	0,14	-0,928
1590,076	1,02	-0,779
1592,236	1,7	-0,639
1594,396	2,64	-0,376
1596,544	3,48	-0,211
1598,704	4,24	-0,112
1600,858	5,12	-0,072
1603,011	5,66	-0,048
1605,159	5,58	-0,04
1607,313	5,84	-0,031
1609,467	5,98	-0,019
1611,621	6	-0,014
1613,763	6,04	-0,012
1615,905	6,1	-0,008
1618,053	6,1	-0,006
1620,195	6,1	-0,005
1622,348	6,1	-0,003
1624,508	6,1	-0,002
1626,668	6,08	-0,001
1628,816	6,08	-0,001
1630,97	6,04	-0,002
1633,13	6,02	-0,236
1635,284	4,66	-0,44
1637,431	4,64	-0,483
1639,591	3,88	-0,624
1641,739	3,16	-0,693
1643,881	2,8	-0,802
1646,035	1,96	-0,882
1648,201	0,88	-1,042
1650,343	0,76	-1,028
1652,491	0,36	-1,114
1654,644	-0,1	-1,198
1656,798	-0,24	-1,276
1658,952	-0,62	-1,355
1661,106	-1,42	-1,456
1663,266	-1,84	-1,585
1665,42	-1,82	-1,652
1667,574	-2,48	-1,71
1669,722	-2,7	-1,771
1671,87	-2,92	-1,812
1674,017	-3,14	-1,893
1676,165	-3,7	-2,022
1678,313	-4,32	-2,171
1680,479	-6,02	-2,432
1682,633	-5,82	-2,511
1684,781	-6,26	-2,603
1686,947	-7,4	-2,782
1689,101	-8,4	-2,893
1691,254	-8,68	-2,993
1693,396	-8,52	-3,022
1695,55	-9,78	-3,159
1697,71	-11,08	-3,306
1699,864	-11,44	-3,34
1702,018	-12,52	-3,383
1704,166	-12,84	-3,427
1706,308	-13,12	-3,436
1708,461	-13,64	-3,454
1710,621	-13,9	-3,476
1712,775	-13,9	-3,48
1714,923	-13,92	-3,482
1717,071	-13,96	-3,489
1719,225	-14,08	-3,489
1721,373	-14,04	-3,49
1723,539	-14,1	-3,496
1725,692	-14,06	-3,497
1727,846	-14,04	-3,498
1729,994	-14,02	-3,499
1732,148	-13,96	-3,499
1734,296	-13,94	-3,499
1736,45	-13,92	-3,5
1738,61	-13,86	-3,388
1740,77	-13,86	-3,285
1742,923	-13,52	-3,192
1745,071	-13,82	-3,139
1747,225	-13,46	-3,151
1749,373	-13,8	-3,111
1751,521	-12,64	-3,052
1753,669	-12,6	-3,036
1755,823	-11,12	-2,854
1757,971	-10,24	-2,774
1760,125	-9,66	-2,665
1762,278	-7,86	-2,586
1764,432	-8,5	-2,459
1766,574	-6,62	-2,424
1768,716	-6,56	-2,353
1770,87	-5,42	-2,134
1773,012	-5,48	-2,069
1775,166	-4,26	-1,938
1777,313	-2,88	-1,772
1779,461	-3,18	-1,74
1781,615	-1,94	-1,529
1783,781	-1,1	-1,336
1785,947	-0,52	-1,166
1788,107	-0,08	-1,004
1790,249	0,48	-0,88
1792,409	1,26	-0,681
1794,569	1,62	-0,544
1796,71	2,08	-0,447
1798,864	2,62	-0,369
1801,018	3,22	-0,232
1803,16	3,82	-0,166
1805,314	4,22	-0,119
1807,468	4,52	-0,086
1809,622	5,16	-0,061
1811,764	4,6	-0,061
1813,923	5,42	-0,041
1816,077	5,58	-0,03
1818,225	5,6	-0,026
1820,379	5,78	-0,018
1822,527	5,84	-0,013
1824,681	5,86	-0,009
1826,829	5,88	-0,007
1828,989	5,9	-0,003
1831,136	5,9	-0,002
1833,284	5,88	-0,001
1835,438	5,86	-0,001
1837,598	5,86	0
1839,746	5,84	0
1841,9	5,84	-0,159
1844,048	5,52	-0,358
1846,208	4,56	-0,552
1848,355	3,24	-0,592
1850,509	2,6	-0,701
1852,663	2,04	-0,833
1854,811	1,3	-0,947
1856,965	1,02	-1,041
1859,119	0,08	-1,198
1861,279	-0,94	-1,388
1863,427	-0,88	-1,477
1865,58	-1,6	-1,604
1867,734	-1,98	-1,722
1869,882	-2,24	-1,764
1872,03	-2,94	-1,887
1874,19	-3,76	-2,146
1876,356	-4,36	-2,282
1878,498	-4,6	-2,328
1880,652	-5	-2,438
1882,805	-5,38	-2,556
1884,959	-6,12	-2,67
1887,107	-6,74	-2,772
1889,261	-7,14	-2,892
1891,415	-7,44	-2,992
1893,575	-8,72	-3,111
1895,717	-8,2	-3,087
1897,865	-8,52	-3,147
1900,019	-9,24	-3,214
1902,16	-8,92	-3,23
1904,32	-10,08	-3,332
1906,474	-10,28	-3,371
1908,628	-11,72	-3,42
1910,782	-11,52	-3,422
1912,936	-12,14	-3,438
1915,09	-12,66	-3,471
1917,243	-12,72	-3,476
1919,403	-12,84	-3,487
1921,569	-12,98	-3,492
1923,717	-12,94	-3,492
1925,865	-12,96	-3,494
1928,013	-12,94	-3,496
1930,161	-12,92	-3,497
1932,309	-12,9	-3,497
1934,456	-12,88	-3,497
1936,604	-12,84	-3,497
1938,764	-12,82	-3,498
1940,918	-12,78	-3,499
1943,06	-12,76	-3,499
1945,214	-12,72	-3,499
1947,368	-12,7	-3,5
1949,51	-12,68	-3,496
1951,664	-12,66	-3,395
1953,817	-12,62	-3,204
1955,977	-11,76	-3,046
1958,119	-9,66	-2,825
1960,273	-7,68	-2,634
1962,433	-7,24	-2,531
1964,581	-6,82	-2,42
1966,729	-5,84	-2,38
1968,877	-5,44	-2,23
1971,024	-4,62	-2,182
1973,166	-4,62	-2,116
1975,314	-3,84	-1,95
1977,468	-2,8	-1,797
1979,622	-2,52	-1,714
1981,776	-1,74	-1,481
1983,924	-0,94	-1,358
1986,072	-1	-1,288
1988,225	-0,5	-1,209
1990,373	-0,56	-1,135
1992,533	0,16	-0,951
1994,687	1	-0,77
1996,835	1,12	-0,644
1998,995	1,64	-0,529
2001,137	2,16	-0,405
2003,297	2,34	-0,306
2005,45	3,04	-0,222
2007,598	4,4	-0,113
2009,752	4,54	-0,07
2011,906	4,86	-0,064
2014,06	5,26	-0,045
2016,22	5,36	-0,03
2018,374	5,52	-0,018
2020,528	5,52	-0,014
2022,669	5,64	-0,01
2024,817	5,66	-0,01
2026,971	5,64	-0,008
2029,113	5,66	-0,006
2031,273	5,68	-0,003
2033,421	5,68	-0,002
2035,587	5,68	-0,002
2037,729	5,68	-0,001
2039,882	5,64	-0,001
2042,03	5,64	-0,003
2044,184	5,62	-0,132
2046,338	5,6	-0,167
2048,498	4,9	-0,351
2050,646	3,88	-0,554
2052,794	2,88	-0,751
2054,942	1,56	-0,87
2057,095	0,68	-1,007
2059,243	0,2	-1,124
2061,391	0	-1,189
2063,539	-0,08	-1,254
2065,699	-1,16	-1,468
2067,853	-1,42	-1,626
2070,007	-1,82	-1,758
2072,167	-2,62	-1,957
2074,315	-3,02	-1,958
2076,486	-3,52	-2,212
2078,64	-4,1	-2,317
2080,8	-4,52	-2,48
2082,954	-5,28	-2,584
2085,114	-5,1	-2,724
2087,274	-6,78	-2,86
2089,422	-7,08	-3,004
2091,576	-8,48	-3,185
2093,723	-8,32	-3,251
2095,871	-8,78	-3,316
2098,025	-9,6	-3,354
2100,179	-9,96	-3,394
2102,327	-10,38	-3,415
2104,493	-11,1	-3,448
2106,647	-11,48	-3,468
2108,801	-11,66	-3,473
2110,954	-11,88	-3,485
2113,102	-11,86	-3,486
2115,262	-11,9	-3,491
2117,404	-11,92	-3,492
2119,57	-11,92	-3,495
2121,718	-11,92	-3,497
2123,86	-11,9	-3,497
2126,014	-11,9	-3,498
2128,161	-11,88	-3,498
2130,303	-11,86	-3,499
2132,463	-11,82	-3,499
2134,617	-11,8	-3,5
2136,759	-11,8	-3,445
2138,919	-11,76	-3,283
2141,079	-11,02	-3,156
2143,233	-9,92	-3,003
2145,374	-9,42	-2,968
2147,522	-9,2	-2,845
2149,676	-7,78	-2,728
2151,818	-6,98	-2,63
2153,966	-6,6	-2,481
2156,132	-5,06	-2,315
2158,286	-5	-2,258
2160,428	-4,5	-2,164
2162,587	-4,18	-1,954
2164,735	-2,86	-1,853
2166,877	-2,4	-1,75
2169,025	-2,4	-1,659
2171,185	-1,48	-1,438
2173,327	-1,04	-1,334
2175,481	-0,46	-1,145
2177,629	0,3	-0,99
2179,776	0,66	-0,856
2181,936	0,98	-0,694
2184,09	1,62	-0,552
2186,232	2,14	-0,433
2188,38	2,06	-0,352
2190,534	2,76	-0,244
2192,676	3,42	-0,165
2194,824	3,64	-0,104
2196,978	4,28	-0,079
2199,119	4,78	-0,052
2201,273	5,06	-0,039
2203,439	5,18	-0,024
2205,581	5,3	-0,018
2207,747	5,46	-0,01
2209,901	5,44	-0,007
2212,049	5,46	-0,008
2214,203	5,48	-0,002
2216,368	5,48	-0,002
2218,516	5,48	-0,001
2220,658	5,46	-0,001
2222,806	5,44	-0,002
2224,96	5,44	-0,169
2227,114	5,42	-0,216
2229,262	4,98	-0,36
2231,416	4,7	-0,455
2233,557	4,18	-0,532
2235,711	3,26	-0,595
2237,859	3,38	-0,681
2240,007	1,92	-0,776
2242,161	2,06	-0,839
2244,315	1,18	-0,913
2246,457	1,26	-0,974
2248,623	0,4	-1,166
2250,782	-0,34	-1,316
2252,924	-0,28	-1,287
2255,078	-0,5	-1,372
2257,226	-0,68	-1,335
2259,38	-0,68	-1,462
2261,528	-1,46	-1,616
2263,688	-2,22	-1,837
2265,842	-2,2	-1,957
2267,989	-2,84	-2,092
2270,137	-3,1	-2,176
2272,285	-3,56	-2,306
2274,433	-3,18	-2,307
2276,599	-4,1	-2,477
2278,765	-4,5	-2,684
2280,907	-5,2	-2,708
2283,061	-5,52	-2,83
2285,214	-6,64	-3,015
2287,368	-6,68	-3,041
2289,516	-6,72	-3,061
2291,67	-7,88	-3,228
2293,812	-7,4	-3,206
2295,96	-8,68	-3,308
2298,108	-9,44	-3,38
2300,262	-10,16	-3,43
2302,403	-10,4	-3,441
2304,563	-10,86	-3,47
2306,705	-10,78	-3,47
2308,865	-10,76	-3,469
2311,019	-10,72	-3,471
2313,173	-10,78	-3,477
2315,327	-10,98	-3,484
2317,475	-11,02	-3,488
2319,628	-11,04	-3,488
2321,776	-11,02	-3,488
2323,93	-11,06	-3,491
2326,078	-11,06	-3,494
2328,232	-11,06	-3,495
2330,374	-11,06	-3,493
2332,528	-11,08	-3,495
2334,682	-11,08	-3,496
2336,83	-11,08	-3,497
2338,983	-11,06	-3,497
2341,137	-11,04	-3,498
2343,279	-11,02	-3,498
2345,433	-11,02	-3,498
2347,593	-11,02	-3,499
2349,753	-11	-3,499
2351,895	-10,98	-3,499
2354,055	-10,98	-3,499
2356,214	-10,96	-3,499
2358,356	-10,94	-3,5
2360,504	-10,94	-3,479
2362,658	-10,9	-3,35
2364,818	-10,4	-3,09
2366,966	-9,28	-2,958
2369,126	-7,98	-2,82
2371,28	-6,34	-2,63
2373,427	-6,38	-2,539
2375,575	-4,98	-2,363
2377,729	-4,86	-2,203
2379,871	-4,56	-2,154
2382,025	-3,7	-2,044
2384,173	-3,34	-1,941
2386,315	-2,76	-1,913
2388,475	-2,56	-1,809
2390,628	-2,04	-1,614
2392,77	-1,88	-1,584
2394,918	-0,94	-1,368
2397,078	-0,6	-1,198
2399,226	-0,26	-1,07
2401,374	0,16	-1,011
2403,528	0,38	-0,889
2405,67	0,14	-0,898
2407,823	0,7	-0,766
2409,977	1,24	-0,634
2412,119	1,38	-0,535
2414,267	1,68	-0,422
2416,427	2,12	-0,314
2418,569	2,68	-0,202
2420,723	3,4	-0,112
2422,877	3,98	-0,086
2425,018	4,56	-0,052
2427,178	4,94	-0,03
2429,326	4,9	-0,024
2431,474	5,12	-0,015
2433,622	5,14	-0,013
2435,77	5,06	-0,013
2437,924	5,22	-0,008
2440,072	5,24	-0,005
2442,232	5,24	-0,003
2444,385	5,24	-0,001
2446,527	5,24	-0,002
2448,675	5,22	-0,001
2450,841	5,22	0
2452,983	5,2	0
2455,137	5,2	0
2457,291	5,18	-0,148
2459,432	5,18	-0,227
2461,586	4,96	-0,366
2463,74	3,44	-0,525
2465,882	3,18	-0,591
2468,048	2,26	-0,789
2470,196	1,54	-0,854
2472,338	1,6	-0,835
2474,498	1,04	-0,965
2476,652	0,54	-1,048
2478,805	0,16	-1,207
2480,953	-0,46	-1,283
2483,101	-0,42	-1,379
2485,243	-0,6	-1,408
2487,409	-1,26	-1,594
2489,563	-1,54	-1,811
2491,717	-2,12	-1,932
2493,871	-2,6	-2,048
2496,024	-2,74	-2,132
2498,178	-3,22	-2,307
2500,326	-3,56	-2,43
2502,486	-4,24	-2,592
2504,64	-5,08	-2,766
2506,782	-5,04	-2,832
2508,936	-5,88	-2,97
2511,084	-6,46	-3,118
2513,225	-7,46	-3,276
2515,373	-8,26	-3,352
2517,527	-9,26	-3,405
2519,669	-9,4	-3,409
2521,823	-9,46	-3,446
2523,983	-10,14	-3,47
2526,125	-10,22	-3,474
2528,291	-10,52	-3,49
2530,444	-10,54	-3,494
2532,592	-10,56	-3,495
2534,752	-10,56	-3,496
2536,9	-10,56	-3,497
2539,048	-10,56	-3,498
2541,202	-10,54	-3,498
2543,362	-10,52	-3,499
2545,51	-10,52	-3,499
2547,663	-10,52	-3,499
2549,811	-10,5	-3,5
2551,953	-10,48	-3,497
2554,101	-10,48	-3,462
2556,255	-10,44	-3,322
2558,397	-10,46	-3,316
2560,551	-9,54	-3,13
2562,705	-9,08	-3,03
2564,846	-8,76	-3,006
2567	-9,04	-2,98
2569,154	-7,74	-2,87
2571,296	-7,52	-2,777
2573,45	-6,12	-2,603
2575,598	-5,76	-2,516
2577,758	-5,36	-2,349
2579,912	-4,3	-2,196
2582,065	-3,4	-2,037
2584,213	-3,06	-1,936
2586,361	-2,36	-1,724
2588,509	-1,96	-1,62
2590,669	-1,34	-1,454
2592,829	-1	-1,361
2594,971	-0,78	-1,299
2597,119	-0,64	-1,15
2599,273	-0,26	-1,083
2601,414	-0,06	-1,016
2603,568	0,32	-0,927
2605,728	0,52	-0,797
2607,87	0,76	-0,72
2610,024	1,36	-0,561
2612,184	2,2	-0,33
2614,332	2,46	-0,243
2616,486	2,38	-0,175
2618,639	2,86	-0,142
2620,787	3,66	-0,107
2622,935	3,76	-0,089
2625,083	4,06	-0,07
2627,225	4,24	-0,062
2629,379	4,52	-0,038
2631,545	4,9	-0,022
2633,693	4,9	-0,015
2635,852	5,06	-0,008
2637,994	5,06	-0,007
2640,142	5,08	-0,005
2642,302	5,1	-0,004
2644,444	5,08	-0,003
2646,604	5,1	-0,002
2648,752	5,08	-0,001
2650,9	5,08	-0,001
2653,06	5,08	0
2655,219	5,06	-0,142
2657,361	4,8	-0,253
2659,521	4,26	-0,39
2661,681	3,08	-0,59
2663,823	2,36	-0,65
2665,977	1,5	-0,798
2668,125	1,58	-0,874
2670,278	0,66	-1,016
2672,444	0,06	-1,171
2674,592	-0,02	-1,272
2676,74	-0,34	-1,327
2678,888	-0,54	-1,408
2681,036	-0,98	-1,551
2683,196	-1,68	-1,744
2685,35	-1,74	-1,818
2687,497	-2,14	-2,055
2689,657	-2,72	-2,157
2691,817	-3,2	-2,28
2693,959	-3,2	-2,272
2696,113	-3,22	-2,346
2698,273	-3,36	-2,432
2700,421	-4,1	-2,563
2702,569	-4,56	-2,716
2704,716	-4,72	-2,782
2706,87	-5,08	-2,902
2709,03	-6,1	-3,112
2711,196	-7,72	-3,298
2713,344	-7,26	-3,326
2715,498	-8,56	-3,394
2717,658	-9,42	-3,443
2719,806	-9,68	-3,46
2721,953	-9,98	-3,472
2724,095	-10	-3,475
2726,249	-10	-3,484
2728,397	-10,12	-3,488
2730,539	-10,14	-3,489
2732,699	-10,18	-3,493
2734,853	-10,18	-3,494
2736,995	-10,18	-3,494
2739,149	-10,18	-3,496
2741,302	-10,18	-3,497
2743,444	-10,16	-3,497
2745,592	-10,18	-3,497
2747,74	-10,16	-3,498
2749,894	-10,16	-3,498
2752,042	-10,16	-3,498
2754,184	-10,14	-3,499
2756,35	-10,12	-3,499
2758,509	-10,1	-3,5
2760,657	-10,08	-3,451
2762,811	-10,08	-3,317
2764,959	-9,74	-3,201
2767,107	-9,44	-3,091
2769,261	-9,06	-2,965
2771,409	-8,14	-2,858
2773,551	-6,86	-2,791
2775,71	-5,86	-2,635
2777,87	-5,64	-2,515
2780,024	-4,58	-2,336
2782,172	-4,22	-2,25
2784,314	-3,84	-2,108
2786,48	-3,04	-1,955
2788,634	-2,24	-1,78
2790,782	-2,1	-1,715
2792,929	-1,9	-1,656
2795,083	-1,48	-1,466
2797,237	-0,96	-1,344
2799,391	-0,3	-1,155
2801,551	0,08	-1,02
2803,711	0,8	-0,698
2805,853	1,32	-0,526
2808,013	1,44	-0,406
2810,173	2,68	-0,206
2812,32	3,14	-0,134
2814,48	4,14	-0,062
2816,628	4,16	-0,058
2818,782	3,84	-0,048
2820,936	4,62	-0,029
2823,084	4,68	-0,022
2825,232	4,8	-0,019
2827,391	4,9	-0,011
2829,533	4,94	-0,009
2831,687	4,96	-0,006
2833,841	4,94	-0,005
2835,983	4,96	-0,003
2838,137	4,98	-0,002
2840,303	4,98	-0,001
2842,445	4,96	0
2844,604	4,96	-0,003
2846,752	4,94	-0,181
2848,9	4,98	-0,259
2851,06	4,52	-0,364
2853,208	3,56	-0,461
2855,38	2,36	-0,698
2857,522	1,72	-0,802
2859,676	0,94	-0,913
2861,824	0,82	-1,004
2863,971	0,64	-1,1
2866,125	-0,06	-1,232
2868,279	-0,34	-1,402
2870,427	-0,86	-1,567
2872,587	-1,28	-1,712
2874,741	-1,66	-1,898
2876,889	-1,9	-1,957
2879,043	-1,92	-1,993
2881,19	-2,16	-2,052
2883,344	-2,76	-2,19
2885,498	-3,06	-2,358
2887,652	-3,8	-2,512
2889,812	-4,08	-2,615
2891,966	-4,8	-2,783
2894,114	-4,98	-2,858
2896,274	-5,48	-3,073
2898,433	-6,56	-3,225
2900,587	-7,44	-3,357
2902,741	-8,26	-3,402
2904,901	-8,78	-3,432
2907,049	-9,26	-3,45
2909,197	-9,08	-3,46
2911,351	-9,54	-3,47
2913,499	-9,44	-3,474
2915,652	-9,6	-3,479
2917,8	-9,62	-3,484
2919,966	-9,8	-3,491
2922,12	-9,8	-3,493
2924,262	-9,82	-3,495
2926,41	-9,82	-3,497
2928,576	-9,82	-3,498
2930,718	-9,8	-3,499
2932,871	-9,78	-3,499
2935,037	-9,78	-3,499
2937,179	-9,78	-3,5
2939,333	-9,76	-3,496
2941,475	-9,74	-3,482
2943,641	-9,72	-3,307
2945,789	-9,72	-3,252
2947,943	-8,84	-3,133
2950,09	-9,42	-3,085
2952,244	-7,56	-2,958
2954,386	-8,06	-2,906
2956,54	-6,52	-2,806
2958,688	-6,98	-2,748
2960,836	-5,94	-2,624
2962,996	-5,38	-2,43
2965,144	-4,1	-2,308
2967,297	-3,2	-2,123
2969,439	-2,76	-1,986
2971,599	-2,3	-1,857
2973,753	-1,9	-1,662
2975,895	-1,68	-1,585
2978,055	-1,1	-1,391
2980,215	-1,1	-1,198
2982,357	-0,36	-1,04
2984,504	0,06	-0,939
2986,652	0,26	-0,831
2988,8	0,62	-0,751
2990,96	1,3	-0,509
2993,102	1,8	-0,342
2995,256	2,06	-0,218
2997,404	2,72	-0,143
2999,564	3,42	-0,096
3001,718	4,14	-0,058
3003,865	4,22	-0,034
3006,019	4,64	-0,023
3008,173	4,7	-0,016
3010,315	4,82	-0,013
3012,463	4,84	-0,01
3014,623	4,88	-0,005
3016,765	4,88	-0,003
3018,925	4,88	-0,002
3021,066	4,88	-0,002
3023,22	4,9	-0,001
3025,368	4,88	-0,001
3027,516	4,88	-0,001
3029,67	4,88	0
3031,83	4,86	-0,108
3033,972	4,86	-0,153
3036,126	4,62	-0,312
3038,267	4,08	-0,454
3040,427	2,46	-0,648
3042,575	1,86	-0,676
3044,729	2,02	-0,761
3046,883	1,22	-0,871
3049,031	1,08	-0,978
3051,179	0,62	-0,995
3053,339	0,02	-1,177
3055,48	0,16	-1,175
3057,64	-0,1	-1,278
3059,794	-0,82	-1,496
3061,942	-0,98	-1,628
3064,108	-1,5	-1,821
3066,25	-1,44	-1,846
3068,41	-1,66	-1,916
3070,564	-1,92	-1,978
3072,711	-2,08	-2,053
3074,859	-2,34	-2,15
3077,013	-2,56	-2,207
3079,161	-2,64	-2,266
3081,321	-3	-2,392
3083,463	-3,02	-2,398
3085,617	-3,22	-2,446
3087,771	-3,74	-2,557
3089,912	-3,82	-2,591
3092,072	-4,2	-2,693
3094,22	-4,12	-2,716
3096,374	-4,44	-2,772
3098,534	-4,92	-2,897
3100,682	-5,02	-2,957
3102,842	-5,62	-3,097
3104,996	-6,12	-3,176
3107,138	-6,18	-3,195
3109,297	-6,66	-3,276
3111,445	-6,7	-3,302
3113,593	-6,94	-3,348
3115,747	-7,48	-3,377
3117,889	-8,04	-3,388
3120,043	-7,26	-3,419
3122,197	-8,76	-3,446
3124,339	-8,46	-3,447
3126,498	-9,06	-3,466
3128,64	-8,94	-3,471
3130,794	-9,28	-3,481
3132,942	-9,2	-3,483
3135,09	-9,38	-3,488
3137,238	-9,3	-3,488
3139,398	-9,38	-3,491
3141,54	-9,42	-3,492
3143,693	-9,42	-3,495
3145,835	-9,42	-3,495
3147,989	-9,44	-3,496
3150,131	-9,42	-3,497
3152,291	-9,42	-3,498
3154,445	-9,42	-3,499
3156,593	-9,4	-3,499
3158,747	-9,38	-3,499
3160,894	-9,38	-3,499
3163,042	-9,4	-3,499
3165,19	-9,38	-3,499
3167,338	-9,38	-3,499
3169,486	-9,36	-3,457
3171,646	-9,32	-3,306
3173,794	-9,06	-3,232
3175,942	-9,08	-3,091
3178,089	-7,6	-3,011
3180,243	-7,96	-2,91
3182,403	-6,86	-2,764
3184,545	-5,22	-2,575
3186,699	-4,98	-2,449
3188,859	-4	-2,229
3191,007	-3,18	-2,084
3193,161	-2,96	-1,964
3195,303	-2,52	-1,824
3197,456	-1,66	-1,589
3198,104	4,8	-0,001