File: ensaios_Ciclicos/_newS/_4G30/entrada/_2.txt
Time (s)	Load (N)	Displacement (mm)
0	-0,14	-0,031
2,248	-3,12	-0,808
4,39	-3,68	-0,917
6,526	-4,98	-1,049
8,663	-4	-1,043
10,798	-3,94	-1,037
12,934	-4,4	-1,101
15,07	-5,14	-1,2
17,206	-6,28	-1,279
19,353	-6,68	-1,424
21,489	-7,68	-1,572
23,625	-8,08	-1,752
25,761	-8,58	-1,74
27,897	-9,28	-1,83
30,033	-9,84	-1,851
32,175	-10,62	-2,002
34,323	-10,98	-2,018
36,464	-11,98	-2,112
38,618	-11,24	-2,132
40,754	-11,3	-2,147
42,896	-11,82	-2,165
45,034	-11,82	-2,176
47,168	-12	-2,201
49,31	-11,88	-2,252
51,458	-12,54	-2,296
53,605	-13,16	-2,36
55,741	-13	-2,37
57,889	-14,54	-2,519
60,032	-14,42	-2,496
62,179	-14,5	-2,576
64,321	-15,26	-2,599
66,481	-14,98	-2,724
68,629	-15,12	-2,811
70,771	-17,56	-2,914
72,924	-18,64	-2,966
75,072	-18,4	-3,008
77,22	-18,6	-3,036
79,368	-18,86	-3,138
81,51	-20,62	-3,241
83,646	-21	-3,285
85,782	-22,46	-3,343
87,924	-22,7	-3,372
90,065	-22,3	-3,367
92,207	-22,48	-3,362
94,355	-23	-3,409
96,491	-23,8	-3,438
98,636	-24,46	-3,459
100,781	-24,68	-3,467
102,917	-24,6	-3,474
105,053	-24,82	-3,477
107,195	-24,9	-3,484
109,336	-24,98	-3,489
111,485	-25,02	-3,492
113,626	-25,06	-3,494
115,78	-25,06	-3,496
117,916	-25,02	-3,496
120,058	-25	-3,498
122,2	-25	-3,498
124,359	-24,94	-3,499
126,507	-24,8	-3,5
128,649	-24,82	-3,5
130,791	-24,8	-3,5
132,945	-24,74	-3,382
135,093	-24,42	-3,217
137,235	-24,54	-3,116
139,377	-23,82	-3,183
141,53	-23,06	-3,002
143,684	-20,74	-2,812
145,838	-18,54	-2,664
147,998	-15,84	-2,363
150,14	-16,54	-2,383
152,306	-15,08	-2,165
154,448	-15,38	-2,263
156,59	-14,14	-2,159
158,743	-13,28	-2,07
160,891	-11,76	-1,916
163,057	-11,78	-1,754
165,205	-9,64	-1,653
167,353	-8,54	-1,447
169,501	-7,4	-1,315
171,643	-6,76	-1,244
173,779	-5,44	-1,177
175,921	-4,94	-1,058
178,068	-4,62	-0,966
180,21	-3,28	-0,83
182,358	-2,2	-0,713
184,512	-2,14	-0,608
186,666	-0,04	-0,375
188,82	0,6	-0,268
190,974	2,24	-0,162
193,115	2,46	-0,132
195,263	2,86	-0,088
197,411	3,2	-0,075
199,559	3,32	-0,075
201,713	4,08	-0,042
203,861	3,82	-0,037
206,003	4,16	-0,028
208,157	4,32	-0,018
210,311	4,44	-0,014
212,458	4,44	-0,012
214,612	4,48	-0,009
216,766	4,5	-0,008
218,92	4,52	-0,004
221,074	4,54	-0,003
223,228	4,54	-0,002
225,388	4,54	-0,001
227,547	4,52	-0,001
229,701	4,52	0
231,855	4,5	-0,091
234,003	4,5	-0,243
236,163	4,2	-0,315
238,317	3,04	-0,481
240,465	2,84	-0,587
242,619	1,56	-0,687
244,773	0,62	-0,772
246,926	-0,12	-0,898
249,08	-0,88	-0,983
251,228	-1,62	-1,073
253,388	-2,68	-1,166
255,536	-1,9	-1,145
257,69	-2,54	-1,244
259,844	-3	-1,297
261,992	-3,32	-1,309
264,145	-2,96	-1,382
266,299	-4,24	-1,466
268,447	-4,62	-1,498
270,601	-6,5	-1,791
272,755	-7,56	-1,927
274,909	-8,96	-2,122
277,063	-10,22	-2,302
279,217	-11,06	-2,407
281,365	-10,74	-2,462
283,524	-11,98	-2,527
285,672	-12,44	-2,559
287,814	-12,76	-2,556
289,962	-13,54	-2,707
292,11	-14,44	-2,777
294,264	-12,66	-2,664
296,412	-13,08	-2,616
298,559	-11,62	-2,506
300,713	-11,66	-2,442
302,867	-13,08	-2,61
305,009	-13,64	-2,65
307,169	-13,6	-2,668
309,323	-13,76	-2,81
311,477	-16,4	-3,017
313,631	-15,52	-3,041
315,784	-17,42	-3,056
317,938	-16,56	-3,072
320,086	-18,26	-3,211
322,252	-18,48	-3,229
324,4	-19,74	-3,366
326,548	-21,48	-3,397
328,708	-21,96	-3,428
330,868	-23,06	-3,467
333,015	-22,56	-3,454
335,169	-23,04	-3,471
337,323	-23,2	-3,473
339,477	-23,24	-3,482
341,619	-23,26	-3,482
343,773	-23,42	-3,489
345,927	-23,5	-3,493
348,087	-23,54	-3,496
350,234	-23,46	-3,497
352,394	-23,38	-3,498
354,542	-23,38	-3,499
356,696	-23,34	-3,499
358,85	-23,32	-3,499
361,004	-23,3	-3,5
363,152	-23,26	-3,5
365,306	-23,24	-3,488
367,465	-23,22	-3,44
369,619	-23,22	-3,36
371,774	-23,2	-3,366
373,921	-23,18	-3,471
376,075	-23,2	-3,475
378,217	-23,2	-3,498
380,371	-23,18	-3,499
382,525	-23,18	-3,495
384,678	-23,2	-3,369
386,832	-23,18	-3,262
388,992	-22,06	-3,091
391,146	-21,7	-3,045
393,294	-23	-3,103
395,448	-21,78	-3,06
397,602	-22,22	-3,1
399,756	-22,98	-3,198
401,904	-23,06	-3,252
404,057	-22,48	-3,124
406,205	-22,44	-3,155
408,354	-22,56	-3,089
410,501	-20,44	-2,997
412,655	-20,78	-2,93
414,803	-21,04	-2,954
416,957	-20,64	-2,924
419,111	-19,68	-2,835
421,264	-18,44	-2,799
423,412	-18,58	-2,734
425,566	-18,94	-2,751
427,714	-18,64	-2,75
429,868	-17,98	-2,678
432,016	-17,58	-2,654
434,176	-16,58	-2,515
436,324	-14,82	-2,444
438,471	-15,32	-2,423
440,631	-14,06	-2,272
442,785	-12,9	-2,225
444,933	-12,54	-2,113
447,081	-10,42	-1,969
449,235	-9,36	-1,757
451,383	-7,94	-1,618
453,525	-7,52	-1,604
455,666	-9	-1,751
457,82	-8,62	-1,703
459,968	-7,08	-1,534
462,122	-6,5	-1,429
464,27	-6,2	-1,411
466,418	-6,26	-1,347
468,578	-4,64	-1,144
470,732	-4,8	-1,203
472,879	-5,16	-1,282
475,033	-6,1	-1,288
477,181	-3,6	-1,078
479,335	-3,06	-1,011
481,483	-2,34	-0,915
483,637	-1,72	-0,82
485,779	-1	-0,753
487,933	-0,78	-0,618
490,08	-1,42	-0,744
492,234	-0,14	-0,628
494,394	0,94	-0,433
496,548	1,14	-0,308
498,702	2,04	-0,222
500,856	2,92	-0,167
503,004	3,62	-0,122
505,152	4,1	-0,103
507,305	4,46	-0,061
509,459	4,24	-0,091
511,607	3,68	-0,099
513,761	4,14	-0,096
515,909	3,88	-0,091
518,063	4,68	-0,055
520,211	4,68	-0,056
522,365	4,58	-0,061
524,524	4,12	-0,08
526,678	4,78	-0,061
528,826	5,14	-0,034
530,98	5,36	-0,019
533,134	5,3	-0,025
535,294	5,16	-0,04
537,442	4,82	-0,05
539,596	3,94	-0,122
541,75	4,2	-0,074
543,897	3,68	-0,133
546,051	2,62	-0,218
548,205	0,66	-0,474
550,353	0,16	-0,584
552,507	-0,68	-0,601
554,661	0,8	-0,448
556,809	0,72	-0,373
558,957	2,56	-0,224
561,104	3,2	-0,131
563,252	2,54	-0,255
565,406	1,98	-0,246
567,554	3,16	-0,157
569,702	3,62	-0,128
571,862	4,32	-0,077
574,01	4,64	-0,085
576,17	4,68	-0,072
578,329	4,96	-0,065
580,477	4,36	-0,087
582,631	3,68	-0,126
584,779	2,18	-0,196
586,928	2,9	-0,205
589,087	2,24	-0,262
591,241	2,22	-0,246
593,389	3	-0,189
595,548	4,3	-0,108
597,702	4,42	-0,073
599,85	4,82	-0,076
602,004	4,84	-0,056
604,158	5,12	-0,049
606,312	5,34	-0,032
608,46	5,44	-0,021
610,608	5,6	-0,017
612,755	5,64	-0,01
614,903	5,66	-0,009
617,076	5,7	-0,005
619,223	5,7	-0,003
621,377	5,68	-0,002
623,537	5,66	-0,001
625,679	5,66	-0,001
627,833	5,62	0
629,986	5,6	-0,084
632,134	5,6	-0,132
634,282	5,62	-0,2
636,43	5,02	-0,354
638,59	3,68	-0,538
640,744	3,48	-0,59
642,892	2,54	-0,665
645,04	2,58	-0,755
647,193	2,12	-0,75
649,347	0,98	-0,898
651,501	1,12	-0,922
653,649	1,5	-0,843
655,803	2,38	-0,704
657,951	3,02	-0,62
660,099	4,82	-0,446
662,265	4,88	-0,462
664,412	5,3	-0,364
666,578	5,68	-0,306
668,726	5,7	-0,007
670,88	5,72	-0,032
673,034	5,68	-0,096
675,189	5,74	-0,027
677,342	5,72	-0,005
679,502	5,74	0
681,656	5,76	0
683,803	5,74	0
685,957	5,78	-0,001
688,111	5,8	-0,001
690,259	5,82	-0,001
692,413	5,82	-0,002
694,573	5,84	-0,002
696,721	5,84	-0,003
698,869	5,84	-0,004
701,016	5,84	-0,004
703,17	5,84	-0,007
705,318	5,82	-0,008
707,478	5,84	-0,005
709,626	5,86	-0,006
711,78	5,86	-0,005
713,934	5,86	-0,004
716,082	5,86	-0,003
718,235	5,86	-0,002
720,389	5,84	-0,001
722,543	5,84	-0,001
724,697	5,84	-0,001
726,851	5,82	-0,009
729,005	5,8	-0,104
731,159	5,78	-0,168
733,319	5,78	-0,248
735,467	5,8	-0,147
737,614	5,82	-0,026
739,768	5,82	-0,104
741,916	5,84	-0,003
744,07	5,84	0
746,218	5,86	-0,001
748,366	5,88	-0,001
750,514	5,9	-0,001
752,673	5,92	-0,002
754,821	5,9	-0,001
756,975	5,9	-0,001
759,129	5,92	-0,001
761,283	5,92	-0,001
763,431	5,94	-0,002
765,573	5,94	-0,003
767,733	5,94	-0,003
769,886	5,94	-0,003
772,04	5,94	-0,002
774,188	5,94	-0,003
776,348	5,96	-0,004
778,502	5,96	-0,008
780,656	5,94	-0,012
782,81	5,94	-0,01
784,976	5,94	-0,011
787,129	5,94	-0,009
789,277	5,96	-0,007
791,431	5,98	-0,005
793,585	6	-0,004
795,739	5,98	-0,002
797,887	5,98	-0,001
800,047	5,96	-0,001
802,195	5,96	-0,001
804,343	5,96	-0,001
806,49	5,96	-0,001
808,638	5,94	-0,001
810,792	5,94	-0,002
812,946	5,9	-0,164
815,094	5,92	-0,216
817,248	5,94	-0,032
819,402	5,96	-0,009
821,55	5,98	0
823,703	6,02	-0,001
825,851	6,02	-0,001
828,005	6,02	-0,001
830,153	6,02	-0,001
832,307	6,02	-0,001
834,455	5,98	-0,001
836,609	6	-0,001
838,763	6	-0,001
840,922	5,98	-0,004
843,07	5,98	-0,079
845,224	5,98	-0,042
847,372	5,96	-0,048
849,526	5,96	-0,126
851,686	5,96	-0,269
853,834	5,5	-0,319
855,982	5,58	-0,389
858,135	5,22	-0,436
860,277	4,18	-0,52
862,431	3,72	-0,577
864,585	2,94	-0,692
866,733	2,92	-0,725
868,887	2,16	-0,814
871,035	2,24	-0,782
873,183	2,16	-0,783
875,336	1,82	-0,862
877,496	1,06	-0,928
879,644	1,06	-1,004
881,798	0,36	-1,092
883,946	-1,02	-1,274
886,1	-1,04	-1,273
888,254	-2,02	-1,357
890,408	-1,54	-1,399
892,567	-2,7	-1,534
894,715	-2,04	-1,422
896,869	-2,68	-1,427
899,017	-2,68	-1,523
901,165	-2	-1,417
903,313	-2,38	-1,451
905,461	-2,46	-1,456
907,609	-2,68	-1,452
909,75	-3,32	-1,583
911,904	-4,24	-1,752
914,052	-5,3	-1,886
916,206	-7,44	-2,107
918,354	-7,84	-2,237
920,508	-7,82	-2,234
922,656	-8,7	-2,341
924,804	-8,98	-2,465
926,951	-10,26	-2,518
929,105	-10,8	-2,581
931,253	-11,38	-2,641
933,407	-12,62	-2,793
935,555	-11,16	-2,72
937,721	-12,74	-2,863
939,863	-12,22	-2,894
942,017	-14,72	-3,063
944,165	-16,1	-3,185
946,331	-17,42	-3,278
948,478	-14	-3,101
950,632	-14,24	-3,132
952,792	-16,08	-3,176
954,94	-14,12	-3,05
957,094	-14,28	-2,99
959,236	-14,08	-2,972
961,39	-12,86	-2,911
963,549	-15,5	-3,127
965,697	-14,5	-3,127
967,845	-15,2	-3,07
969,999	-15,78	-3,234
972,147	-16,66	-3,295
974,307	-18,06	-3,343
976,461	-16,76	-3,34
978,615	-18,54	-3,381
980,763	-19,92	-3,408
982,916	-20,22	-3,443
985,07	-20,4	-3,451
987,224	-21,18	-3,473
989,378	-21,12	-3,48
991,526	-21,28	-3,485
993,68	-21,34	-3,488
995,834	-21,46	-3,49
997,981	-21,48	-3,49
1000,129	-21,5	-3,491
1002,283	-21,5	-3,493
1004,443	-21,54	-3,495
1006,591	-21,54	-3,496
1008,739	-21,56	-3,497
1010,899	-21,56	-3,498
1013,047	-21,58	-3,497
1015,194	-21,54	-3,498
1017,342	-21,52	-3,498
1019,484	-21,52	-3,498
1021,644	-21,5	-3,499
1023,798	-21,5	-3,499
1025,952	-21,34	-3,482
1028,094	-21,28	-3,376
1030,236	-21,26	-3,332
1032,389	-21,24	-3,291
1034,537	-21,06	-3,127
1036,697	-18,34	-2,895
1038,845	-16,34	-2,74
1040,999	-15,4	-2,652
1043,16	-13,42	-2,494
1045,301	-13,7	-2,457
1047,449	-12,84	-2,401
1049,602	-12,92	-2,354
1051,75	-10,6	-2,13
1053,898	-8,9	-2,018
1056,046	-7,54	-1,777
1058,2	-5,54	-1,588
1060,354	-5,08	-1,408
1062,496	-5,34	-1,277
1064,65	-2,72	-1,104
1066,798	-1,84	-0,974
1068,945	-0,3	-0,762
1071,105	0,52	-0,594
1073,253	1,44	-0,448
1075,401	2,68	-0,281
1077,555	3,38	-0,186
1079,709	4,06	-0,134
1081,857	4,98	-0,106
1084,017	5,16	-0,085
1086,164	5,36	-0,073
1088,318	5,8	-0,044
1090,472	6,04	-0,026
1092,626	6,06	-0,024
1094,78	6,2	-0,014
1096,928	6,24	-0,012
1099,07	6,24	-0,01
1101,224	6,28	-0,008
1103,378	6,28	-0,005
1105,525	6,3	-0,004
1107,679	6,28	-0,002
1109,833	6,28	-0,002
1111,975	6,28	-0,001
1114,129	6,26	-0,001
1116,283	6,26	0
1118,437	6,24	-0,048
1120,596	6,22	-0,164
1122,75	5,82	-0,452
1124,898	5,44	-0,373
1127,046	6	-0,386
1129,194	5,42	-0,412
1131,348	5,44	-0,422
1133,502	5,02	-0,496
1135,644	4,5	-0,536
1137,797	4,48	-0,556
1139,951	4,44	-0,591
1142,105	3,96	-0,649
1144,259	2,02	-0,823
1146,401	1,98	-0,891
1148,555	0	-1,101
1150,715	-0,92	-1,295
1152,863	-1,86	-1,435
1155,01	-1,88	-1,52
1157,158	-3,42	-1,67
1159,306	-4,02	-1,846
1161,46	-4,16	-1,998
1163,614	-6,56	-2,189
1165,768	-8,36	-2,481
1167,916	-10,04	-2,699
1170,059	-11,24	-2,88
1172,211	-13,14	-3,088
1174,365	-14,42	-3,266
1176,525	-15,98	-3,384
1178,673	-17,32	-3,41
1180,815	-17,84	-3,444
1182,969	-18,1	-3,471
1185,123	-18,54	-3,482
1187,277	-18,68	-3,491
1189,425	-18,7	-3,495
1191,572	-18,66	-3,496
1193,732	-18,62	-3,498
1195,892	-18,56	-3,499
1198,034	-18,46	-3,5
1200,188	-18,4	-3,461
1202,348	-18,34	-3,332
1204,496	-17,66	-3,139
1206,644	-16,46	-2,935
1208,803	-13,82	-2,748
1210,945	-12,74	-2,584
1213,093	-11,64	-2,472
1215,247	-10,68	-2,368
1217,401	-9,52	-2,203
1219,543	-9,86	-2,303
1221,691	-7,54	-2,114
1223,839	-6,64	-1,923
1225,992	-5,22	-1,728
1228,146	-5,1	-1,68
1230,288	-5,2	-1,71
1232,436	-5	-1,714
1234,584	-7,16	-1,842
1236,732	-5,16	-1,765
1238,886	-4,86	-1,677
1241,028	-4,56	-1,684
1243,187	-5,04	-1,804
1245,341	-4,4	-1,594
1247,501	-3,24	-1,448
1249,649	-3,66	-1,518
1251,803	-2,98	-1,399
1253,951	-2,04	-1,255
1256,111	-2,34	-1,35
1258,265	-1,56	-1,144
1260,418	-1,8	-1,181
1262,566	-2,38	-1,318
1264,72	-2,46	-1,299
1266,874	-2	-1,273
1269,034	-1,12	-1,073
1271,176	-0,7	-1,024
1273,324	0,56	-0,794
1275,484	0,94	-0,659
1277,637	1,02	-0,629
1279,779	1,7	-0,468
1281,927	3,22	-0,316
1284,081	3	-0,255
1286,229	3,8	-0,219
1288,377	1,98	-0,45
1290,519	1,22	-0,629
1292,667	0,18	-0,85
1294,826	0,58	-0,816
1296,992	1,16	-0,629
1299,146	2,46	-0,443
1301,294	2,54	-0,348
1303,442	3,38	-0,29
1305,596	3,42	-0,254
1307,75	3,84	-0,195
1309,892	4,64	-0,128
1312,045	3,06	-0,316
1314,193	2,82	-0,364
1316,347	1,58	-0,603
1318,489	1,6	-0,622
1320,643	2,3	-0,469
1322,803	2,84	-0,404
1324,951	2,2	-0,45
1327,099	2,26	-0,439
1329,247	2,52	-0,396
1331,4	2,74	-0,428
1333,56	3,46	-0,252
1335,708	3,66	-0,224
1337,85	3,68	-0,185
1339,998	4,16	-0,139
1342,152	4,72	-0,12
1344,312	4,2	-0,144
1346,472	4,08	-0,171
1348,625	3,92	-0,178
1350,779	4,52	-0,158
1352,927	4,44	-0,13
1355,099	4,94	-0,122
1357,241	4,5	-0,136
1359,401	5,44	-0,08
1361,561	5,9	-0,05
1363,721	6,06	-0,033
1365,862	6,16	-0,027
1368,016	6,02	-0,028
1370,164	6,2	-0,023
1372,312	6,22	-0,015
1374,454	6,3	-0,01
1376,608	6,34	-0,006
1378,762	6,36	-0,005
1380,91	6,34	-0,004
1383,064	6,34	-0,003
1385,211	6,34	-0,002
1387,365	6,32	-0,002
1389,513	6,34	-0,004
1391,673	6,32	-0,002
1393,815	6,32	-0,001
1395,969	6,28	-0,002
1398,117	6,24	-0,2
1400,276	4,98	-0,429
1402,43	4,74	-0,572
1404,578	2,26	-0,807
1406,738	1,28	-1,017
1408,892	0,16	-1,206
1411,046	-1,22	-1,355
1413,188	-1,46	-1,469
1415,342	-2,5	-1,59
1417,501	-2,52	-1,618
1419,661	-3,5	-1,786
1421,815	-4,62	-2,023
1423,957	-5,32	-2,123
1426,111	-5,84	-2,35
1428,259	-7,62	-2,563
1430,419	-9,3	-2,806
1432,561	-9,88	-2,941
1434,714	-10,8	-3,104
1436,874	-11,78	-3,187
1439,022	-11,84	-3,287
1441,17	-12,38	-3,316
1443,33	-13,88	-3,386
1445,49	-14,48	-3,423
1447,65	-15,26	-3,45
1449,804	-15,48	-3,465
1451,958	-15,82	-3,48
1454,105	-15,68	-3,473
1456,259	-15,56	-3,468
1458,407	-15,64	-3,474
1460,555	-15,58	-3,47
1462,703	-15,66	-3,476
1464,851	-15,66	-3,482
1467,017	-15,78	-3,486
1469,159	-15,52	-3,488
1471,306	-15,78	-3,492
1473,46	-15,78	-3,494
1475,614	-15,76	-3,497
1477,762	-15,74	-3,498
1479,91	-15,72	-3,498
1482,07	-15,68	-3,499
1484,224	-15,66	-3,499
1486,366	-15,62	-3,499
1488,513	-15,6	-3,499
1490,661	-15,56	-3,496
1492,809	-15,5	-3,412
1494,969	-15,48	-3,305
1497,117	-15,16	-3,205
1499,271	-13,3	-2,959
1501,425	-13,68	-2,965
1503,585	-12,34	-2,798
1505,726	-13,06	-2,908
1507,886	-13,02	-2,932
1510,046	-12,54	-2,844
1512,188	-11,7	-2,773
1514,336	-11,08	-2,734
1516,496	-9,48	-2,588
1518,65	-9,28	-2,542
1520,792	-8,92	-2,529
1522,952	-7,62	-2,388
1525,099	-7,98	-2,349
1527,253	-9,2	-2,574
1529,401	-10,3	-2,544
1531,561	-9,38	-2,533
1533,715	-8,32	-2,466
1535,869	-7,54	-2,355
1538,011	-8,68	-2,327
1540,158	-8,24	-2,394
1542,306	-7,32	-2,367
1544,46	-8	-2,348
1546,608	-6,7	-2,26
1548,762	-6,98	-2,151
1550,916	-5,82	-2,067
1553,076	-6,32	-2,079
1555,218	-7,46	-2,291
1557,365	-9,12	-2,498
1559,525	-7,16	-2,303
1561,679	-6,52	-2,177
1563,833	-6,44	-2,232
1565,975	-6,8	-2,225
1568,123	-7,9	-2,378
1570,277	-6,92	-2,278
1572,431	-6,1	-2,15
1574,585	-5,74	-2,163
1576,738	-6,36	-2,138
1578,886	-6,92	-2,221
1581,034	-5,72	-2,055
1583,176	-5,26	-2,005
1585,336	-4,44	-1,902
1587,478	-4,52	-1,868
1589,632	-4,72	-1,863
1591,78	-5,9	-2,08
1593,939	-5,5	-1,945
1596,081	-4,9	-1,899
1598,235	-3,86	-1,789
1600,383	-3,4	-1,724
1602,543	-2,14	-1,509
1604,691	-2,26	-1,456
1606,851	-1,62	-1,362
1609,005	-1,14	-1,318
1611,158	-1,88	-1,355
1613,306	-1,22	-1,313
1615,46	-1,38	-1,238
1617,614	-0,66	-1,144
1619,768	0,48	-0,937
1621,91	0,2	-0,945
1624,07	0,66	-0,874
1626,224	0,56	-0,892
1628,366	0,8	-0,847
1630,519	0,86	-0,714
1632,679	2,04	-0,488
1634,833	2,58	-0,427
1636,981	3	-0,35
1639,135	2,86	-0,343
1641,301	4,38	-0,17
1643,455	2,82	-0,322
1645,596	3,38	-0,248
1647,756	4,44	-0,106
1649,91	5,24	-0,074
1652,052	5,16	-0,066
1654,206	5,58	-0,054
1656,36	5,76	-0,049
1658,514	5,82	-0,033
1660,662	6,06	-0,024
1662,821	6,18	-0,012
1664,975	6,2	-0,007
1667,129	6,2	-0,003
1669,271	6,2	-0,003
1671,425	6,2	-0,002
1673,573	6,18	-0,002
1675,733	6,18	-0,001
1677,881	6,16	-0,001
1680,029	6,14	0
1682,176	6,14	-0,133
1684,33	6,12	-0,279
1686,472	5,52	-0,34
1688,632	5,06	-0,497
1690,786	4,02	-0,602
1692,934	2,62	-0,78
1695,094	1,84	-0,952
1697,247	0,66	-1,094
1699,401	-0,32	-1,216
1701,549	-0,1	-1,279
1703,703	-0,84	-1,336
1705,851	-0,4	-1,353
1707,999	-1,38	-1,456
1710,141	-1,12	-1,468
1712,295	-1,68	-1,611
1714,449	-2,7	-1,76
1716,596	-3,2	-1,871
1718,75	-3,38	-1,945
1720,904	-4,32	-2,108
1723,052	-4,32	-2,216
1725,2	-5,52	-2,376
1727,36	-6,82	-2,591
1729,52	-7,12	-2,705
1731,674	-7,64	-2,836
1733,815	-7,6	-2,913
1735,969	-9,02	-3,066
1738,123	-9,96	-3,156
1740,271	-9,4	-3,182
1742,425	-10,64	-3,269
1744,573	-10,22	-3,303
1746,721	-11,86	-3,333
1748,863	-12,04	-3,373
1751,016	-13,5	-3,434
1753,176	-14,02	-3,472
1755,324	-14,14	-3,48
1757,466	-14,26	-3,488
1759,62	-14,28	-3,49
1761,78	-14,3	-3,494
1763,922	-14,3	-3,496
1766,07	-14,28	-3,497
1768,223	-14,26	-3,498
1770,371	-14,24	-3,498
1772,519	-14,2	-3,499
1774,667	-14,2	-3,499
1776,809	-14,16	-3,499
1778,969	-14,12	-3,496
1781,123	-14,12	-3,327
1783,283	-13,22	-3,106
1785,424	-11,98	-2,981
1787,584	-10,72	-2,793
1789,744	-8,88	-2,604
1791,898	-7,1	-2,409
1794,046	-6,66	-2,258
1796,2	-5,7	-2,174
1798,354	-5,12	-2,058
1800,502	-4,88	-2,01
1802,655	-4,44	-1,895
1804,809	-3,98	-1,805
1806,963	-3,18	-1,705
1809,111	-2,84	-1,652
1811,265	-2,42	-1,525
1813,413	-1,68	-1,46
1815,561	-1,76	-1,39
1817,715	-1,06	-1,285
1819,862	-1,04	-1,194
1822,022	-0,34	-1,06
1824,17	0,1	-1,031
1826,33	0,44	-0,908
1828,49	1,18	-0,756
1830,632	0,7	-0,716
1832,786	1,26	-0,638
1834,934	1,76	-0,604
1837,087	1,52	-0,548
1839,235	1,96	-0,531
1841,389	2,54	-0,454
1843,543	2,36	-0,375
1845,691	2,86	-0,352
1847,839	2,78	-0,278
1849,999	3,36	-0,215
1852,153	4,12	-0,163
1854,301	4,1	-0,108
1856,448	5	-0,087
1858,596	5,08	-0,08
1860,744	5,16	-0,057
1862,898	5,46	-0,05
1865,052	5,68	-0,04
1867,212	5,82	-0,025
1869,366	5,94	-0,016
1871,508	6	-0,013
1873,667	6,06	-0,008
1875,815	6,06	-0,006
1877,957	6,06	-0,006
1880,111	6,06	-0,004
1882,271	6,06	-0,002
1884,425	6,06	-0,002
1886,567	6,04	-0,001
1888,721	6,04	-0,001
1890,868	6,02	-0,001
1893,016	6,02	-0,001
1895,164	6,02	-0,001
1897,318	6,02	0
1899,46	6	-0,003
1901,608	6	0
1903,762	6	-0,023
1905,916	5,98	-0,264
1908,057	5,96	-0,278
1910,211	5,96	-0,304
1912,371	4,92	-0,43
1914,513	4,62	-0,459
1916,661	4,22	-0,571
1918,815	4,14	-0,565
1920,963	3,76	-0,624
1923,117	3,1	-0,752
1925,276	2,02	-0,866
1927,424	1,36	-0,866
1929,566	1,74	-0,896
1931,72	1,38	-1,017
1933,868	0,66	-1,066
1936,016	0,68	-1,141
1938,164	-0,38	-1,263
1940,324	-1,04	-1,398
1942,484	-1,82	-1,635
1944,631	-2,04	-1,662
1946,791	-2,7	-1,836
1948,939	-2,62	-1,916
1951,081	-3,74	-2,116
1953,235	-4,08	-2,182
1955,389	-4,06	-2,298
1957,537	-4,84	-2,44
1959,691	-5,34	-2,557
1961,838	-6,7	-2,824
1963,992	-7,8	-2,966
1966,14	-9,18	-3,102
1968,294	-9,44	-3,264
1970,448	-10,1	-3,344
1972,602	-11,24	-3,386
1974,75	-11,74	-3,415
1976,91	-12,28	-3,436
1979,063	-12,46	-3,463
1981,217	-12,96	-3,479
1983,371	-13	-3,486
1985,525	-13,14	-3,492
1987,679	-13,16	-3,496
1989,827	-13,16	-3,497
1991,981	-13,14	-3,498
1994,135	-13,12	-3,499
1996,276	-13,06	-3,5
1998,43	-13,02	-3,36
2000,584	-13	-3,151
2002,726	-11,84	-3,086
2004,88	-10,8	-2,969
2007,034	-10,92	-2,949
2009,176	-11,16	-2,871
2011,324	-9,4	-2,801
2013,477	-8,58	-2,659
2015,631	-8,62	-2,654
2017,773	-8,34	-2,631
2019,927	-7,26	-2,54
2022,075	-7,18	-2,521
2024,235	-7,22	-2,385
2026,395	-6,26	-2,291
2028,549	-5,52	-2,229
2030,696	-5,44	-2,201
2032,85	-5,34	-2,16
2035,004	-4,84	-2,129
2037,158	-4,66	-2,055
2039,3	-4,1	-1,988
2041,454	-4,06	-1,938
2043,596	-3,66	-1,978
2045,756	-2,96	-1,789
2047,909	-2,92	-1,738
2050,057	-2,82	-1,72
2052,205	-2,44	-1,63
2054,359	-1,84	-1,54
2056,507	-1,26	-1,363
2058,667	-0,5	-1,116
2060,821	0,26	-0,964
2062,969	0,2	-0,894
2065,117	1,08	-0,744
2067,264	1,3	-0,675
2069,412	1,08	-0,631
2071,56	1,68	-0,556
2073,72	2,38	-0,415
2075,868	2,94	-0,26
2078,01	2,72	-0,246
2080,164	3,92	-0,137
2082,317	4,78	-0,09
2084,465	4,9	-0,071
2086,619	5,36	-0,04
2088,773	5,7	-0,022
2090,921	5,76	-0,015
2093,063	5,76	-0,012
2095,211	5,8	-0,01
2097,365	5,84	-0,006
2099,506	5,84	-0,004
2101,666	5,86	-0,002
2103,82	5,84	-0,001
2105,962	5,84	-0,001
2108,116	5,82	-0,001
2110,27	5,84	-0,023
2112,428	5,8	-0,232
2114,578	5,38	-0,259
2116,732	4,46	-0,43
2118,885	4,78	-0,531
2121,027	4,06	-0,586
2123,193	1,6	-0,825
2125,341	1,44	-0,996
2127,489	1,04	-1,04
2129,643	0,1	-1,171
2131,797	0,04	-1,245
2133,945	-0,32	-1,351
2136,098	-0,92	-1,42
2138,258	-1,3	-1,566
2140,4	-1,28	-1,552
2142,554	-1,62	-1,588
2144,702	-1,82	-1,668
2146,862	-2,14	-1,847
2149,004	-2,34	-1,861
2151,152	-3,06	-1,982
2153,311	-3,6	-2,134
2155,459	-3,12	-2,108
2157,607	-3,22	-2,152
2159,773	-4,32	-2,332
2161,915	-4,58	-2,404
2164,069	-5,06	-2,542
2166,223	-5,46	-2,678
2168,377	-6,32	-2,804
2170,525	-6,5	-2,934
2172,672	-7,64	-3,066
2174,826	-7,7	-3,124
2176,974	-8,04	-3,172
2179,128	-9,58	-3,324
2181,282	-9,18	-3,366
2183,442	-11,1	-3,437
2185,59	-11,34	-3,448
2187,737	-11,64	-3,466
2189,891	-11,7	-3,475
2192,039	-11,92	-3,486
2194,187	-12,04	-3,491
2196,329	-12,06	-3,494
2198,471	-12,04	-3,494
2200,625	-12,04	-3,497
2202,779	-12,02	-3,498
2204,926	-12	-3,499
2207,068	-11,96	-3,499
2209,222	-11,96	-3,499
2211,376	-11,92	-3,45
2213,518	-11,92	-3,343
2215,666	-11,9	-3,408
2217,814	-11,88	-3,233
2219,962	-10,92	-3,061
2222,115	-8,34	-2,795
2224,269	-7,36	-2,6
2226,417	-6,24	-2,434
2228,571	-4,88	-2,249
2230,725	-4,18	-2,08
2232,867	-3,62	-1,982
2235,021	-3,04	-1,796
2237,181	-1,92	-1,54
2239,335	-1,66	-1,455
2241,476	-1,48	-1,426
2243,636	-1,24	-1,312
2245,784	-0,86	-1,29
2247,926	-0,22	-1,112
2250,08	0	-0,996
2252,228	0,34	-0,911
2254,382	0,54	-0,8
2256,53	1,02	-0,741
2258,683	1,24	-0,635
2260,837	1,86	-0,424
2262,979	2,22	-0,342
2265,139	3,14	-0,189
2267,293	3,86	-0,11
2269,435	4,34	-0,082
2271,583	5,28	-0,039
2273,731	5,28	-0,029
2275,878	5,44	-0,018
2278,032	5,58	-0,012
2280,192	5,62	-0,007
2282,334	5,64	-0,004
2284,494	5,66	-0,002
2286,654	5,64	-0,001
2288,808	5,62	-0,001
2290,95	5,62	0
2293,109	5,58	-0,165
2295,257	5,1	-0,344
2297,405	4,18	-0,515
2299,553	2,8	-0,728
2301,707	1,12	-0,966
2303,873	-0,18	-1,355
2306,015	-0,74	-1,502
2308,169	-1,66	-1,703
2310,316	-2,78	-1,982
2312,464	-2,96	-2,103
2314,63	-4,22	-2,437
2316,778	-5,22	-2,608
2318,926	-5,7	-2,752
2321,08	-6,36	-2,911
2323,228	-6,84	-3,018
2325,376	-6,66	-3,099
2327,517	-8,02	-3,226
2329,671	-8,74	-3,342
2331,825	-10,28	-3,42
2333,973	-10,1	-3,433
2336,121	-10,66	-3,443
2338,275	-11,04	-3,469
2340,417	-11,28	-3,482
2342,565	-11,4	-3,49
2344,713	-11,4	-3,492
2346,854	-11,48	-3,496
2349,008	-11,46	-3,498
2351,168	-11,4	-3,499
2353,31	-11,4	-3,5
2355,458	-11,36	-3,355
2357,618	-9,82	-3,027
2359,772	-10,08	-2,808
2361,913	-7	-2,624
2364,067	-5,78	-2,386
2366,221	-4,58	-2,211
2368,363	-3,7	-2,029
2370,523	-2,46	-1,745
2372,671	-1,96	-1,524
2374,813	-1,16	-1,31
2376,961	-0,06	-1,065
2379,115	0,68	-0,8
2381,262	1,28	-0,604
2383,416	2,1	-0,419
2385,564	2,5	-0,3
2387,712	2,54	-0,211
2389,86	3,8	-0,116
2392,02	5,04	-0,042
2394,174	5,26	-0,032
2396,322	5,38	-0,018
2398,476	5,5	-0,008
2400,629	5,54	-0,004
2402,771	5,54	-0,002
2404,919	5,54	-0,001
2407,067	5,52	-0,04
2409,215	5,36	-0,232
2411,369	4,74	-0,488
2413,523	2,78	-0,726
2415,67	1,56	-0,934
2417,83	0,52	-1,101
2419,996	-0,32	-1,342
2422,138	-0,66	-1,436
2424,286	-1,22	-1,583
2426,44	-1,46	-1,684
2428,588	-1,86	-1,823
2430,742	-2,32	-1,934
2432,895	-2,76	-2,077
2435,049	-2,82	-2,132
2437,203	-2,96	-2,228
2439,357	-3,68	-2,36
2441,499	-3,94	-2,416
2443,647	-4,16	-2,48
2445,795	-4,74	-2,556
2447,943	-4,66	-2,631
2450,096	-5,38	-2,751
2452,244	-5,92	-2,891
2454,41	-6,86	-3,076
2456,552	-7,42	-3,17
2458,7	-7,4	-3,269
2460,854	-8,74	-3,362
2462,996	-8,7	-3,348
2465,15	-9,48	-3,384
2467,304	-9,72	-3,414
2469,451	-10,56	-3,456
2471,599	-10,7	-3,467
2473,753	-11,02	-3,483
2475,895	-11,04	-3,488
2478,043	-11,08	-3,491
2480,197	-11,14	-3,494
2482,339	-11,14	-3,495
2484,498	-11,14	-3,497
2486,658	-11,12	-3,498
2488,818	-11,1	-3,499
2490,966	-11,1	-3,499
2493,12	-11,08	-3,5
2495,262	-11,08	-3,499
2497,416	-11,06	-3,388
2499,57	-11,04	-3,371
2501,712	-11,04	-3,299
2503,871	-10,96	-3,202
2506,025	-10,72	-3,118
2508,185	-10,16	-3,057
2510,327	-11	-3,113
2512,475	-9,64	-2,995
2514,629	-8,28	-2,894
2516,771	-10,46	-2,876
2518,919	-8,6	-2,86
2521,072	-7,92	-2,818
2523,22	-7,88	-2,795
2525,38	-6,92	-2,575
2527,534	-6,04	-2,492
2529,682	-5,72	-2,416
2531,842	-5,18	-2,334
2533,996	-5,02	-2,246
2536,138	-4,92	-2,27
2538,292	-4,7	-2,281
2540,433	-5,08	-2,278
2542,575	-4,9	-2,265
2544,729	-4,28	-2,186
2546,883	-4	-2,08
2549,031	-3,7	-2,096
2551,179	-4,14	-2,1
2553,327	-3,48	-2,035
2555,468	-3,18	-1,975
2557,616	-2,78	-1,84
2559,77	-2,32	-1,694
2561,918	-1,86	-1,55
2564,066	-1,4	-1,399
2566,208	-0,9	-1,349
2568,362	-1,08	-1,281
2570,528	-0,12	-1,079
2572,675	0,04	-0,999
2574,829	0,16	-0,941
2576,977	0,42	-0,84
2579,131	0,84	-0,755
2581,279	1	-0,68
2583,439	1,16	-0,555
2585,581	1,58	-0,446
2587,729	2,12	-0,376
2589,888	2,94	-0,218
2592,03	3,12	-0,158
2594,19	4,14	-0,084
2596,35	4,76	-0,051
2598,492	4,8	-0,04
2600,646	5,14	-0,026
2602,8	5,24	-0,016
2604,948	5,24	-0,012
2607,096	5,32	-0,011
2609,243	5,38	-0,008
2611,391	5,4	-0,005
2613,539	5,4	-0,004
2615,693	5,4	-0,002
2617,835	5,42	-0,002
2619,983	5,4	-0,002
2622,137	5,4	-0,001
2624,279	5,4	-0,001
2626,426	5,4	-0,001
2628,58	5,4	-0,001
2630,722	5,4	-0,001
2632,876	5,4	-0,001
2635,036	5,38	-0,065
2637,178	5,36	-0,127
2639,332	5,36	-0,191
2641,474	5,36	-0,263
2643,621	5,38	-0,272
2645,781	4,3	-0,424
2647,935	4,84	-0,417
2650,083	3,5	-0,53
2652,231	3,3	-0,68
2654,379	2,5	-0,701
2656,533	2,66	-0,732
2658,693	1,22	-0,974
2660,834	1,3	-0,993
2662,982	0,72	-1,031
2665,136	0,28	-1,152
2667,284	-0,2	-1,243
2669,432	-0,02	-1,287
2671,586	-0,78	-1,498
2673,734	-0,96	-1,552
2675,894	-1,48	-1,804
2678,047	-2,1	-1,973
2680,189	-2,42	-2,056
2682,343	-3	-2,181
2684,491	-3,12	-2,332
2686,651	-3,64	-2,461
2688,811	-4,08	-2,554
2690,971	-4,72	-2,7
2693,113	-4,38	-2,676
2695,26	-5,34	-2,831
2697,408	-4,92	-2,847
2699,568	-5,86	-2,951
2701,728	-6,34	-3,113
2703,87	-6,62	-3,157
2706,024	-6,92	-3,258
2708,178	-8,14	-3,306
2710,32	-7,34	-3,256
2712,467	-7,04	-3,225
2714,627	-7,28	-3,241
2716,769	-7,68	-3,33
2718,923	-8,62	-3,38
2721,077	-8,94	-3,412
2723,219	-9,64	-3,424
2725,373	-9,94	-3,446
2727,533	-10,3	-3,465
2729,68	-10,2	-3,472
2731,828	-10,3	-3,475
2733,988	-10,46	-3,483
2736,13	-10,5	-3,484
2738,284	-10,52	-3,483
2740,438	-10,58	-3,487
2742,586	-10,6	-3,49
2744,734	-10,52	-3,49
2746,876	-10,62	-3,492
2749,029	-10,62	-3,494
2751,183	-10,66	-3,495
2753,325	-10,66	-3,496
2755,479	-10,66	-3,498
2757,627	-10,62	-3,498
2759,775	-10,62	-3,499
2761,935	-10,6	-3,499
2764,083	-10,6	-3,5
2766,23	-10,58	-3,433
2768,39	-10,36	-3,269
2770,538	-10,02	-3,181
2772,68	-10,26	-3,167
2774,84	-9,28	-3,01
2776,994	-7,78	-2,894
2779,136	-7,76	-2,891
2781,29	-7	-2,76
2783,449	-5,5	-2,519
2785,591	-4,62	-2,35
2787,751	-3,66	-2,156
2789,893	-4	-2,169
2792,041	-4,44	-2,154
2794,195	-3,24	-2,037
2796,337	-3,18	-1,939
2798,485	-2,88	-1,843
2800,644	-1,92	-1,596
2802,786	-1,58	-1,504
2804,94	-0,92	-1,34
2807,106	-0,46	-1,11
2809,248	0,02	-1,049
2811,402	0,42	-0,859
2813,562	0,86	-0,719
2815,704	0,72	-0,711
2817,857	1,1	-0,636
2819,999	1,34	-0,563
2822,153	1,66	-0,444
2824,313	2,12	-0,335
2826,461	2,26	-0,282
2828,609	2,98	-0,205
2830,763	3,12	-0,13
2832,905	3,32	-0,116
2835,059	3,72	-0,101
2837,206	4,34	-0,08
2839,348	4,56	-0,052
2841,508	4,7	-0,044
2843,662	4,84	-0,031
2845,81	5,08	-0,022
2847,964	5,14	-0,015
2850,106	5,2	-0,013
2852,259	5,22	-0,009
2854,407	5,26	-0,008
2856,549	5,26	-0,007
2858,709	5,28	-0,004
2860,863	5,28	-0,002
2863,005	5,28	-0,002
2865,159	5,28	-0,002
2867,313	5,28	-0,002
2869,455	5,26	-0,001
2871,614	5,26	-0,001
2873,768	5,24	-0,001
2875,922	5,26	0
2878,07	5,24	-0,019
2880,224	5,02	-0,22
2882,366	5,16	-0,288
2884,52	4,78	-0,421
2886,675	4,28	-0,478
2888,815	4,02	-0,502
2890,969	2,76	-0,597
2893,117	3,28	-0,63
2895,265	2,58	-0,678
2897,419	2,18	-0,796
2899,567	1,48	-0,86
2901,727	0,52	-1,122
2903,881	0,12	-1,318
2906,028	0,12	-1,344
2908,176	-0,36	-1,42
2910,336	-0,82	-1,551
2912,484	-0,78	-1,55
2914,638	-1,18	-1,687
2916,786	-1,56	-1,747
2918,946	-1,98	-1,892
2921,1	-1,98	-1,924
2923,253	-1,82	-1,934
2925,401	-2,1	-1,928
2927,549	-2	-1,935
2929,697	-2,12	-2
2931,857	-2,26	-2,097
2934,005	-2,66	-2,156
2936,165	-3,18	-2,302
2938,313	-3,36	-2,388
2940,46	-3,58	-2,458
2942,608	-3,62	-2,477
2944,762	-3,98	-2,532
2946,904	-4,24	-2,588
2949,052	-4,32	-2,641
2951,206	-4,68	-2,768
2953,36	-4,88	-2,862
2955,514	-5,08	-2,957
2957,661	-5,88	-2,964
2959,815	-5,56	-3,031
2961,969	-6,4	-3,163
2964,117	-6,32	-3,252
2966,271	-7,54	-3,324
2968,413	-7,2	-3,336
2970,561	-8,38	-3,379
2972,709	-8,82	-3,414
2974,862	-9,5	-3,442
2977,01	-9,58	-3,452
2979,164	-9,64	-3,461
2981,318	-9,9	-3,468
2983,466	-9,98	-3,475
2985,62	-10,12	-3,48
2987,762	-10,14	-3,484
2989,91	-10,04	-3,483
2992,057	-10,16	-3,486
2994,211	-10,2	-3,491
2996,359	-10,2	-3,492
2998,501	-10,22	-3,493
3000,655	-10,24	-3,495
3002,803	-10,24	-3,497
3004,957	-10,22	-3,498
3007,105	-10,22	-3,498
3009,253	-10,2	-3,498
3011,4	-10,2	-3,498
3013,548	-10,18	-3,499
3015,69	-10,18	-3,499
3017,844	-10,18	-3,499
3020,01	-10,16	-3,5
3022,158	-10,16	-3,498
3024,312	-10,12	-3,329
3026,46	-10,12	-3,321
3028,613	-10,1	-3,29
3030,767	-9,92	-3,197
3032,909	-9,98	-3,206
3035,069	-9,56	-3,035
3037,211	-8,98	-2,969
3039,359	-8,12	-2,953
3041,513	-7,16	-2,874
3043,661	-7,72	-2,836
3045,82	-6,06	-2,69
3047,962	-6,18	-2,643
3050,11	-5,84	-2,554
3052,258	-5,24	-2,52
3054,4	-5,94	-2,449
3056,554	-4,36	-2,375
3058,714	-4,02	-2,23
3060,856	-3,96	-2,227
3063,015	-3,4	-2,103
3065,169	-3,04	-1,96
3067,311	-2,38	-1,889
3069,465	-2,1	-1,745
3071,613	-2,06	-1,719
3073,773	-1,6	-1,599
3075,921	-1,6	-1,567
3078,075	-1,26	-1,504
3080,228	-0,96	-1,341
3082,376	-0,56	-1,265
3084,53	-0,12	-1,148
3086,684	-0,08	-1,071
3088,826	-0,12	-1,074
3090,98	0,26	-0,963
3093,134	0,5	-0,905
3095,282	0,84	-0,744
3097,429	0,9	-0,793
3099,577	1,04	-0,696
3101,725	1,1	-0,648
3103,879	1,36	-0,585
3106,021	1,44	-0,47
3108,175	1,86	-0,376
3110,329	2,18	-0,319
3112,471	2,06	-0,343
3114,625	2,5	-0,192
3116,772	3,14	-0,149
3118,926	3,2	-0,117
3121,08	4,02	-0,07
3123,24	4,22	-0,056
3125,382	4,2	-0,061
3127,536	4,6	-0,042
3129,678	4,54	-0,045
3131,831	4,74	-0,037
3133,991	4,9	-0,025
3136,139	4,74	-0,024
3138,293	4,94	-0,022
3140,435	5,04	-0,015
3142,595	5,1	-0,011
3144,749	5,12	-0,01
3146,891	5,14	-0,008
3149,039	5,14	-0,006
3151,186	5,16	-0,004
3153,334	5,16	-0,002
3155,482	5,16	-0,002
3157,63	5,16	-0,001
3159,784	5,16	-0,001
3161,938	5,16	-0,001
3164,086	5,14	0
3166,24	5,14	-0,007
3168,388	5,12	-0,125
3170,529	5,12	-0,19
3172,689	4,6	-0,351
3174,837	4,74	-0,341
3176,985	4,36	-0,438
3179,139	3,88	-0,533
3181,281	3,48	-0,611
3183,441	1,82	-0,841
3185,582	1,28	-1,02
3187,736	0,66	-1,131
3189,89	0,18	-1,262
3192,044	-0,48	-1,399
3194,198	-0,72	-1,562
3196,346	-1,48	-1,797
3198,494	-2,08	-2,053
3200,156	5,14	-0,001