File: Cycling_tests/_60perc/_4gap/entrada/_2.txt
Time (s)	Load (N)	Displacement (mm)
0	0	-0,025
2,147	0	0
4,397	0	-0,402
6,545	0	-0,403
8,681	0	-0,289
10,817	0,5	-0,143
12,959	0,5	-0,121
15,094	0,5	-0,015
17,236	0,5	-0,004
19,372	1	-0,001
21,508	0,5	-0,001
23,644	0,5	-0,001
25,786	1	-0,001
27,922	1	-0,002
30,063	1	-0,003
32,205	1	-0,004
34,347	1	-0,004
36,483	0,5	-0,007
38,631	1	-0,009
40,767	1	-0,012
42,903	1	-0,013
45,045	1	-0,014
47,181	1	-0,02
49,322	0,5	-0,024
51,458	1	-0,04
53,606	0,5	-0,038
55,754	1	-0,039
57,89	0,5	-0,048
60,026	0	-0,071
62,168	0,5	-0,083
64,304	0	-0,117
66,464	0	-0,11
68,605	0	-0,138
70,747	0	-0,21
72,889	0	-0,225
75,037	0	-0,338
77,179	-0,5	-0,441
79,321	-0,5	-0,497
81,463	-1	-0,538
83,599	-0,5	-0,591
85,74	-1	-0,679
87,882	-1	-0,688
90,03	-1	-0,734
92,166	-2	-0,899
94,302	-2,5	-1,081
96,45	-2,5	-1,143
98,592	-3	-1,243
100,733	-3,5	-1,346
102,881	-4	-1,377
105,023	-4	-1,343
107,171	-3,5	-1,364
109,313	-4	-1,488
111,467	-4,5	-1,564
113,603	-5,5	-1,788
115,751	-5	-1,754
117,892	-5	-1,752
120,028	-5,5	-1,795
122,183	-6	-1,804
124,33	-5,5	-1,823
126,472	-6,5	-1,9
128,608	-6	-1,959
130,744	-6,5	-2,108
132,898	-7	-2,089
135,039	-8	-2,218
137,181	-8,5	-2,333
139,317	-10	-2,445
141,471	-9	-2,462
143,607	-9	-2,514
181,885	-12	-3,436
184,033	-12	-3,436
186,181	-12	-3,419
188,326	-11,5	-3,395
190,482	-11,5	-3,387
192,624	-11	-3,352
194,772	-10,5	-3,328
196,914	-10,5	-3,331
199,062	-10,5	-3,316
201,204	-10	-3,27
203,358	-10	-3,265
205,494	-9	-3,137
207,641	-9,5	-3,126
209,795	-9,5	-3,178
211,937	-9	-3,182
214,082	-9,5	-3,174
216,228	-9,5	-3,169
218,369	-9,5	-3,14
220,521	-9,5	-3,171
222,676	-9,5	-3,22
224,812	-9	-3,126
226,96	-9,5	-3,148
229,114	-8,5	-3,062
231,256	-8,5	-3,038
233,41	-8,5	-3,001
235,558	-8,5	-2,969
237,694	-7,5	-2,83
239,841	-7,5	-2,798
241,983	-7,5	-2,742
244,131	-7	-2,738
246,267	-7	-2,717
248,421	-7,5	-2,711
250,575	-6,5	-2,677
252,717	-7	-2,674
254,865	-7	-2,676
257,013	-6	-2,606
259,148	-6	-2,483
261,29	-6	-2,518
263,438	-6	-2,475
265,586	-5,5	-2,435
267,74	-5,5	-2,401
269,888	-5,5	-2,327
272,03	-5	-2,298
274,178	-5	-2,231
276,325	-4,5	-2,184
278,479	-5	-2,15
280,627	-4,5	-2,092
282,781	-4,5	-2,16
284,935	-4,5	-2,101
287,089	-4,5	-2,1
289,237	-4,5	-2,085
291,391	-4,5	-2,082
293,556	-4,5	-2,158
295,704	-4,5	-2,127
297,852	-4	-2,001
299,994	-4	-1,944
302,136	-3,5	-1,846
304,284	-3	-1,815
306,426	-3	-1,785
308,568	-3	-1,714
310,721	-3	-1,723
312,881	-3,5	-1,757
315,023	-3	-1,807
317,177	-3,5	-1,833
319,325	-3	-1,892
321,461	-3	-1,785
323,603	-3	-1,75
325,757	-3	-1,67
327,898	-3	-1,597
330,04	-2,5	-1,484
332,188	-2,5	-1,437
334,336	-2	-1,405
336,484	-2	-1,352
338,638	-2	-1,304
340,786	-2	-1,293
342,934	-2	-1,236
345,075	-2	-1,228
347,217	-1,5	-1,108
349,365	-1,5	-1,083
351,513	-1,5	-1,067
353,661	-1	-0,977
355,803	-1	-0,943
357,939	-1	-0,869
360,087	-0,5	-0,842
362,234	-0,5	-0,865
364,376	-0,5	-0,751
366,524	0	-0,655
368,66	0	-0,542
370,802	1	-0,466
372,944	1	-0,415
375,098	1	-0,355
377,246	1,5	-0,296
379,393	1,5	-0,274
381,541	1,5	-0,276
383,683	1,5	-0,135
385,837	1,5	-0,057
387,979	1,5	-0,004
390,139	1,5	-0,011
392,281	1,5	0
394,429	1,5	0
396,571	1,5	-0,001
398,718	1,5	0
400,866	1,5	0
403,02	1,5	0
405,168	1,5	-0,001
407,31	1,5	-0,001
409,464	1,5	-0,001
411,618	1,5	-0,002
413,766	1,5	-0,002
415,907	1,5	-0,002
418,055	1,5	-0,002
420,203	1,5	-0,002
422,345	1,5	-0,003
424,487	1,5	-0,004
426,641	1,5	-0,004
428,783	1,5	-0,004
430,931	1,5	-0,006
433,084	1,5	-0,008
435,238	1,5	-0,008
437,392	1,5	-0,009
439,546	1,5	-0,006
441,694	1,5	-0,009
443,836	1,5	-0,014
445,984	1,5	-0,014
448,138	1,5	-0,014
450,285	1,5	-0,016
452,427	1,5	-0,019
454,581	1,5	-0,02
456,729	1,5	-0,019
458,883	1,5	-0,026
461,025	1,5	-0,034
463,173	1,5	-0,044
465,327	1,5	-0,044
467,474	1	-0,054
469,628	1	-0,059
471,776	1	-0,082
473,936	1	-0,084
476,09	1	-0,091
478,244	1	-0,095
480,386	1	-0,134
482,54	0,5	-0,13
484,688	0,5	-0,15
486,829	0,5	-0,164
488,971	0	-0,252
491,125	0	-0,304
493,285	0	-0,303
495,433	0	-0,323
497,581	0	-0,439
499,733	0	-0,552
501,871	0	-0,659
504,018	-0,5	-0,705
506,166	-0,5	-0,727
508,308	-0,5	-0,772
510,468	-0,5	-0,838
512,616	-1	-0,939
514,77	-1	-0,988
516,918	-1,5	-1,018
519,065	-1,5	-1,071
521,213	-1,5	-1,128
523,361	-1,5	-1,129
525,515	-1,5	-1,14
527,663	-2	-1,209
529,811	-2	-1,357
531,959	-2	-1,394
534,102	-2,5	-1,46
536,249	-3	-1,544
538,402	-3	-1,63
540,55	-3	-1,666
542,692	-4	-1,749
544,84	-3,5	-1,817
546,994	-4	-1,814
549,142	-4	-1,951
551,29	-5	-2,094
553,438	-4,5	-2,098
555,585	-5	-2,16
557,739	-5,5	-2,178
559,887	-5,5	-2,214
562,035	-6	-2,298
564,183	-6	-2,368
566,319	-7	-2,463
568,467	-7,5	-2,548
570,621	-7,5	-2,613
572,768	-8,5	-2,709
574,916	-8	-2,712
577,064	-8,5	-2,759
579,218	-9	-2,804
581,372	-9	-2,773
583,52	-9	-2,836
585,668	-9,5	-2,872
587,81	-10	-2,96
589,957	-10	-3,05
592,099	-10,5	-3,055
594,241	-10,5	-3,087
596,389	-10,5	-3,114
598,537	-10,5	-3,215
600,685	-11	-3,226
602,833	-11	-3,242
604,987	-11	-3,247
607,128	-11	-3,345
609,276	-11	-3,482
611,418	-11	-3,5
613,572	-11	-3,5
615,72	-11	-3,499
617,904	-11	-3,5
620,052	-11	-3,5
622,194	-11	-3,5
624,336	-11	-3,499
626,477	-11	-3,499
628,619	-10,5	-3,499
630,773	-11	-3,499
632,921	-11	-3,499
635,057	-10,5	-3,498
637,217	-10,5	-3,498
639,359	-11	-3,498
641,507	-11	-3,498
643,654	-10,5	-3,498
645,796	-11	-3,498
647,944	-10,5	-3,498
650,086	-10,5	-3,497
652,24	-11	-3,497
654,394	-10,5	-3,497
656,542	-10,5	-3,497
658,684	-10,5	-3,496
660,837	-10,5	-3,495
662,979	-11	-3,494
665,133	-10,5	-3,495
667,275	-11	-3,494
669,423	-11	-3,493
671,571	-10,5	-3,494
673,719	-11	-3,492
675,867	-10,5	-3,488
678,02	-10,5	-3,485
680,174	-10,5	-3,481
682,322	-10,5	-3,476
684,464	-10,5	-3,464
686,612	-10,5	-3,463
688,76	-10	-3,46
690,914	-10	-3,453
693,056	-10	-3,444
695,197	-10,5	-3,448
697,345	-10	-3,428
699,493	-10	-3,43
701,641	-10	-3,424
703,783	-9,5	-3,415
705,925	-9	-3,382
708,073	-9	-3,37
710,221	-9	-3,37
712,368	-9	-3,35
714,528	-8,5	-3,353
716,67	-8,5	-3,276
718,812	-8	-3,24
720,96	-7,5	-3,204
723,108	-8	-3,188
725,256	-7,5	-3,2
727,404	-7,5	-3,157
729,551	-7,5	-3,068
731,705	-7	-3,03
733,859	-6	-2,954
735,995	-5,5	-2,826
738,143	-5	-2,705
740,291	-5,5	-2,727
742,427	-5,5	-2,614
744,581	-4,5	-2,555
746,729	-4,5	-2,438
748,876	-4	-2,365
751,024	-4	-2,281
753,178	-4	-2,3
755,326	-3,5	-2,184
757,468	-3,5	-2,07
759,61	-3	-1,998
761,758	-3	-1,914
763,905	-3	-1,941
766,047	-3	-1,837
768,189	-2,5	-1,76
770,331	-2,5	-1,619
772,473	-2	-1,542
774,627	-2	-1,551
776,775	-2	-1,59
778,917	-2	-1,507
781,065	-2	-1,418
783,212	-1,5	-1,259
785,36	-1,5	-1,175
787,502	-1,5	-1,14
789,65	-1	-1,093
791,798	-1	-0,999
793,952	-1	-0,954
796,1	0	-0,828
798,254	-0,5	-0,794
800,401	-0,5	-0,752
802,543	0	-0,676
804,697	0,5	-0,54
806,851	1	-0,486
809,005	0,5	-0,438
811,147	1	-0,47
813,301	1	-0,434
815,449	1	-0,355
817,596	1,5	-0,214
819,744	1,5	-0,164
821,892	1,5	-0,111
824,04	1,5	-0,03
826,194	1,5	-0,018
828,336	1,5	0
830,484	1,5	-0,001
832,632	1,5	-0,001
834,773	1,5	-0,002
836,921	1,5	-0,002
839,063	1,5	-0,003
841,211	1,5	-0,003
843,359	1,5	-0,004
845,501	1,5	-0,004
847,643	1,5	-0,006
849,791	1,5	-0,006
851,938	1,5	-0,006
854,086	1,5	-0,007
856,234	1,5	-0,009
858,382	1,5	-0,012
860,53	1,5	-0,01
862,684	1,5	-0,013
864,826	1,5	-0,017
866,974	1,5	-0,02
869,133	1,5	-0,023
871,281	1,5	-0,045
873,423	1,5	-0,074
875,571	1	-0,097
877,719	1	-0,12
879,867	0,5	-0,177
882,009	0	-0,281
884,157	0	-0,331
886,299	0	-0,472
888,446	0	-0,605
890,588	-0,5	-0,752
892,736	-0,5	-0,82
894,89	-0,5	-0,89
897,038	-0,5	-1,07
899,18	-1	-1,227
901,322	-1,5	-1,389
903,464	-2	-1,557
905,617	-2,5	-1,638
907,759	-2,5	-1,709
909,907	-3	-1,718
912,049	-3,5	-1,892
914,197	-3,5	-2,003
916,333	-4	-2,056
918,481	-4	-2,067
920,623	-4,5	-2,202
922,77	-5	-2,228
924,924	-4,5	-2,213
927,066	-5,5	-2,36
929,226	-5	-2,363
931,368	-5,5	-2,412
933,516	-5,5	-2,406
935,664	-5	-2,32
937,806	-5,5	-2,434
939,953	-6	-2,557
942,107	-7	-2,669
944,255	-7	-2,684
946,403	-7	-2,634
948,545	-7,5	-2,75
950,693	-8	-2,856
952,835	-8	-2,896
954,989	-9	-2,904
957,136	-9	-3,004
959,278	-10	-3,177
961,432	-10	-3,232
963,574	-10,5	-3,29
965,722	-10,5	-3,472
967,876	-10,5	-3,497
970,018	-10,5	-3,5
972,166	-10,5	-3,499
974,308	-10,5	-3,499
976,455	-10,5	-3,499
978,597	-10,5	-3,499
980,739	-10,5	-3,499
982,881	-10,5	-3,498
985,029	-10,5	-3,497
987,171	-10,5	-3,495
989,331	-10,5	-3,491
991,473	-10,5	-3,486
993,62	-10,5	-3,48
995,762	-10,5	-3,466
997,904	-10	-3,448
1000,046	-9,5	-3,423
1002,194	-9	-3,362
1004,342	-8,5	-3,356
1006,484	-8	-3,286
1008,632	-7,5	-3,17
1010,773	-6,5	-3,012
1012,927	-6	-2,947
1015,069	-5,5	-2,85
1017,223	-5	-2,758
1019,371	-5	-2,62
1021,513	-4,5	-2,532
1023,661	-4	-2,469
1025,803	-3,5	-2,328
1027,944	-3	-2,145
1030,086	-3	-2,084
1032,228	-2,5	-1,948
1034,376	-2,5	-1,864
1036,524	-2	-1,774
1038,672	-2	-1,732
1040,82	-2	-1,606
1042,968	-2	-1,569
1045,11	-1,5	-1,481
1047,251	-1,5	-1,388
1049,393	-1	-1,19
1051,541	-0,5	-1,099
1053,683	-0,5	-0,953
1055,831	0	-0,8
1057,973	0,5	-0,563
1060,121	1	-0,49
1062,262	1,5	-0,364
1064,416	1,5	-0,227
1066,558	1,5	-0,006
1068,7	1,5	-0,001
1070,848	1,5	-0,001
1072,996	1,5	-0,001
1075,144	1,5	-0,002
1077,292	1,5	-0,002
1079,434	1,5	-0,003
1081,575	1,5	-0,004
1083,723	1,5	-0,004
1085,865	1,5	-0,008
1088,013	1,5	-0,011
1090,155	1,5	-0,018
1092,303	1,5	-0,028
1094,445	1,5	-0,041
1096,593	1,5	-0,064
1098,734	1	-0,111
1100,876	0	-0,21
1103,018	0	-0,344
1105,16	0	-0,549
1107,302	0	-0,796
1109,45	-0,5	-1,024
1111,586	-1	-1,216
1113,734	-1,5	-1,36
1115,875	-2,5	-1,617
1118,023	-3	-1,893
1120,171	-4	-2,094
1122,319	-4,5	-2,151
1124,455	-5	-2,306
1126,615	-5,5	-2,41
1128,757	-7	-2,654
1130,911	-7	-2,612
1133,058	-8	-2,807
1135,206	-9	-2,993
1137,348	-10	-3,188
1139,496	-10	-3,338
1141,644	-10	-3,5
1143,786	-10	-3,499
1145,934	-10	-3,499
1148,07	-10	-3,498
1150,211	-10	-3,498
1152,359	-10	-3,497
1154,501	-10	-3,494
1156,649	-10	-3,488
1158,791	-10	-3,479
1160,939	-10	-3,47
1163,087	-9,5	-3,454
1165,229	-9	-3,41
1167,37	-7,5	-3,31
1169,536	-6,5	-3,184
1171,678	-6	-3,006
1173,826	-5,5	-2,805
1175,968	-4,5	-2,721
1178,116	-4,5	-2,598
1180,27	-4	-2,424
1182,412	-3	-2,214
1184,56	-3	-2,029
1186,701	-2,5	-1,877
1188,855	-2	-1,802
1190,991	-1,5	-1,561
1193,145	-1,5	-1,518
1195,293	-1,5	-1,411
1197,435	-1	-1,17
1199,577	-0,5	-0,923
1201,724	0	-0,774
1203,866	1	-0,532
1206,02	1	-0,366
1208,162	1,5	-0,148
1210,31	1,5	-0,095
1212,452	1,5	-0,036
1214,594	1,5	-0,002
1216,736	1,5	-0,001
1218,878	1,5	-0,001
1221,019	1,5	-0,002
1223,161	2	-0,003
1225,303	1,5	-0,004
1227,451	1,5	-0,008
1229,599	1,5	-0,01
1231,741	1,5	-0,018
1233,889	1,5	-0,029
1236,031	1	-0,054
1238,179	1	-0,072
1240,32	0,5	-0,134
1242,456	0,5	-0,244
1244,598	0	-0,392
1246,746	0	-0,514
1248,888	0	-0,602
1251,03	-0,5	-0,8
1253,178	-0,5	-0,901
1255,313	-0,5	-1,083
1257,461	-1	-1,251
1259,609	-1,5	-1,442
1261,757	-1,5	-1,575
1263,899	-2	-1,641
1266,053	-2	-1,664
1268,195	-2,5	-1,814
1270,343	-3	-1,952
1272,478	-4	-2,214
1274,632	-4,5	-2,236
1276,78	-4,5	-2,295
1278,928	-5,5	-2,425
1281,082	-5,5	-2,47
1283,224	-6	-2,541
1285,378	-6	-2,596
1287,52	-7,5	-2,816
1289,673	-8	-2,924
1291,815	-9	-3,108
1293,957	-10	-3,264
1296,105	-10	-3,452
1298,247	-10	-3,5
1300,389	-10	-3,499
1302,537	-10	-3,499
1304,679	-10	-3,499
1306,826	-10	-3,498
1308,968	-10	-3,497
1311,116	-10	-3,496
1313,264	-10	-3,494
1315,412	-10	-3,492
1317,554	-10	-3,488
1319,696	-10	-3,48
1321,85	-10	-3,473
1323,992	-9,5	-3,448
1326,151	-9,5	-3,439
1328,287	-9	-3,38
1330,435	-7,5	-3,268
1332,583	-6,5	-3,164
1334,719	-6	-3,02
1336,867	-6	-2,962
1339,009	-5,5	-2,746
1341,157	-5	-2,646
1343,304	-4,5	-2,588
1345,446	-4	-2,426
1347,594	-3,5	-2,336
1349,736	-3	-2,211
1351,878	-3	-2,092
1354,02	-2,5	-1,952
1356,162	-2	-1,836
1358,316	-2	-1,809
1360,457	-1,5	-1,669
1362,605	-1,5	-1,573
1364,753	-1,5	-1,42
1366,901	-1	-1,346
1369,043	-1	-1,168
1371,191	-1	-1,1
1373,333	-0,5	-0,996
1375,475	-0,5	-0,892
1377,61	0	-0,764
1379,764	0	-0,725
1381,912	0	-0,71
1384,054	0	-0,638
1386,208	0	-0,664
1388,344	0	-0,589
1390,48	1	-0,481
1392,628	1	-0,337
1394,769	1,5	-0,216
1396,911	1,5	-0,082
1399,065	1,5	-0,003
1401,207	1,5	-0,001
1403,355	1,5	-0,001
1405,497	1,5	-0,001
1407,639	1,5	-0,002
1409,787	1,5	-0,002
1411,929	1,5	-0,002
1414,076	1,5	-0,002
1416,218	1,5	-0,003
1418,36	1,5	-0,004
1420,508	1,5	-0,005
1422,65	1,5	-0,007
1424,792	1,5	-0,009
1426,94	1,5	-0,014
1429,081	1,5	-0,02
1431,229	1,5	-0,025
1433,371	1,5	-0,037
1435,507	1,5	-0,065
1437,649	1	-0,107
1439,797	0,5	-0,141
1441,945	0,5	-0,217
1444,093	0,5	-0,304
1446,235	0	-0,514
1448,377	0	-0,724
1450,524	0	-0,947
1452,666	-0,5	-1,167
1454,814	-1	-1,288
1456,974	-1,5	-1,419
1459,122	-1,5	-1,61
1461,264	-2,5	-1,772
1463,412	-3	-1,889
1465,553	-3	-2,034
1467,701	-3	-2,049
1469,849	-3,5	-2,134
1471,997	-4,5	-2,298
1474,139	-5,5	-2,484
1476,281	-5,5	-2,526
1478,435	-6	-2,634
1480,583	-7	-2,76
1482,73	-6	-2,691
1484,872	-7,5	-2,816
1487,02	-8	-2,996
1489,162	-9,5	-3,214
1491,304	-10	-3,476
1493,452	-10	-3,5
1495,594	-10	-3,499
1497,73	-10	-3,499
1499,871	-10	-3,498
1502,013	-10	-3,496
1504,155	-10	-3,494
1506,303	-10	-3,49
1508,445	-9,5	-3,48
1510,599	-10	-3,474
1512,747	-9,5	-3,453
1514,889	-9	-3,412
1517,03	-8	-3,338
1519,172	-7	-3,264
1521,314	-6,5	-3,154
1523,456	-6	-3,03
1525,61	-5,5	-2,981
1527,752	-5	-2,856
1529,888	-4	-2,647
1532,036	-4	-2,557
1534,177	-3	-2,321
1536,319	-3	-2,291
1538,461	-2,5	-2,103
1540,603	-2	-1,962
1542,757	-2	-1,897
1544,899	-1,5	-1,709
1547,047	-1,5	-1,646
1549,189	-1,5	-1,526
1551,337	-1	-1,394
1553,478	-1	-1,354
1555,62	-1	-1,287
1557,768	-0,5	-1,081
1559,91	-0,5	-0,982
1562,058	-0,5	-0,999
1564,2	0	-0,858
1566,342	0	-0,85
1568,484	0	-0,858
1570,631	0	-0,795
1572,773	0	-0,732
1574,921	0,5	-0,628
1577,069	1	-0,517
1579,211	1,5	-0,354
1581,353	1,5	-0,172
1583,501	1,5	-0,082
1585,649	1,5	-0,001
1587,79	1,5	-0,001
1589,944	1,5	-0,001
1592,098	1,5	-0,001
1594,24	1,5	-0,001
1596,376	2	-0,001
1598,518	1,5	-0,002
1600,66	1,5	-0,002
1602,808	1,5	-0,003
1604,949	1,5	-0,004
1607,091	1,5	-0,005
1609,239	1,5	-0,007
1611,381	1,5	-0,011
1613,523	1,5	-0,015
1615,665	1,5	-0,023
1617,807	1,5	-0,032
1619,949	1,5	-0,041
1622,097	1,5	-0,052
1624,238	1	-0,083
1626,386	1	-0,128
1628,528	0,5	-0,196
1630,67	0,5	-0,317
1632,818	0,5	-0,213
1634,96	0	-0,41
1637,096	0	-0,591
1639,238	0	-0,647
1641,379	0	-0,708
1643,533	0	-0,842
1645,675	0	-0,93
1647,817	-0,5	-1,007
1649,965	-1	-1,266
1652,113	-1,5	-1,425
1654,255	-2,5	-1,731
1656,397	-3,5	-1,994
1658,55	-3,5	-2,16
1660,686	-5,5	-2,475
1662,828	-6,5	-2,711
1664,976	-8	-2,929
1667,118	-10	-3,242
1669,26	-10	-3,342
1671,408	-10	-3,5
1673,55	-10	-3,499
1675,691	-10	-3,498
1677,839	-10	-3,497
1679,981	-10	-3,494
1682,123	-9,5	-3,486
1684,271	-10	-3,482
1686,413	-9,5	-3,46
1688,555	-8,5	-3,402
1690,703	-7,5	-3,357
1692,844	-7,5	-3,282
1694,986	-6	-3,063
1697,134	-5	-2,893
1699,276	-4,5	-2,764
1701,424	-4	-2,519
1703,566	-3,5	-2,394
1705,714	-3	-2,305
1707,85	-3	-2,118
1709,991	-2,5	-1,941
1712,139	-1,5	-1,749
1714,281	-1,5	-1,55
1716,423	-1	-1,34
1718,565	-1	-1,092
1720,713	-0,5	-0,906
1722,855	0	-0,702
1724,991	0,5	-0,569
1727,138	1	-0,457
1729,274	1,5	-0,333
1731,416	1,5	-0,266
1733,57	1,5	-0,123
1735,712	1,5	0
1737,854	1,5	0
1740,008	1,5	-0,001
1742,15	1,5	-0,001
1744,292	1,5	-0,001
1746,451	1,5	-0,002
1748,593	1,5	-0,002
1750,735	1,5	-0,003
1752,883	1,5	-0,005
1755,031	1,5	-0,006
1757,173	1,5	-0,008
1759,315	1,5	-0,006
1761,463	1,5	-0,01
1763,604	1,5	-0,012
1765,746	1,5	-0,016
1767,888	1,5	-0,02
1770,036	1,5	-0,024
1772,172	1,5	-0,044
1774,308	1,5	-0,065
1776,456	1	-0,094
1778,598	1	-0,153
1780,739	0,5	-0,204
1782,887	0	-0,307
1785,035	0	-0,333
1787,177	0	-0,436
1789,319	0	-0,577
1791,467	0	-0,646
1793,609	0	-0,776
1795,751	-0,5	-0,928
1797,886	-0,5	-1,003
1800,034	-0,5	-1,055
1802,182	-0,5	-1,023
1804,324	-0,5	-1,11
1806,478	-0,5	-1,144
1808,62	-0,5	-1,263
1810,768	-1,5	-1,402
1812,916	-2	-1,564
1815,051	-2	-1,655
1817,193	-2,5	-1,774
1819,329	-3	-1,957
1821,471	-3,5	-2,07
1823,613	-4	-2,222
1825,755	-4,5	-2,262
1827,903	-4,5	-2,415
1830,039	-6	-2,629
1832,18	-6	-2,738
1834,328	-7	-2,817
1836,476	-7	-2,843
1838,618	-8	-2,952
1840,76	-9	-3,115
1842,896	-9,5	-3,366
1845,038	-10	-3,5
1847,174	-10	-3,499
1849,316	-10	-3,499
1851,463	-9,5	-3,499
1853,611	-9,5	-3,498
1855,747	-9,5	-3,498
1857,889	-9,5	-3,497
1860,037	-10	-3,496
1862,185	-10	-3,495
1864,321	-9,5	-3,494
1866,469	-10	-3,49
1868,616	-9,5	-3,489
1870,758	-9,5	-3,481
1872,906	-9	-3,467
1875,054	-9,5	-3,47
1877,196	-9,5	-3,468
1879,338	-9	-3,448
1881,486	-8,5	-3,428
1883,634	-8,5	-3,398
1885,776	-8	-3,344
1887,917	-7,5	-3,288
1890,065	-6,5	-3,203
1892,213	-6	-3,061
1894,355	-5,5	-2,888
1896,497	-5	-2,789
1898,639	-4,5	-2,621
1900,787	-3,5	-2,469
1902,928	-3	-2,28
1905,076	-3	-2,158
1907,218	-2	-1,937
1909,372	-2,5	-1,915
1911,514	-2	-1,71
1913,662	-1,5	-1,471
1915,804	-1	-1,261
1917,952	-1	-1,082
1920,093	-0,5	-0,867
1922,241	0	-0,681
1924,395	0	-0,541
1926,549	1,5	-0,354
1928,691	1,5	-0,1
1930,833	1,5	0
1932,975	1,5	-0,001
1935,123	1,5	-0,001
1937,27	1,5	-0,002
1939,412	1,5	-0,004
1941,56	1,5	-0,007
1943,708	1,5	-0,009
1945,856	1,5	-0,013
1947,998	1,5	-0,025
1950,14	1,5	-0,049
1952,288	1	-0,074
1954,423	1	-0,14
1956,565	0	-0,256
1958,707	0	-0,355
1960,855	0	-0,471
1962,997	0	-0,618
1965,139	0	-0,69
1967,287	0	-0,769
1969,429	-0,5	-0,942
1971,571	-0,5	-1,129
1973,712	-1	-1,208
1975,854	-1	-1,254
1978,002	-1,5	-1,364
1980,144	-1,5	-1,472
1982,292	-1,5	-1,573
1984,434	-2	-1,613
1986,582	-2	-1,723
1988,724	-3	-2,013
1990,865	-3,5	-2,213
1993,019	-4	-2,221
1995,167	-4,5	-2,431
1997,303	-6	-2,608
1999,439	-6,5	-2,762
2001,587	-7	-2,863
2003,729	-7,5	-2,976
2005,877	-8,5	-3,035
2008,012	-9	-3,185
2010,154	-9,5	-3,389
2012,296	-9,5	-3,5
2014,444	-10	-3,5
2016,586	-9,5	-3,499
2018,728	-9,5	-3,499
2020,876	-9,5	-3,498
2023,018	-9,5	-3,498
2025,165	-10	-3,497
2027,307	-10	-3,496
2029,461	-10	-3,496
2031,603	-9,5	-3,494
2033,751	-9,5	-3,493
2035,893	-9,5	-3,487
2038,035	-9	-3,482
2040,177	-9	-3,473
2042,318	-8,5	-3,45
2044,46	-7,5	-3,423
2046,608	-7,5	-3,382
2048,762	-7,5	-3,338
2050,904	-6,5	-3,249
2053,046	-5,5	-3,108
2055,188	-5,5	-3,005
2057,336	-4,5	-2,835
2059,471	-3,5	-2,569
2061,613	-3	-2,45
2063,755	-3	-2,324
2065,909	-2,5	-2,19
2068,051	-2	-2,07
2070,199	-2	-1,976
2072,335	-1,5	-1,693
2074,489	-1	-1,58
2076,63	-1	-1,359
2078,766	-1	-1,21
2080,914	-0,5	-1,105
2083,056	0	-0,915
2085,204	0	-0,741
2087,346	0	-0,6
2089,494	1	-0,495
2091,636	1	-0,464
2093,777	1,5	-0,329
2095,919	1,5	-0,206
2098,061	1,5	-0,03
2100,203	1,5	0
2102,351	1,5	-0,001
2104,493	1,5	-0,001
2106,635	1,5	-0,002
2108,783	1,5	-0,002
2110,919	1,5	-0,002
2113,073	1,5	-0,003
2115,214	1,5	-0,006
2117,362	1,5	-0,009
2119,504	1,5	-0,014
2121,646	1,5	-0,022
2123,788	1,5	-0,038
2125,924	1,5	-0,06
2128,066	1	-0,082
2130,213	0,5	-0,122
2132,361	0,5	-0,147
2134,503	0,5	-0,237
2136,645	0,5	-0,274
2138,793	0	-0,361
2140,941	0	-0,408
2143,083	0	-0,506
2145,225	0	-0,722
2147,372	-0,5	-0,875
2149,52	-0,5	-1,008
2151,662	-0,5	-1,041
2153,804	-0,5	-1,219
2155,94	-1	-1,423
2158,088	-1,5	-1,577
2160,23	-1,5	-1,723
2162,378	-1,5	-1,733
2164,52	-2,5	-1,954
2166,667	-3	-2,043
2168,821	-3	-2,102
2170,963	-4	-2,275
2173,111	-4	-2,306
2175,253	-5	-2,447
2177,401	-5	-2,531
2179,543	-6	-2,735
2181,69	-7	-2,81
2183,832	-7,5	-2,919
2185,974	-8	-3,065
2188,128	-8,5	-3,136
2190,27	-9	-3,31
2192,412	-9	-3,458
2194,554	-9	-3,5
2196,702	-9	-3,499
2198,844	-9	-3,499
2200,991	-9	-3,499
2203,133	-9	-3,498
2205,275	-9	-3,498
2207,423	-9	-3,497
2209,571	-9	-3,497
2211,713	-9	-3,497
2213,861	-9	-3,496
2216,009	-9	-3,494
2218,15	-9	-3,492
2220,292	-9	-3,49
2222,44	-9	-3,488
2224,582	-9	-3,486
2226,73	-9	-3,48
2228,872	-8,5	-3,478
2231,014	-9	-3,472
2233,156	-8,5	-3,46
2235,303	-8,5	-3,462
2237,451	-8,5	-3,456
2239,593	-8	-3,438
2241,735	-7,5	-3,406
2243,877	-7	-3,352
2246,031	-7	-3,326
2248,173	-6	-3,244
2250,321	-5,5	-3,165
2252,462	-5	-3,036
2254,604	-5	-3,01
2256,752	-4,5	-2,916
2258,894	-4	-2,748
2261,036	-3,5	-2,666
2263,172	-3	-2,464
2265,326	-3	-2,394
2267,462	-2,5	-2,244
2269,609	-2,5	-2,165
2271,751	-2	-2,034
2273,893	-2	-1,951
2276,041	-1,5	-1,82
2278,189	-1,5	-1,81
2280,331	-1,5	-1,691
2282,473	-1,5	-1,57
2284,615	-1	-1,514
2286,768	-1	-1,428
2288,91	-1	-1,442
2291,046	-1	-1,33
2293,194	-0,5	-1,251
2295,342	-0,5	-1,166
2297,484	-0,5	-1,041
2299,626	-0,5	-0,906
2301,768	-0,5	-0,865
2303,904	0	-0,69
2306,057	0	-0,715
2308,199	0	-0,706
2310,335	1	-0,488
2312,477	1,5	-0,278
2314,619	1,5	-0,12
2316,773	1,5	-0,101
2318,915	1,5	0
2321,063	1,5	0
2323,204	1,5	0
2325,352	1,5	-0,001
2327,494	1,5	-0,001
2329,642	1,5	-0,001
2331,784	2	-0,002
2333,932	2	-0,003
2336,08	1,5	-0,004
2338,228	2	-0,004
2340,375	1,5	-0,005
2342,517	1,5	-0,005
2344,659	1,5	-0,008
2346,807	1,5	-0,009
2348,949	1,5	-0,01
2351,091	1,5	-0,016
2353,239	1,5	-0,018
2355,387	1,5	-0,019
2357,54	1,5	-0,02
2359,682	1,5	-0,032
2361,824	1,5	-0,051
2363,966	1,5	-0,064
2366,114	1	-0,064
2368,256	1	-0,082
2370,398	1	-0,104
2372,54	1	-0,132
2374,694	0,5	-0,224
2376,841	0,5	-0,348
2378,983	0	-0,473
2381,125	0	-0,677
2383,267	0	-0,706
2385,415	0	-0,844
2387,557	-0,5	-1,044
2389,699	-0,5	-1,194
2391,847	-0,5	-1,237
2393,994	-1	-1,416
2396,142	-0,5	-1,427
2398,284	-1	-1,494
2400,426	-1,5	-1,698
2402,58	-1,5	-1,661
2404,722	-1,5	-1,707
2406,87	-1,5	-1,748
2409,012	-2	-1,884
2411,153	-2,5	-2,057
2413,295	-3	-2,165
2415,443	-3	-2,208
2417,579	-4,5	-2,437
2419,721	-4,5	-2,535
2421,863	-5	-2,644
2424,005	-6	-2,816
2426,159	-6,5	-2,968
2428,3	-7,5	-3,141
2430,448	-8,5	-3,322
2432,59	-9	-3,472
2434,732	-9	-3,5
2436,874	-8,5	-3,499
2439,01	-8,5	-3,498
2441,158	-8,5	-3,497
2443,3	-8,5	-3,496
2445,441	-8,5	-3,493
2447,595	-8,5	-3,488
2449,737	-8,5	-3,475
2451,879	-8,5	-3,472
2454,027	-8	-3,456
2456,169	-7,5	-3,441
2458,311	-7,5	-3,427
2460,453	-7	-3,403
2462,6	-7,5	-3,388
2464,742	-6,5	-3,324
2466,884	-6	-3,256
2469,038	-5,5	-3,151
2471,18	-5	-3,031
2473,328	-4,5	-2,873
2475,47	-4	-2,774
2477,618	-4	-2,722
2479,771	-3,5	-2,625
2481,913	-2,5	-2,452
2484,055	-3	-2,364
2486,203	-3	-2,328
2488,339	-2	-2,131
2490,487	-1,5	-1,956
2492,635	-1,5	-1,935
2494,777	-1,5	-1,836
2496,919	-1,5	-1,69
2499,066	-1,5	-1,652
2501,214	-1,5	-1,623
2503,356	-1	-1,536
2505,504	-1	-1,446
2507,646	-1	-1,336
2509,8	-1	-1,288
2511,942	-0,5	-1,141
2514,09	-0,5	-1,105
2516,225	-0,5	-1,051
2518,367	-0,5	-1,006
2520,509	-0,5	-0,985
2522,657	0	-0,85
2524,799	0	-0,645
2526,935	1	-0,457
2529,089	1,5	-0,29
2531,225	1,5	-0,268
2533,378	1,5	-0,267
2535,52	1,5	-0,054
2537,662	1,5	0
2539,804	2	-0,001
2541,958	1,5	-0,001
2544,1	1,5	-0,001
2546,236	1,5	-0,002
2548,378	1,5	-0,002
2550,519	2	-0,002
2552,661	1,5	-0,003
2554,815	2	-0,004
2556,957	1,5	-0,005
2559,099	2	-0,008
2561,247	2	-0,009
2563,389	1,5	-0,009
2565,537	1,5	-0,015
2567,678	1,5	-0,022
2569,82	1,5	-0,035
2571,962	1,5	-0,041
2574,116	1,5	-0,05
2576,258	1	-0,078
2578,394	1	-0,114
2580,536	0,5	-0,195
2582,684	0,5	-0,291
2584,831	0,5	-0,343
2586,973	0	-0,503
2589,115	0	-0,62
2591,257	0	-0,782
2593,399	0	-0,88
2595,547	0	-0,932
2597,695	0	-1,022
2599,837	-0,5	-1,158
2601,978	-0,5	-1,15
2604,126	-0,5	-1,287
2606,268	-0,5	-1,417
2608,41	-1	-1,59
2610,558	-1,5	-1,691
2612,7	-2	-1,894
2614,842	-2,5	-1,999
2617,002	-2,5	-2,066
2619,138	-3	-2,21
2621,285	-4	-2,279
2623,427	-3	-2,382
2625,569	-4	-2,503
2627,717	-4,5	-2,523
2629,865	-5	-2,617
2632,007	-5	-2,684
2634,149	-5,5	-2,787
2636,285	-7	-2,916
2638,432	-6,5	-2,947
2640,574	-6,5	-2,973
2642,722	-7	-2,996
2644,87	-7,5	-3,15
2647,018	-8	-3,204
2649,16	-8	-3,354
2651,302	-8	-3,477
2653,444	-8	-3,497
2655,586	-8	-3,5
2657,727	-8	-3,499
2659,875	-8	-3,499
2662,017	-8	-3,499
2664,159	-8	-3,499
2666,307	-8	-3,499
2668,449	-8	-3,498
2670,603	-8	-3,498
2672,744	-8	-3,497
2674,886	-8	-3,496
2677,028	-8	-3,494
2679,17	-8	-3,492
2681,324	-7,5	-3,489
2683,466	-8	-3,486
2685,608	-7,5	-3,484
2687,75	-8	-3,479
2689,915	-8	-3,478
2692,063	-8	-3,474
2694,205	-7,5	-3,456
2696,347	-7	-3,413
2698,489	-6	-3,349
2700,631	-5,5	-3,237
2702,779	-5	-3,155
2704,927	-4,5	-3,151
2707,068	-4,5	-2,99
2709,21	-3,5	-2,843
2711,352	-3	-2,713
2713,494	-3	-2,609
2715,63	-2,5	-2,39
2717,778	-2	-2,355
2719,92	-2	-2,176
2722,062	-1,5	-2,04
2724,209	-1,5	-1,914
2726,357	-1,5	-1,84
2728,499	-1	-1,699
2730,647	-1	-1,594
2732,783	-1	-1,46
2734,931	-0,5	-1,283
2737,079	-0,5	-1,074
2739,221	0	-0,975
2741,369	0	-0,869
2743,51	0	-0,755
2745,652	0,5	-0,631
2747,794	1,5	-0,494
2749,936	1,5	-0,427
2752,078	1	-0,403
2754,226	2	-0,227
2756,368	2	-0,212
2758,504	1,5	-0,185
2760,645	1,5	-0,152
2762,787	1,5	-0,212
2764,923	1,5	-0,182
2767,065	1,5	-0,185
2769,213	1,5	-0,152
2771,361	1,5	-0,112
2773,503	1,5	-0,125
2775,645	1,5	-0,102
2777,792	1,5	-0,003
2779,934	1,5	0
2782,076	1,5	0
2784,218	1,5	-0,001
2786,36	1,5	-0,001
2788,502	1,5	-0,001
2790,65	1,5	-0,001
2792,798	1,5	-0,001
2794,945	2	-0,002
2797,093	1,5	-0,002
2799,235	2	-0,002
2801,377	1,5	-0,002
2803,525	1,5	-0,002
2805,667	1,5	-0,004
2807,809	2	-0,004
2809,951	2	-0,006
2812,092	2	-0,01
2814,246	2	-0,012
2816,382	1,5	-0,021
2818,524	1,5	-0,032
2820,672	1,5	-0,034
2822,814	1,5	-0,05
2824,962	1,5	-0,066
2827,104	1	-0,118
2829,246	0,5	-0,173
2831,387	0,5	-0,24
2833,535	0,5	-0,252
2835,677	0,5	-0,318
2837,825	0	-0,455
2839,967	0	-0,601
2842,109	0	-0,715
2844,251	0	-0,766
2846,399	0	-0,915
2848,546	0	-0,898
2850,688	0	-0,985
2852,83	0	-1,089
2854,972	0	-1,182
2857,12	-0,5	-1,266
2859,268	-0,5	-1,35
2861,404	-1	-1,57
2863,546	-1	-1,684
2865,687	-1	-1,708
2867,835	-1	-1,793
2869,971	-1,5	-1,952
2872,113	-1,5	-1,938
2874,261	-2	-2,034
2876,403	-2	-2,073
2878,545	-2,5	-2,21
2880,693	-2,5	-2,31
2882,835	-3	-2,444
2884,976	-3,5	-2,539
2887,118	-3,5	-2,59
2889,26	-4,5	-2,666
2891,408	-5	-2,804
2893,55	-5	-2,902
2895,692	-5	-2,874
2897,828	-6,5	-3,051
2899,969	-6,5	-3,159
2902,111	-6,5	-3,146
2904,253	-6	-3,074
2906,395	-6	-3,029
2908,537	-6,5	-3,11
2910,679	-7	-3,201
2912,821	-7,5	-3,29
2914,963	-7,5	-3,321
2917,11	-7,5	-3,305
2919,252	-7,5	-3,402
2921,4	-7,5	-3,384
2923,542	-7,5	-3,499
2925,69	-7	-3,5
2927,832	-7	-3,499
2929,974	-7	-3,499
2932,116	-7	-3,499
2934,263	-7	-3,499
2936,411	-7	-3,499
2938,553	-7	-3,498
2940,695	-7	-3,497
2942,837	-7	-3,497
2944,979	-7	-3,496
2947,127	-7	-3,492
2949,269	-6,5	-3,491
2951,411	-6,5	-3,491
2953,558	-6,5	-3,492
2955,7	-6,5	-3,489
2957,848	-6,5	-3,483
2959,99	-6,5	-3,478
2962,132	-6,5	-3,472
2964,274	-6,5	-3,47
2966,422	-6	-3,466
2968,564	-6	-3,454
2970,717	-6	-3,455
2972,859	-6	-3,459
2975,001	-6	-3,457
2977,149	-6	-3,464
2979,291	-6	-3,447
2981,433	-6	-3,44
2983,581	-6	-3,458
2985,729	-6	-3,449
2987,87	-6	-3,457
2990,006	-6	-3,444
2992,148	-5,5	-3,436
2994,302	-6	-3,458
2996,438	-5,5	-3,438
2998,58	-5,5	-3,426
3000,728	-5,5	-3,413
3002,87	-5	-3,395
3005,029	-5	-3,375
3007,171	-4,5	-3,301
3009,319	-4	-3,244
3011,461	-4,5	-3,182
3013,609	-4	-3,151
3015,751	-3,5	-3,026
3017,899	-3	-2,984
3020,041	-3	-2,89
3022,188	-3	-2,791
3024,33	-2,5	-2,651
3026,478	-2	-2,528
3028,62	-2	-2,35
3030,774	-1,5	-2,276
3032,916	-2	-2,272
3035,058	-1,5	-2,175
3037,2	-1,5	-2,096
3039,341	-1,5	-2,062
3041,489	-1	-2,026
3043,631	-1	-1,943
3045,773	-1	-1,818
3047,909	-0,5	-1,621
3050,057	-0,5	-1,621
3052,199	-1	-1,592
3054,353	-1	-1,57
3056,494	-0,5	-1,403
3058,636	-0,5	-1,299
3060,778	-0,5	-1,317
3062,914	-0,5	-1,316
3065,056	-0,5	-1,234
3067,204	-0,5	-1,187
3069,346	-0,5	-1,041
3071,482	0	-0,79
3073,624	0	-0,766
3075,765	0,5	-0,556
3077,913	1	-0,476
3080,055	1,5	-0,351
3082,197	1,5	-0,224
3084,339	1,5	-0,118
3086,487	1,5	-0,112
3088,623	1,5	-0,136
3090,771	1,5	-0,076
3092,912	1,5	0
3095,054	1,5	0
3097,196	1,5	-0,001
3099,338	1,5	-0,001
3101,486	1,5	-0,001
3103,64	1,5	-0,001
3105,782	2	-0,002
3107,924	1,5	-0,003
3110,065	2	-0,003
3112,201	1,5	-0,004
3114,355	1,5	-0,005
3116,497	2	-0,007
3118,633	1,5	-0,009
3120,769	1,5	-0,011
3122,911	1,5	-0,018
3125,065	1,5	-0,014
3127,2	1,5	-0,022
3129,342	1,5	-0,023
3131,484	1,5	-0,033
3133,626	1,5	-0,046
3135,762	1	-0,067
3137,916	1	-0,083
3140,058	1	-0,1
3142,2	0,5	-0,156
3144,342	0,5	-0,194
3146,483	0,5	-0,275
3148,625	0	-0,393
3150,773	0	-0,401
3152,915	0	-0,511
3155,057	0	-0,573
3157,205	0	-0,54
3159,347	0	-0,729
3161,489	0	-0,821
3163,63	0	-0,957
3165,778	0	-1,009
3167,92	0	-1,139
3170,068	-0,5	-1,24
3172,21	-0,5	-1,348
3174,358	0	-1,46
3176,5	-0,5	-1,61
3178,642	-1	-1,796
3180,789	-0,5	-1,804
3182,931	-1	-1,909
3185,079	-1	-1,839
3187,227	-1	-1,859
3189,369	-1,5	-2,015
3191,511	-1	-2,045
3193,653	-1,5	-2,293
3195,795	-2,5	-2,497
3197,948	-3	-2,636
3200,09	-3,5	-2,829
3202,232	-4	-2,898
3204,374	-4,5	-3,001
3206,516	-5,5	-3,09
3208,664	-5	-3,13
3210,812	-5	-3,195
3212,954	-5,5	-3,326
3215,095	-5,5	-3,48
3217,231	-5,5	-3,5
3219,373	-5,5	-3,499
3221,515	-5,5	-3,498
3223,663	-5,5	-3,498
3225,799	-5,5	-3,497
3227,941	-5,5	-3,496
3230,083	-5,5	-3,493
3232,224	-5,5	-3,489
3234,366	-5,5	-3,482
3236,514	-5,5	-3,475
3238,656	-5	-3,462
3240,798	-5	-3,45
3242,946	-4,5	-3,415
3245,088	-4,5	-3,394
3246,534	1,5	0