File: Cycling_tests/_60perc/_4gap/entrada/_3.txt
Time (s)	Load (N)	Displacement (mm)
72,241	-11,5	-2,752
73,189	0,5	-0,233
74,131	-15	-3,498
75,067	1	-0,014
76,009	-13,5	-3,43
76,945	-1	-0,604
77,887	-6,5	-2,376
78,823	-7	-2,054
79,758	-0,5	-0,82
80,694	-14,5	-3,457
81,636	1,5	-0,002
82,58	-14,5	-3,488
83,514	0	-0,147
84,45	-8,5	-2,845
85,386	-4	-1,415
86,322	-3	-1,481
87,258	-12	-2,82
88,194	1	-0,018
89,136	-14,5	-3,498
90,072	1	-0,028
91,008	-11,5	-3,321
91,944	-2,5	-0,976
92,886	-5	-2,003
93,822	-8,5	-2,288
94,758	0	-0,624
95,7	-14,5	-3,5
96,641	1	-0,004
97,583	-14	-3,481
98,525	0	-0,143
99,461	-8,5	-2,837
100,397	-4	-1,408
101,339	-3	-1,476
102,281	-11	-2,738
103,223	1,5	-0,189
104,159	-14,5	-3,498
105,101	1	-0,017
106,043	-13	-3,409
106,979	-1,5	-0,669
107,921	-5,5	-2,221
108,864	-6,5	-2,05
109,799	-0,5	-0,808
110,735	-14	-3,497
111,671	1	-0,002
112,607	-14	-3,482
113,544	0	-0,207
114,479	-8	-2,762
115,414	-4,5	-1,508
116,35	-3	-1,409
117,292	-12	-2,847
118,228	1	-0,006
119,17	-14,5	-3,497
120,106	1	-0,04
121,054	-10,5	-3,252
121,99	-2,5	-1,026
122,926	-4,5	-1,886
123,862	-9	-2,47
124,804	0,5	-0,509
125,746	-14,5	-3,499
126,682	1	-0,008
127,624	-14	-3,463
128,56	0	-0,426
129,514	-7	-2,592
130,45	-5	-1,737
131,391	-2	-1,188
132,327	-13,5	-3,136
133,269	1,5	-0,001
134,211	-14	-3,494
135,155	1	-0,064
136,089	-9,5	-3,084
137,025	-3	-1,25
137,967	-3,5	-1,617
138,909	-11	-2,761
139,851	1	-0,153
140,799	-14	-3,498
141,747	1,5	-0,017
142,683	-11,5	-3,382
143,625	-1,5	-0,782
253,119	-13,5	-3,498
254,06	1,5	-0,018
254,996	-11,5	-3,4
255,932	-0,5	-0,709
256,868	-4,5	-2,198
257,81	-6	-2,128
258,746	-0,5	-0,812
259,689	-13,5	-3,457
260,636	1,5	-0,002
261,578	-13	-3,486
262,52	0	-0,17
263,462	-7,5	-2,78
264,398	-3,5	-1,528
265,346	-2,5	-1,446
266,295	-10,5	-2,862
267,23	1	-0,011
268,172	-13,5	-3,497
269,108	1,5	-0,031
270,05	-11	-3,336
270,992	-1	-0,884
271,939	-4,5	-2,08
272,875	-7	-2,244
273,823	0	-0,702
274,771	-13,5	-3,5
275,713	1,5	-0,003
276,655	-13	-3,478
277,609	0	-0,202
278,545	-7	-2,765
279,487	-3,5	-1,534
280,435	-2,5	-1,396
281,377	-11	-2,904
282,313	1,5	-0,011
283,249	-13	-3,497
284,191	1,5	-0,024
285,139	-10,5	-3,365
286,087	-1	-0,864
287,029	-4,5	-2,111
287,976	-5,5	-2,068
288,918	-1	-0,917
289,86	-13	-3,39
290,802	1,5	-0,002
291,744	-13	-3,49
292,686	0,5	-0,134
293,628	-8	-2,898
294,57	-3	-1,433
295,51	-2,5	-1,457
296,454	-10,5	-2,859
297,396	1,5	-0,082
298,338	-13	-3,498
299,274	1,5	-0,026
300,222	-10,5	-3,365
301,164	-1	-0,804
302,106	-4	-2,119
303,054	-6	-2,199
303,996	0	-0,75
304,932	-13	-3,5
305,873	1,5	-0,003
306,815	-13	-3,482
307,763	0	-0,152
308,699	-7,5	-2,85
309,641	-3	-1,439
310,589	-3	-1,576
311,525	-9,5	-2,694
312,467	1,5	-0,207
313,415	-13	-3,498
314,351	1,5	-0,015
315,293	-12	-3,426
316,235	-0,5	-0,644
317,183	-5	-2,334
318,125	-5	-1,95
319,073	-1,5	-0,996
320,015	-13	-3,39
320,951	1,5	-0,002
321,899	-13	-3,491
322,841	0,5	-0,105
323,782	-8	-2,983
324,73	-2	-1,274
325,666	-3	-1,726
326,602	-9	-2,644
327,55	1	-0,322
328,486	-13	-3,498
329,434	1,5	-0,012
330,376	-12	-3,43
331,312	-0,5	-0,694
332,254	-5	-2,291
333,202	-5,5	-1,979
334,144	-1	-1,017
335,086	-12,5	-3,232
336,034	1,5	-0,001
336,97	-13	-3,494
337,912	1	-0,077
338,854	-8,5	-3,09
339,789	-1,5	-1,15
340,731	-3	-1,823
341,673	-8	-2,528
342,615	1	-0,468
343,551	-12,5	-3,499
344,493	1,5	-0,008
345,441	-12	-3,462
346,377	0	-0,395
347,313	-5,5	-2,485
348,261	-4,5	-1,79
349,203	-1,5	-1,122
350,145	-12	-3,191
351,087	1,5	-0,001
352,029	-13	-3,494
352,971	1	-0,067
353,913	-8,5	-3,081
354,861	-1,5	-1,129
355,803	-3	-1,857
356,751	-7,5	-2,424
357,693	0,5	-0,541
358,628	-13	-3,499
359,57	1,5	-0,007
360,506	-12	-3,465
361,454	0	-0,409
434,842	1,5	-0,018
435,784	-10,5	-3,386
436,727	0	-0,684
437,674	-4,5	-2,246
438,616	-5,5	-2,058
439,558	-0,5	-0,858
440,5	-12,5	-3,414
441,442	1,5	-0,002
442,384	-12,5	-3,49
443,326	1	-0,12
444,268	-7,5	-2,967
445,203	-2	-1,293
446,145	-2,5	-1,628
447,087	-8	-2,624
448,029	1	-0,328
448,971	-12,5	-3,499
449,907	1,5	-0,015
450,849	-11	-3,406
451,797	-0,5	-0,658
452,739	-5	-2,296
453,687	-4,5	-1,969
454,623	-1	-0,965
455,565	-12,5	-3,296
456,507	1,5	-0,001
457,455	-12,5	-3,492
458,397	1	-0,088
459,339	-8,5	-3,046
460,281	-1,5	-1,238
461,229	-3	-1,73
462,171	-8	-2,532
463,112	1	-0,372
464,054	-12,5	-3,499
464,996	1,5	-0,008
465,944	-12	-3,462
466,886	0	-0,367
467,828	-5,5	-2,549
468,771	-4	-1,713
469,706	-2	-1,201
470,648	-11,5	-3,074
471,59	1,5	-0,001
472,526	-12,5	-3,495
473,468	1	-0,058
474,41	-9	-3,151
475,352	-1,5	-1,159
476,294	-3	-1,773
477,242	-7	-2,459
478,184	0,5	-0,403
479,126	-12,5	-3,499
480,062	1,5	-0,01
480,998	-11,5	-3,436
481,939	-0,5	-0,675
482,881	-4,5	-2,236
483,823	-4,5	-1,99
484,765	-1	-0,926
485,713	-12,5	-3,327
486,649	1,5	-0,002
487,585	-12	-3,489
488,521	1	-0,15
489,463	-7	-2,874
490,411	-2	-1,369
491,359	-2,5	-1,615
492,295	-8,5	-2,64
493,237	1	-0,334
494,179	-12	-3,499
495,115	1,5	-0,01
496,057	-11,5	-3,45
496,999	0	-0,483
497,94	-5	-2,424
498,876	-4,5	-1,894
499,819	-1,5	-1,085
500,754	-12	-3,237
501,702	1,5	-0,001
502,65	-12	-3,494
503,586	1	-0,081
504,528	-7,5	-3,029
505,476	-1,5	-1,18
506,412	-3	-1,726
507,354	-7,5	-2,546
508,296	1	-0,363
509,244	-12	-3,499
510,186	1,5	-0,008
511,128	-11,5	-3,448
512,07	0	-0,444
513,006	-5	-2,477
513,96	-3	-1,696
514,896	-1,5	-1,204
515,838	-10,5	-3,057
516,785	1,5	0
517,721	-12	-3,496
518,663	1,5	-0,044
519,605	-9	-3,241
520,547	-1	-1,017
521,489	-3	-1,872
522,437	-6,5	-2,39
523,379	0	-0,626
524,315	-12	-3,499
525,263	1,5	-0,004
526,205	-12	-3,472
527,147	0	-0,284
528,089	-5,5	-2,665
529,031	-3	-1,619
529,973	-1,5	-1,342
530,909	-10,5	-2,973
531,851	1,5	0
532,787	-12	-3,497
533,734	1,5	-0,035
534,682	-9,5	-3,296
535,624	-1	-0,96
536,566	-3	-1,956
537,514	-5,5	-2,282
538,456	0	-0,649
539,392	-12	-3,499
540,334	1,5	-0,004
541,27	-11,5	-3,464
542,212	0	-0,34
543,16	-5,5	-2,553
544,102	-3	-1,746
545,05	-1,5	-1,183
545,998	-10,5	-3,049
546,934	1,5	-0,001
547,876	-12	-3,495
548,818	1,5	-0,052
549,76	-8,5	-3,17
550,701	-1	-1,07
551,644	-3	-1,824
552,579	-7,5	-2,526
553,521	1	-0,41
554,457	-12	-3,499
555,399	1,5	-0,008
556,341	-11,5	-3,455
557,283	0	-0,458
558,225	-5	-2,463
559,167	-3,5	-1,825
560,109	-1,5	-1,07
561,057	-11,5	-3,186
561,999	1,5	-0,001
562,941	-12	-3,495
563,883	1,5	-0,064
564,827	-8	-3,149
565,767	-1	-1,138
566,709	-3	-1,81
567,65	-6,5	-2,457
568,592	0,5	-0,468
569,528	-12	-3,499
570,464	1,5	-0,009
571,406	-11,5	-3,452
572,348	0	-0,49
573,29	-5	-2,472
574,238	-3,5	-1,788
575,174	-1,5	-1,141
576,116	-11	-3,134
577,058	1,5	-0,001
578	-12	-3,494
578,942	1	-0,082
579,884	-7,5	-3,031
580,826	-1,5	-1,178
581,768	-2,5	-1,765
582,71	-7,5	-2,572
583,652	1,5	-0,332
584,594	-12	-3,499
585,542	1,5	-0,009
586,477	-11	-3,444
587,42	0	-0,494
588,361	-4,5	-2,416
589,303	-4	-1,884
590,245	-1	-1,016
591,187	-12	-3,183
592,129	1,5	-0,001
593,071	-12	-3,495
594,013	1,5	-0,053
594,955	-8	-3,168
595,897	-1,5	-1,254
596,833	-2,5	-1,643
597,775	-8,5	-2,645
598,711	1,5	-0,238
599,653	-12	-3,498
600,589	1,5	-0,015
601,531	-10,5	-3,405
602,473	0	-0,686
603,414	-4	-2,23
604,35	-4,5	-2,035
605,292	-0,5	-0,875
606,234	-12	-3,396
607,176	1,5	-0,002
608,118	-12	-3,489
609,06	1	-0,116
610,002	-6,5	-2,93
610,944	-2	-1,315
611,886	-2	-1,601
612,828	-8	-2,689
613,764	1,5	-0,259
614,7	-12	-3,498
760,419	-2,5	-1,67
761,361	-7	-2,559
762,303	1	-0,415
763,245	-11,5	-3,499
764,181	1,5	-0,01
765,129	-11	-3,454
766,071	0	-0,484
767,007	-4,5	-2,424
767,943	-4	-1,905
768,885	-1	-1,022
769,827	-11,5	-3,292
770,775	1,5	-0,001
771,711	-11,5	-3,492
772,653	1	-0,085
773,595	-7	-3,025
774,537	-1,5	-1,269
775,473	-2	-1,606
776,415	-8	-2,65
777,363	1,5	-0,278
778,304	-11,5	-3,498
779,24	1,5	-0,014
780,182	-10,5	-3,422
781,124	0	-0,63
782,06	-4	-2,311
783,002	-4,5	-2,014
783,944	-0,5	-0,962
784,886	-11,5	-3,366
785,834	1,5	-0,002
786,77	-11,5	-3,49
787,712	1	-0,106
788,648	-6,5	-2,924
789,596	-2	-1,33
790,538	-2,5	-1,666
791,48	-7,5	-2,575
792,422	1	-0,383
793,364	-11,5	-3,499
794,306	1,5	-0,009
795,242	-10,5	-3,436
796,183	0	-0,528
797,125	-4,5	-2,436
798,067	-3,5	-1,783
799,003	-1	-1,086
799,945	-11	-3,214
800,887	1,5	-0,001
801,829	-11,5	-3,494
802,771	1	-0,072
803,713	-7,5	-3,126
804,655	-1,5	-1,178
805,597	-2,5	-1,742
806,533	-7,5	-2,533
807,469	1	-0,384
808,411	-11,5	-3,499
809,359	1,5	-0,008
810,301	-10,5	-3,456
811,237	0	-0,433
812,173	-4,5	-2,485
813,115	-3,5	-1,804
814,05	-1	-1,097
814,992	-11	-3,17
815,928	1,5	-0,001
816,87	-11,5	-3,494
817,812	1	-0,063
818,754	-7,5	-3,136
819,69	-1,5	-1,157
820,632	-2	-1,758
821,574	-7,5	-2,566
822,516	1	-0,391
823,464	-11,5	-3,499
824,406	1,5	-0,008
825,342	-10,5	-3,448
826,284	0	-0,479
827,227	-4,5	-2,458
828,174	-3,5	-1,786
829,116	-1	-1,126
830,058	-11	-3,191
831	1,5	-0,001
831,941	-11,5	-3,494
832,877	1,5	-0,073
833,819	-7,5	-3,036
834,761	-1,5	-1,265
835,697	-2,5	-1,686
836,645	-8	-2,67
837,587	1,5	-0,267
838,529	-11,5	-3,498
839,465	1,5	-0,015
840,407	-10	-3,418
841,349	0	-0,563
842,285	-4	-2,355
843,221	-4	-1,974
844,163	-0,5	-0,921
845,111	-11,5	-3,376
846,047	1,5	-0,002
846,983	-11	-3,488
847,924	1	-0,122
848,866	-6,5	-2,93
849,814	-1,5	-1,317
850,75	-2	-1,606
851,692	-7,5	-2,603
852,634	1	-0,323
853,576	-11,5	-3,499
854,524	1,5	-0,009
855,466	-10,5	-3,448
856,408	0	-0,528
857,344	-4	-2,347
858,292	-3,5	-1,864
859,234	-1,5	-1,09
860,17	-11,5	-3,215
861,119	1,5	-0,001
862,06	-11,5	-3,494
863,002	1	-0,078
863,938	-6,5	-3,033
864,879	-1,5	-1,231
865,821	-2,5	-1,68
866,763	-7,5	-2,588
867,705	1	-0,321
868,641	-11,5	-3,498
869,583	1,5	-0,011
870,525	-10,5	-3,439
871,467	0	-0,555
872,403	-4,5	-2,34
873,345	-4	-1,922
874,287	-0,5	-0,993
875,223	-11,5	-3,338
876,159	1,5	-0,002
877,101	-11	-3,489
878,043	1	-0,123
878,979	-6,5	-2,901
879,915	-2	-1,433
880,857	-1,5	-1,493
881,799	-8	-2,753
882,734	1,5	-0,056
883,676	-11,5	-3,498
884,618	1,5	-0,024
885,566	-9,5	-3,376
886,502	-0,5	-0,85
887,444	-3	-2,051
888,386	-5	-2,174
889,328	-0,5	-0,788
890,27	-11,5	-3,499
891,212	1,5	-0,002
892,154	-11,5	-3,484
893,09	0	-0,182
894,032	-6	-2,8
894,974	-2	-1,536
895,91	-1,5	-1,296
896,852	-9,5	-3,003
897,794	1,5	-0,001
898,73	-11,5	-3,495
899,672	1,5	-0,058
900,608	-7,5	-3,101
901,555	-1	-1,089
902,491	-2,5	-1,755
903,427	-7,5	-2,56
904,369	1,5	-0,319
905,311	-11,5	-3,499
906,247	1,5	-0,014
907,189	-10	-3,43
908,131	0	-0,564
909,079	-4	-2,338
910,021	-4	-1,945
910,963	-0,5	-0,939
911,905	-11,5	-3,342
912,841	1,5	-0,002
913,783	-11	-3,49
914,725	1	-0,121
915,661	-6	-2,839
916,603	-2	-1,449
917,551	-2	-1,492
918,486	-9	-2,795
919,428	1,5	-0,108
920,37	-11,5	-3,498
921,306	1,5	-0,024
922,248	-9	-3,364
923,19	-0,5	-0,945
924,126	-2,5	-1,912
925,068	-5,5	-2,422
926,01	0,5	-0,511
926,952	-11	-3,499
927,888	1,5	-0,008
928,83	-11	-3,456
929,772	0	-0,464
930,708	-4,5	-2,464
931,65	-3	-1,868
932,592	-1	-1,048
933,528	-10,5	-3,232
934,47	1,5	-0,001
935,412	-11	-3,493
936,353	1	-0,08
937,289	-7	-3,034
938,225	-1,5	-1,312
939,161	-2	-1,548
940,097	-8,5	-2,813
941,039	1,5	-0,09
941,981	-11,5	-3,498
942,923	1,5	-0,022
943,859	-9	-3,353
944,801	-0,5	-0,878
945,737	-3	-1,981
946,679	-5,5	-2,328
947,615	0	-0,596
948,557	-11,5	-3,499
949,499	1,5	-0,004
950,435	-11	-3,47
951,377	0	-0,354
952,319	-4,5	-2,552
953,26	-3	-1,721
954,197	-1,5	-1,176
955,138	-10,5	-3,151
956,08	1,5	-0,001
957,016	-11	-3,493
957,958	1	-0,065
958,894	-7,5	-3,071
959,836	-1,5	-1,272
960,772	-2,5	-1,63
961,714	-7,5	-2,653
962,656	1	-0,267
963,592	-11	-3,498
964,534	1,5	-0,014
965,476	-10,5	-3,426
966,412	0	-0,704
967,348	-3,5	-2,181
968,284	-4,5	-2,084
969,233	-0,5	-0,862
970,168	-11	-3,427
971,11	1,5	-0,002
972,051	-11,5	-3,49
972,987	1	-0,113
973,929	-6,5	-2,953
974,871	-1,5	-1,335
975,813	-2,5	-1,64
976,749	-7	-2,631
1519,892	-7,5	-2,844
1520,834	1,5	-0,035
1521,782	-10,5	-3,497
1522,73	1,5	-0,02
1523,666	-8,5	-3,349
1524,602	0	-0,852
1525,538	-3	-1,986
1526,48	-4,5	-2,26
1527,416	0	-0,604
1528,358	-10,5	-3,5
1529,3	1,5	-0,003
1530,241	-10	-3,474
1531,183	0,5	-0,227
1532,119	-5	-2,722
1533,061	-1,5	-1,493
1533,997	-1,5	-1,382
1534,939	-8,5	-2,949
1535,875	1,5	0
1536,817	-10,5	-3,496
1537,753	1,5	-0,046
1538,695	-7,5	-3,187
1539,637	-0,5	-0,995
1540,573	-2,5	-1,901
1541,515	-4,5	-2,291
1542,451	0	-0,604
1543,393	-10,5	-3,5
1544,329	1,5	-0,003
1545,271	-10,5	-3,477
1546,207	0,5	-0,232
1547,143	-4,5	-2,651
1548,084	-2	-1,537
1549,02	-1	-1,316
1549,962	-8,5	-2,907
1550,904	1,5	0
1551,84	-10,5	-3,496
1552,782	1,5	-0,033
1553,724	-8	-3,292
1554,666	-0,5	-0,909
1555,602	-2,5	-1,956
1556,544	-4,5	-2,279
1557,486	0	-0,588
1558,422	-10,5	-3,499
1559,364	1,5	-0,004
1560,306	-10	-3,473
1561,248	0	-0,254
1562,19	-4,5	-2,705
1563,126	-2	-1,491
1564,068	-1,5	-1,409
1565,004	-8	-2,84
1565,945	1,5	-0,04
1566,881	-10,5	-3,497
1567,823	1,5	-0,023
1568,765	-8,5	-3,381
1569,701	0	-0,76
1570,643	-3	-2,135
1571,579	-4	-2,151
1572,521	0	-0,727
1573,469	-10,5	-3,492
1574,405	1,5	-0,002
1575,347	-10,5	-3,481
1576,289	0,5	-0,212
1577,231	-5,5	-2,73
1578,167	-1,5	-1,483
1579,103	-1,5	-1,43
1580,039	-7,5	-2,84
1580,987	1,5	-0,076
1581,929	-10,5	-3,498
1582,864	1,5	-0,029
1583,806	-7,5	-3,314
1584,748	0	-0,896
1585,69	-3	-2,025
1586,626	-4,5	-2,176
1587,568	0	-0,729
1588,51	-10,5	-3,486
1589,452	1,5	-0,002
1590,394	-10,5	-3,483
1591,33	0,5	-0,164
1592,278	-5,5	-2,832
1593,226	-1,5	-1,336
1594,162	-1,5	-1,529
1595,104	-7	-2,711
1596,04	1,5	-0,179
1596,982	-10,5	-3,498
1597,918	1,5	-0,017
1598,86	-9	-3,395
1599,802	-0,5	-0,801
1600,737	-2,5	-2,091
1601,691	-4	-2,063
1602,627	-0,5	-0,796
1603,569	-10,5	-3,5
1604,505	1,5	-0,003
1605,447	-10,5	-3,477
1606,389	0,5	-0,224
1607,325	-5	-2,652
1608,267	-2	-1,599
1609,203	-1	-1,234
1610,151	-8,5	-2,886
1611,093	1,5	-0,004
1612,029	-10,5	-3,497
1612,977	1,5	-0,022
1613,913	-8	-3,354
1614,855	-0,5	-0,829
1615,791	-2,5	-2,063
1616,733	-4,5	-2,199
1617,675	0	-0,659
1618,616	-10,5	-3,5
1619,558	1,5	-0,003
1620,494	-10	-3,474
1621,442	0	-0,211
1622,378	-4,5	-2,711
1623,32	-2	-1,498
1624,256	-1,5	-1,372
1625,198	-9,5	-3,028
1626,14	1,5	-0,001
1627,076	-10,5	-3,495
1628,012	1,5	-0,051
1628,948	-6,5	-3,116
1629,89	-0,5	-1,083
1630,826	-2	-1,808
1631,768	-5,5	-2,512
1632,71	1	-0,386
1633,646	-10,5	-3,499
1634,588	1,5	-0,009
1635,523	-9,5	-3,436
1636,459	0	-0,62
1637,401	-3	-2,295
1638,343	-3	-1,983
1639,279	0	-0,943
1640,221	-10,5	-3,328
1641,163	1,5	-0,001
1642,099	-10,5	-3,491
1643,041	1	-0,092
1643,983	-6	-3,014
1644,919	-1	-1,234
1645,861	-1,5	-1,67
1646,797	-7	-2,622
1647,739	1,5	-0,372
1648,675	-10,5	-3,499
1649,617	1,5	-0,012
1650,553	-9	-3,43
1651,495	0	-0,588
1652,431	-3	-2,297
1653,367	-3	-1,947
1654,308	-0,5	-0,947
1655,244	-10	-3,318
1656,186	1,5	-0,001
1657,122	-10	-3,491
1658,064	1	-0,098
1659	-5,5	-2,95
1659,942	-1	-1,338
1660,878	-1,5	-1,583
1661,838	-7	-2,64
1662,78	1,5	-0,301
1663,716	-10,5	-3,498
1664,658	1,5	-0,011
1665,6	-9	-3,436
1666,542	0	-0,578
1667,484	-3,5	-2,366
1668,42	-3	-1,852
1669,362	-0,5	-1,021
1670,31	-10	-3,142
1671,245	1,5	-0,001
1672,181	-10,5	-3,494
1673,129	1,5	-0,056
1674,071	-6,5	-3,177
1675,007	-0,5	-1,014
1675,949	-2	-1,903
1676,885	-5	-2,33
1677,827	0	-0,623
1678,769	-10,5	-3,5
1679,705	1,5	-0,003
1680,641	-10	-3,472
1681,577	0	-0,267
1682,519	-4,5	-2,652
1683,455	-2	-1,559
1684,397	-1	-1,399
1685,333	-8,5	-2,888
1686,275	1,5	-0,031
1687,216	-10,5	-3,497
1688,152	1,5	-0,032
1689,1	-8,5	-3,355
1690,036	0	-0,846
1690,978	-2,5	-2,07
1691,914	-4	-2,153
1692,856	0	-0,796
1693,792	-10	-3,5
1694,734	2	-0,003
1695,67	-10	-3,483
1696,618	0,5	-0,152
1697,566	-5	-2,84
1698,502	-1,5	-1,474
1699,444	-1,5	-1,453
1700,38	-8	-2,839
1701,322	1,5	-0,052
1702,264	-10,5	-3,498
1703,2	1,5	-0,019
1704,142	-9	-3,398
1705,077	0	-0,747
1706,013	-2,5	-2,096
1706,949	-4,5	-2,137
1707,891	0	-0,774
1708,83	-10	-3,498
1709,769	1,5	-0,002
1710,711	-10	-3,481
1711,647	0,5	-0,194
1712,589	-4,5	-2,775
1713,537	-1,5	-1,393
1714,473	-1	-1,492
1715,409	-7,5	-2,784
1716,351	1,5	-0,147
1717,293	-10	-3,498
1718,229	1,5	-0,019
1719,171	-8,5	-3,377
1720,107	0	-0,83
1721,055	-2,5	-2,088
1721,991	-4	-2,09
1722,932	0	-0,804
1723,868	-10	-3,427
1724,81	2	-0,002
1725,752	-10	-3,489
1726,688	1	-0,121
1727,63	-5,5	-2,916
1728,566	-1	-1,306
1729,508	-1,5	-1,598
1730,444	-6,5	-2,683
1731,386	1,5	-0,191
1732,328	-10	-3,498
1733,264	1,5	-0,016
1734,206	-9	-3,411
1735,142	0	-0,57
1736,084	-3	-2,315
1737,026	-2,5	-1,809
1737,962	-0,5	-1,092
1738,904	-9,5	-3,15
1739,84	1,5	-0,001
1740,775	-10,5	-3,494
1741,711	1	-0,076
1742,653	-6	-3,058
1743,589	-1	-1,174
1744,531	-1,5	-1,726
1745,473	-5,5	-2,446
1746,409	1,5	-0,412
1747,351	-10	-3,499
1748,287	1,5	-0,009
1749,235	-9,5	-3,446
1750,171	0	-0,53
1751,113	-3	-2,343
1752,055	-3	-1,892
1752,991	-0,5	-0,993
1753,933	-10	-3,174
1754,869	1,5	-0,001
1755,811	-10	-3,494
1756,747	1,5	-0,053
1757,695	-6,5	-3,195
1758,631	-0,5	-1,06
1759,572	-2	-1,835
1760,514	-5,5	-2,464
1761,45	1,5	-0,426
1762,392	-10,5	-3,499
1763,328	1,5	-0,008
1764,27	-9,5	-3,451
1765,206	0	-0,44
1766,154	-3,5	-2,491
1767,09	-2	-1,648
1768,032	-1	-1,242
1768,974	-9	-2,941
1769,91	1,5	0
1770,852	-10	-3,497
1771,788	1,5	-0,034
1845,049	-1	-1,45
1845,991	-7	-2,769
1846,927	2	-0,152
1847,869	-10	-3,498
1848,805	1,5	-0,015
1849,753	-9	-3,423
1850,689	0	-0,592
1851,631	-3,5	-2,302
1852,567	-2,5	-1,864
1853,509	-0,5	-1,112
1854,451	-9	-3,097
1855,387	1,5	-0,001
1856,329	-10	-3,495
1857,265	1,5	-0,046
1858,207	-7	-3,246
1859,143	-0,5	-1,004
1860,079	-2	-1,883
1861,015	-5	-2,369
1861,957	0,5	-0,555
1862,898	-10	-3,499
1863,834	1,5	-0,004
1864,776	-10	-3,472
1865,718	0,5	-0,274
1866,66	-4,5	-2,645
1867,596	-1,5	-1,578
1868,55	-1,5	-1,446
1869,486	-7,5	-2,756
1870,422	1,5	-0,096
1871,364	-10	-3,498
1872,3	1,5	-0,02
1873,242	-8,5	-3,393
1874,178	0	-0,716
1875,12	-3	-2,179
1876,056	-3,5	-2,029
1876,998	-0,5	-0,904
1877,94	-10	-3,278
1878,876	1,5	-0,001
1879,818	-10	-3,492
1880,753	1	-0,08
2062,369	0	-0,256
2063,311	-4,5	-2,644
2064,247	-1,5	-1,499
2065,189	-1,5	-1,444
2066,125	-7	-2,785
2067,067	1,5	-0,108
2068,003	-10	-3,498
2068,951	1,5	-0,016
2069,887	-9	-3,413
2070,829	0	-0,573
2071,771	-3	-2,337
2072,706	-2,5	-1,874
2073,642	-0,5	-0,985
2074,578	-9,5	-3,208
2075,52	1,5	-0,001
2076,456	-10	-3,493
2077,404	1	-0,057
2078,34	-6,5	-3,108
2079,282	-0,5	-1,074
2080,218	-2	-1,794
2081,16	-5	-2,418
2082,102	0,5	-0,502
2083,038	-10	-3,499
2083,98	1,5	-0,006
2084,916	-9,5	-3,465
2085,864	0	-0,318
2086,8	-4	-2,59
2087,742	-2	-1,693
2088,678	-1	-1,208
2089,62	-8	-3,05
2090,555	1,5	-0,001
2091,497	-9,5	-3,496
2092,439	1,5	-0,035
2093,381	-7	-3,272
2094,323	-0,5	-0,944
2095,259	-2,5	-1,921
2096,195	-4	-2,333
2097,131	0,5	-0,568
2098,073	-9,5	-3,499
2099,009	1,5	-0,004
2099,951	-9,5	-3,475
2100,887	0,5	-0,244
2101,829	-4,5	-2,725
2102,771	-1,5	-1,538
2103,707	-1	-1,348
2104,649	-7,5	-2,892
2105,585	1,5	0
2106,527	-9,5	-3,497
2107,463	1,5	-0,032
2108,404	-6,5	-3,29
2109,34	-0,5	-0,932
2110,282	-2	-2,005
2111,218	-4,5	-2,275
2112,154	0	-0,62
2113,09	-9,5	-3,499
2114,032	1,5	-0,004
2114,968	-9	-3,471
2115,91	0,5	-0,248
2116,852	-3,5	-2,654
2117,794	-1,5	-1,501
2118,73	-1	-1,368
2119,666	-8	-2,892
2120,608	1,5	0
2121,55	-9,5	-3,497
2122,492	1,5	-0,026
2123,428	-6,5	-3,271
2124,37	-0,5	-0,894
2125,311	-2	-2,008
2126,247	-4,5	-2,263
2127,183	0,5	-0,668
2128,125	-9,5	-3,5
2129,061	1,5	-0,003
2129,997	-9,5	-3,477
2130,939	0,5	-0,186
2131,875	-4,5	-2,711
2132,817	-1	-1,429
2278,297	-2,5	-1,823
2279,233	-0,5	-1,116
2280,175	-8,5	-3,045
2281,111	1,5	-0,001
2282,053	-9,5	-3,496
2282,988	1,5	-0,041
2283,931	-6,5	-3,241
2284,866	-0,5	-0,955
2285,808	-2	-1,986
2286,75	-3,5	-2,212
2287,692	0	-0,698
2288,628	-9,5	-3,492
2289,57	1,5	-0,002
2290,512	-9	-3,485
2291,448	0,5	-0,138
2292,39	-5	-2,886
2293,326	-1	-1,348
2294,268	-1,5	-1,616
2295,204	-5,5	-2,601
2296,146	1	-0,345
2297,088	-9	-3,499
2298,03	1,5	-0,009
2298,966	-9	-3,449
2299,901	0	-0,467
2300,843	-3,5	-2,48
2301,779	-2	-1,721
2302,721	-1	-1,227
2303,657	-8	-3,022
2304,599	1,5	0
2305,535	-9,5	-3,496
2306,477	1,5	-0,035
2307,413	-6,5	-3,3
2308,355	0	-0,883
2309,291	-2	-2,045
2310,233	-3	-2,153
2311,173	0	-0,742
2312,117	-9,5	-3,489
2313,059	1,5	-0,002
2313,995	-9	-3,483
2495,628	-4,5	-2,873
2496,564	-0,5	-1,333
2497,506	-1	-1,572
2498,442	-5,5	-2,693
2499,384	1,5	-0,225
2500,326	-9	-3,498
2501,262	1,5	-0,012
2502,204	-8	-3,435
2503,14	0	-0,581
2504,082	-3	-2,336
2505,024	-2,5	-1,889
2505,966	-0,5	-1,011
2506,902	-9	-3,225
2507,844	2	-0,001
2508,78	-9	-3,492
2509,728	1,5	-0,071
2510,669	-5,5	-3,095
2511,611	0	-1,14
2512,547	-1,5	-1,729
2513,489	-4,5	-2,505
2514,425	1,5	-0,385
2515,367	-9	-3,499
2516,309	1,5	-0,008
2517,245	-8,5	-3,448
2518,187	0	-0,536
2519,123	-3	-2,361
2520,065	-2,5	-1,885
2521,001	-0,5	-1,016
2521,943	-9	-3,232
2522,879	1,5	-0,001
2523,821	-9	-3,492
2524,757	1,5	-0,086
2525,705	-5	-3,037
2526,641	-0,5	-1,314
2527,583	-1,5	-1,644
2528,518	-5,5	-2,68
2529,466	1,5	-0,287
2530,402	-9	-3,498
2675,876	-9	-3,497
2676,812	1,5	-0,026
2677,748	-6,5	-3,318
2678,69	0	-0,889
2679,626	-2	-1,997
2680,562	-3,5	-2,199
2681,504	0	-0,737
2682,44	-9	-3,447
2683,382	1,5	-0,002
2684,318	-9	-3,488
2685,259	1	-0,112
2686,195	-4,5	-2,906
2687,137	-0,5	-1,298
2688,073	-1	-1,572
2689,015	-5,5	-2,615
2689,951	1,5	-0,29
2690,893	-9	-3,498
2691,829	1,5	-0,01
2692,765	-8	-3,428
2693,701	0	-0,541
2694,643	-3	-2,358
2695,579	-2,5	-1,844
2696,521	-0,5	-1,084
2697,463	-8,5	-3,126
2698,405	1,5	-0,001
2699,347	-9	-3,494
2700,283	1,5	-0,055
2701,225	-5,5	-3,195
2702,161	0	-1,054
2703,102	-1,5	-1,892
2704,038	-4	-2,366
2704,986	1	-0,552
2705,922	-9	-3,499
2706,864	1,5	-0,004
2707,8	-8,5	-3,468
2708,742	0	-0,3
2709,684	-3	-2,586
2710,626	-1,5	-1,58
2711,562	-1	-1,316
2784,8	-7	-3,353
2785,742	0	-0,77
2786,684	-2	-2,103
2787,62	-3	-2,119
2788,556	0	-0,692
2789,498	-9	-3,499
2790,439	1,5	-0,003
2791,375	-9	-3,479
2792,317	0,5	-0,187
2793,259	-3,5	-2,702
2794,201	-1,5	-1,512
2795,137	-0,5	-1,357
2796,079	-6,5	-2,856
2797,015	1,5	0
2797,957	-9	-3,497
2798,893	1,5	-0,028
2799,835	-6,5	-3,319
2800,771	0	-0,832
2801,713	-2	-2,052
2802,655	-3	-2,129
2803,591	0	-0,707
2804,539	-9	-3,492
2805,481	1,5	-0,002
2806,423	-9	-3,484
2807,359	1	-0,135
2808,294	-4,5	-2,824
2809,23	-1	-1,441
2810,166	-1	-1,45
2811,102	-6,5	-2,809
2812,038	1,5	-0,047
2812,98	-9	-3,498
2813,922	1,5	-0,017
2814,858	-7,5	-3,401
2815,8	0	-0,644
2816,736	-2,5	-2,189
2817,678	-2,5	-1,972
2818,614	0	-0,898
2819,556	-9	-3,266
2820,492	1,5	-0,001
2821,434	-9	-3,491
2822,37	1,5	-0,074
2823,306	-5	-3,023
2824,248	-0,5	-1,175
2825,184	-1,5	-1,69
2826,125	-5	-2,482
2827,061	1	-0,415
2828,003	-9	-3,499
2828,945	1,5	-0,007
2829,887	-8,5	-3,459
2830,823	0	-0,352
2831,765	-3	-2,6
2832,701	-1,5	-1,591
2833,643	-1	-1,32
2834,591	-6	-2,827
2835,527	1,5	-0,056
2836,463	-9	-3,497
2837,405	1,5	-0,02
2838,341	-7	-3,372
2839,283	0	-0,729
2840,219	-2,5	-2,168
2841,161	-2,5	-1,992
2842,103	0	-0,912
2843,038	-9	-3,332
2843,981	1,5	-0,002
2844,916	-9	-3,492
2845,858	1	-0,071
2846,794	-5	-3,054
2847,736	-0,5	-1,123
2848,672	-1	-1,736
2849,614	-4	-2,461
2850,55	0,5	-0,509
2851,492	-9	-3,499
2852,428	1,5	-0,005
2853,376	-8	-3,47
2854,312	0	-0,241
2855,254	-3,5	-2,727
2856,19	-1	-1,495
2857,132	-1	-1,446
2858,068	-5,5	-2,76
2859,004	1,5	-0,125
2859,946	-9	-3,498
2860,882	1,5	-0,015
2861,829	-7,5	-3,422
2862,765	0	-0,552
2863,707	-3	-2,37
2864,643	-2	-1,88
2865,585	-0,5	-1,084
2866,521	-8	-3,15
2867,463	2	-0,001
2868,399	-8,5	-3,495
2869,341	1,5	-0,045
2870,277	-5,5	-3,209
2871,213	0	-0,976
2872,149	-1,5	-1,941
2873,097	-3	-2,168
2874,033	0	-0,722
2874,975	-8,5	-3,489
2875,911	1,5	-0,002
2876,853	-8,5	-3,481
2877,795	0,5	-0,134
2878,736	-4,5	-2,902
2879,672	-0,5	-1,24
2880,614	-1,5	-1,671
2881,55	-4,5	-2,542
2882,492	1	-0,357
2883,428	-8,5	-3,499
2884,37	1,5	-0,01
2885,318	-8	-3,444
2886,254	0	-0,479
2887,196	-3	-2,464
2888,132	-2	-1,817
2889,074	-0,5	-1,167
2890,01	-8	-3,093
2890,952	1,5	-0,001
2891,888	-8	-3,494
2892,83	1,5	-0,04
2893,772	-6	-3,252
2894,713	0	-0,944
2895,649	-2	-1,973
2896,591	-3	-2,251
2897,533	0	-0,676
2898,475	-8	-3,5
2899,411	1,5	-0,003
2900,353	-8	-3,48
2901,295	1	-0,136
2902,237	-4,5	-2,903
2903,179	-0,5	-1,289
2904,115	-1	-1,633
2905,057	-4,5	-2,527
2905,993	1	-0,352
2906,935	-8,5	-3,499
2907,871	1,5	-0,007
2908,819	-8	-3,466
2909,755	0	-0,313
2910,697	-3	-2,576
2911,633	-1,5	-1,636
2912,574	-0,5	-1,269
2913,516	-6,5	-2,924
2914,458	1,5	-0,004
2915,394	-8,5	-3,497
2916,336	1,5	-0,023
2917,272	-6,5	-3,35
2918,22	0	-0,754
2919,156	-2	-2,089
2920,092	-2,5	-2,139
2921,034	0	-0,776
2921,976	-8	-3,382
2922,912	1,5	-0,002
2923,854	-8	-3,488
2924,79	1	-0,113
2925,726	-4	-2,859
2926,662	-0,5	-1,362
2927,604	-1	-1,546
2928,54	-5	-2,702
2929,482	1,5	-0,21
2930,423	-8	-3,498
2931,359	1,5	-0,014
2932,301	-7	-3,407
2933,237	0	-0,648
2934,179	-2	-2,252
2935,115	-2	-1,965
2936,057	-0,5	-0,998
2936,999	-7,5	-3,157
2937,941	2	-0,001
2938,877	-8	-3,493
2939,819	1,5	-0,057
2940,755	-5	-3,142
2941,697	0	-1,055
2942,633	-1	-1,788
2943,575	-4	-2,436
2944,511	1	-0,422
2945,453	-8	-3,499
2946,395	1,5	-0,007
2947,331	-7,5	-3,451
2948,266	0	-0,412
2949,202	-3	-2,542
2950,144	-1	-1,618
2951,08	-0,5	-1,272
2952,022	-6	-2,956
2952,958	1,5	0
2953,9	-8	-3,496
2954,836	1,5	-0,029
2955,778	-6	-3,313
2956,714	0	-0,9
2957,656	-2	-2,005
2958,592	-3	-2,298
2959,534	0,5	-0,592
2960,47	-8	-3,499
2961,418	1,5	-0,005
2962,354	-7,5	-3,471
2963,296	0,5	-0,284
2964,232	-3	-2,672
2965,168	-1	-1,576
2966,103	-1	-1,325
2967,045	-6	-2,92
2967,987	1,5	0
2968,929	-8	-3,497
2969,871	1,5	-0,027
2970,819	-6	-3,33
2971,755	0	-0,86
2972,691	-1,5	-1,983
2973,633	-3	-2,262
2974,569	0	-0,628
2975,511	-8	-3,5
2976,447	2	-0,004
2977,389	-7,5	-3,468
2978,325	0	-0,329
2979,267	-3	-2,587
2980,203	-1	-1,65
2981,151	-0,5	-1,241
2982,087	-6,5	-3,008
2983,028	1,5	0
2983,964	-8	-3,496
2984,906	1,5	-0,037
2985,848	-5,5	-3,256
2986,784	0	-0,933
2987,726	-1,5	-1,936
2988,662	-3	-2,27
2989,598	0,5	-0,662
2990,534	-8	-3,5
2991,476	1,5	-0,003
2992,412	-7,5	-3,48
2993,36	1	-0,131
2994,296	-4	-2,886
2995,238	-0,5	-1,338
2996,174	-1	-1,57
2997,116	-4,5	-2,613
2998,052	1,5	-0,352
2998,994	-7,5	-3,499
2999,93	1,5	-0,01
3000,871	-7,5	-3,456
3037,925	-0,5	-1,343
3038,867	-1	-1,572
3039,803	-4	-2,629
3040,745	1,5	-0,274
3041,687	-7	-3,499
3042,629	1,5	-0,011
3043,565	-6	-3,425
3044,507	0	-0,512
3045,449	-2,5	-2,494
3046,391	-1	-1,694
3047,327	-0,5	-1,213
3048,269	-6	-2,996
3049,205	1,5	0
3050,147	-7	-3,496
3051,089	1,5	-0,029
3052,025	-5,5	-3,338
3052,966	0	-0,803
3053,902	-1,5	-2,116
3054,838	-1,5	-2,086
3055,774	0	-0,788
3056,716	-7	-3,462
3057,652	1,5	-0,002
3058,594	-7	-3,486
3059,53	0,5	-0,135
3060,466	-3,5	-2,866
3061,402	-0,5	-1,384
3062,344	-1	-1,581
3063,28	-3,5	-2,595
3064,222	1,5	-0,283
3065,164	-7	-3,498
3066,106	1,5	-0,009
3067,042	-6,5	-3,441
3067,984	0	-0,435
3068,92	-3	-2,498
3069,862	-1	-1,635
3070,797	-0,5	-1,256
3071,745	-5	-2,902
3072,681	1,5	-0,001
3109,759	-5,5	-3,445
3110,695	0,5	-0,412
3111,631	-2	-2,452
3112,567	-0,5	-1,722
3113,509	-0,5	-1,188
3114,445	-4,5	-3,003
3115,387	1,5	0
3116,323	-6	-3,496
3117,271	1,5	-0,026
3118,219	-4,5	-3,328
3119,161	0	-0,806
3120,097	-1,5	-2,092
3121,039	-1,5	-2,106
3121,975	0	-0,842
3122,916	-6	-3,323
3123,852	1,5	-0,002
3124,794	-5,5	-3,489
3125,73	1	-0,102
3126,672	-3	-2,946
3127,614	0	-1,162
3128,55	-1	-1,718
3129,498	-2	-2,386
3130,434	0,5	-0,563
3131,376	-5,5	-3,5
3132,312	1,5	-0,004
3133,26	-5,5	-3,477
3134,196	1	-0,19
3135,138	-3	-2,765
3136,074	0	-1,426
3137,016	-0,5	-1,485
3137,952	-3	-2,733
3138,9	1,5	-0,208
3139,835	-5,5	-3,498
3140,771	1,5	-0,013
3141,713	-5	-3,418
3142,655	0	-0,611
3143,591	-2	-2,275
3144,533	-1	-1,897
3145,469	0	-0,935
3146,411	-5,5	-3,254
3147,347	1,5	-0,001
3148,289	-6	-3,492
3149,237	1	-0,068
3150,173	-3,5	-3,062
3151,115	0	-1,104
3152,051	-1	-1,745
3152,999	-2,5	-2,439
3153,935	1,5	-0,451
3154,877	-5,5	-3,499
3155,813	1,5	-0,006
3156,755	-5,5	-3,455
3157,69	0,5	-0,404
3158,633	-2	-2,55
3159,568	-0,5	-1,615
3160,51	-0,5	-1,258
3161,452	-4,5	-2,955
3162,388	1,5	0
3163,324	-5,5	-3,496
3164,266	1,5	-0,024
3165,202	-4	-3,323
3166,144	0	-0,788
3167,08	-1	-2,029
3168,022	-1,5	-2,099
3168,964	0	-0,831
3169,906	-5,5	-3,366
3170,842	1,5	-0,002
3171,778	-6	-3,486
3172,714	0,5	-0,132
3173,662	-2,5	-2,923
3174,604	0	-1,232
3175,539	-0,5	-1,627
3176,475	-3	-2,542
3177,417	1,5	-0,361
3178,359	-5,5	-3,499
3179,295	1,5	-0,008
3180,237	-5	-3,444
3181,173	0,5	-0,408
3217,945	1,5	-0,001