File: Cycling_tests/_60perc/_4gap/entrada/_4.txt
Time (s)	Load (N)	Displacement (mm)
72,252	-9	-2,251
73,938	-15	-3,494
75,618	-7	-2,482
77,304	0,5	-0,455
78,996	0	-0,087
80,676	-7	-1,892
82,362	-14,5	-3,498
84,041	-9	-2,815
85,739	-0,5	-0,793
87,431	1	-0,027
89,117	-4,5	-1,495
90,803	-14,5	-3,5
92,501	-11,5	-3,289
94,181	-3	-1,285
95,861	1	-0,007
97,553	-3	-1,225
99,232	-14,5	-3,206
100,924	-13	-3,417
102,604	-3	-1,521
104,296	1	-0,002
105,977	-1,5	-0,738
107,662	-11	-2,724
109,354	-14	-3,48
111,04	-5	-2,088
112,732	1	-0,058
114,418	0	-0,201
116,104	-7,5	-2,158
117,79	-14	-3,496
119,469	-7,5	-2,638
121,149	0,5	-0,538
122,835	1	-0,055
124,521	-5	-1,706
126,201	-14	-3,498
127,881	-9	-2,997
129,567	-1,5	-0,969
131,253	1	-0,013
132,945	-3	-1,144
134,625	-13,5	-3,129
136,31	-12,5	-3,416
137,99	-3,5	-1,642
139,676	1	-0,001
141,356	-1	-0,691
143,042	-10,5	-2,704
144,734	-13,5	-3,474
146,426	-4,5	-1,922
148,112	1	0
149,798	-0,5	-0,545
151,484	-10,5	-2,705
153,181	-13,5	-3,478
154,867	-4,5	-2,112
156,559	1	-0,228
158,251	0	-0,11
159,943	-6	-1,927
161,635	-13,5	-3,497
163,327	-7,5	-2,692
165,019	0	-0,632
166,705	1	-0,044
168,385	-4,5	-1,7
170,064	-13,5	-3,499
171,756	-9,5	-3,162
173,448	-2	-1,144
175,134	1	-0,012
176,832	-3	-1,345
178,518	-13,5	-3,479
180,204	-10	-3,268
254,3	-10,5	-2,761
255,992	-13	-3,476
257,683	-4	-1,928
259,381	1,5	0
261,073	0	-0,28
262,759	-7,5	-2,339
264,451	-13	-3,494
266,137	-5,5	-2,39
267,835	1	-0,412
269,527	0,5	-0,106
271,219	-5	-1,874
272,911	-13	-3,498
274,59	-7	-2,772
276,276	-0,5	-0,824
277,962	1,5	-0,028
279,66	-3	-1,414
281,346	-13	-3,315
283,038	-10,5	-3,378
284,724	-3	-1,612
286,416	1,5	-0,002
288,108	-0,5	-0,69
289,8	-9,5	-2,684
291,479	-12,5	-3,478
293,171	-4,5	-2,009
294,863	1,5	-0,001
296,555	-0,5	-0,568
298,253	-10	-2,77
299,939	-12,5	-3,478
301,631	-4,5	-2,108
303,323	1,5	-0,003
305,015	0	-0,359
306,701	-8,5	-2,518
308,398	-12,5	-3,49
310,084	-3,5	-1,985
311,776	1,5	-0,001
313,468	-0,5	-0,704
315,166	-10,5	-2,928
316,858	-12	-3,465
318,55	-3,5	-1,795
320,242	1,5	-0,002
321,928	-2,5	-1,32
323,632	-12,5	-3,425
325,318	-10	-3,338
327,003	-1,5	-1,081
328,701	1,5	-0,017
330,393	-4	-1,712
332,085	-12,5	-3,499
333,777	-7,5	-2,935
335,475	-1	-0,936
337,167	1	-0,066
338,853	-5,5	-2,014
340,545	-12,5	-3,497
342,237	-6	-2,607
343,928	0,5	-0,482
345,632	0,5	-0,102
347,324	-4,5	-1,785
349,016	-12,5	-3,499
350,702	-7,5	-2,917
352,4	-1	-1,012
354,092	1,5	-0,013
355,778	-4,5	-1,793
357,47	-12,5	-3,499
359,156	-6,5	-2,761
360,848	1	-0,354
471,301	-11	-3,423
472,993	-2,5	-1,653
474,691	1,5	-0,002
476,383	-0,5	-0,619
478,075	-10	-2,803
479,767	-12	-3,466
481,459	-3,5	-1,934
483,156	1,5	-0,004
484,848	0	-0,217
486,546	-5	-2,028
488,238	-12,5	-3,497
489,93	-6,5	-2,783
491,616	0	-0,623
493,314	1,5	-0,035
495,006	-3	-1,584
496,704	-12,5	-3,461
498,396	-10	-3,296
500,094	-1,5	-1,098
501,78	1,5	-0,011
503,465	-2,5	-1,406
505,163	-12	-3,499
506,855	-9,5	-3,257
508,541	-1,5	-1,072
510,233	1,5	-0,009
511,919	-1,5	-1,227
513,605	-12	-3,318
515,297	-10,5	-3,358
516,989	-2,5	-1,408
518,68	1,5	-0,009
520,366	-1,5	-1,221
522,058	-12	-3,248
523,744	-10,5	-3,39
525,442	-2,5	-1,508
527,134	1,5	-0,004
528,832	-0,5	-0,971
530,524	-12	-3,199
532,216	-11	-3,404
533,902	-2	-1,298
535,594	1,5	-0,015
537,279	-3	-1,534
538,971	-12	-3,499
540,663	-9	-3,187
542,349	-1,5	-1,086
544,047	1,5	-0,009
545,733	-1,5	-1,19
547,431	-11,5	-3,227
549,123	-10,5	-3,4
550,815	-2	-1,411
552,501	1,5	-0,007
554,186	-1,5	-1,186
555,878	-12	-3,376
557,564	-10	-3,351
559,262	-2,5	-1,656
560,942	1,5	-0,004
562,634	-1,5	-1,266
564,32	-12	-3,5
566,006	-9	-3,22
567,698	-1,5	-1,102
569,39	1,5	-0,016
571,076	-2,5	-1,517
572,767	-12	-3,499
574,459	-8	-3,062
576,145	-0,5	-0,8
577,831	1	-0,066
579,517	-4,5	-2,01
581,209	-12	-3,498
582,889	-5,5	-2,573
584,587	1,5	-0,323
586,273	0	-0,208
587,971	-7,5	-2,436
589,656	-12	-3,491
591,354	-4	-2,222
593,04	1,5	-0,006
594,732	0	-0,519
596,424	-9,5	-2,788
598,11	-11,5	-3,472
599,802	-3	-1,745
601,494	1,5	-0,002
603,18	-1	-0,964
604,866	-12	-3,197
606,557	-10,5	-3,428
608,255	-2,5	-1,563
609,947	1,5	-0,004
611,633	-2	-1,28
613,319	-12	-3,317
615,005	-9,5	-3,353
725,297	-10	-3,394
726,989	-2	-1,404
728,681	1,5	-0,005
730,372	-1,5	-1,17
732,058	-11	-3,344
733,744	-9,5	-3,363
735,436	-1,5	-1,395
737,122	1,5	-0,006
738,814	-1,5	-1,155
740,5	-11,5	-3,284
742,186	-9,5	-3,378
743,878	-1,5	-1,264
745,563	1,5	-0,011
747,255	-2,5	-1,371
748,935	-11,5	-3,5
750,621	-8,5	-3,241
752,319	-1,5	-1,086
754,005	1,5	-0,018
755,697	-3	-1,491
757,389	-11,5	-3,499
759,069	-6,5	-2,948
760,761	0	-0,711
762,441	1	-0,075
764,139	-4,5	-2,051
765,83	-11	-3,497
767,522	-5	-2,511
769,208	1,5	-0,268
770,894	0	-0,224
772,592	-5,5	-2,201
774,278	-11,5	-3,495
775,976	-4	-2,408
777,668	1,5	-0,165
779,36	0	-0,298
781,046	-7	-2,495
782,731	-11	-3,487
784,429	-3	-2,019
786,115	1,5	-0,001
787,813	0	-0,586
789,499	-7,5	-2,677
791,185	-11	-3,477
792,871	-2,5	-1,884
794,563	1,5	-0,001
796,249	-0,5	-0,683
797,934	-9,5	-2,811
799,626	-11	-3,472
801,312	-2,5	-1,86
802,998	1,5	-0,001
804,684	-0,5	-0,736
806,37	-9,5	-2,88
808,062	-11	-3,467
809,754	-2,5	-1,767
811,434	1,5	-0,002
813,12	-1	-1,019
814,806	-11	-3,228
816,491	-9,5	-3,386
818,177	-1,5	-1,328
819,863	1,5	-0,01
821,555	-1,5	-1,3
823,247	-11	-3,497
824,927	-7,5	-3,196
826,619	-1	-1,076
828,305	1,5	-0,019
829,991	-3	-1,584
831,677	-11,5	-3,499
833,363	-6,5	-2,93
835,054	-0,5	-0,793
836,74	1	-0,045
838,42	-4	-1,966
840,106	-11	-3,498
841,798	-5	-2,582
843,484	1	-0,346
845,176	0,5	-0,186
846,862	-5,5	-2,292
848,554	-11	-3,494
850,246	-4,5	-2,44
851,931	1	-0,412
853,611	0,5	-0,15
855,297	-5	-2,224
856,977	-11	-3,494
858,663	-4	-2,318
860,349	1,5	-0,004
862,047	0	-0,383
863,733	-7	-2,602
865,419	-11	-3,48
867,111	-3	-1,919
868,796	1,5	-0,001
870,482	-0,5	-0,857
872,18	-10,5	-3,05
873,866	-10,5	-3,444
875,552	-2	-1,551
877,244	1,5	-0,004
878,924	-1,5	-1,11
880,61	-11	-3,394
882,296	-8,5	-3,298
883,988	-1	-1,092
885,674	1,5	-0,018
887,359	-2,5	-1,627
889,045	-11	-3,499
890,737	-6	-2,874
892,423	0,5	-0,565
894,115	1	-0,095
895,813	-4,5	-2,186
897,499	-11	-3,494
899,191	-4	-2,315
900,877	1,5	-0,077
902,569	0	-0,395
904,254	-7	-2,588
905,94	-11	-3,485
907,632	-3	-1,977
909,318	1,5	-0,001
911,004	-0,5	-0,694
912,696	-9	-2,882
914,382	-10,5	-3,464
916,074	-2,5	-1,65
917,76	1,5	-0,003
919,452	-1	-1,028
921,137	-11	-3,284
922,823	-8,5	-3,336
924,515	-1,5	-1,095
926,207	1,5	-0,02
927,893	-3	-1,727
929,579	-11	-3,499
931,271	-5,5	-2,774
932,957	1,5	-0,378
934,643	0	-0,159
936,335	-5,5	-2,357
938,02	-11	-3,491
939,706	-3	-1,99
941,392	1,5	-0,001
943,084	-0,5	-0,76
944,77	-8,5	-2,869
946,456	-10,5	-3,46
948,142	-2	-1,512
949,834	1,5	-0,004
951,52	-1	-1,023
953,206	-11	-3,316
954,898	-9	-3,36
956,59	-0,5	-0,87
958,281	1,5	-0,033
959,967	-3	-1,856
961,659	-11	-3,498
963,351	-5,5	-2,648
965,043	1	-0,325
966,729	0	-0,281
968,428	-5,5	-2,434
970,113	-10,5	-3,49
971,805	-3	-2,072
973,49	1,5	-0,001
975,183	0	-0,6
976,868	-8,5	-2,814
1123,182	-4	-1,994
1124,868	-10,5	-3,497
1126,554	-4,5	-2,605
1128,24	1	-0,476
1129,926	1	-0,11
1131,617	-4,5	-2,138
1133,303	-11	-3,495
1134,983	-4	-2,425
1136,675	1,5	-0,26
1138,361	0	-0,238
1140,047	-5,5	-2,35
1141,733	-10,5	-3,493
1143,419	-4	-2,318
1145,105	1,5	-0,114
1146,803	0	-0,32
1148,489	-6	-2,405
1150,174	-10,5	-3,491
1151,86	-3,5	-2,21
1153,546	1,5	-0,181
1155,232	0	-0,296
1156,918	-6	-2,404
1158,604	-10,5	-3,492
1160,29	-3	-2,136
1161,976	1,5	0
1163,662	0	-0,535
1165,348	-7	-2,6
1167,033	-10,5	-3,486
1168,725	-3	-2,151
1170,411	1,5	-0,031
1172,097	0	-0,391
1173,783	-7	-2,536
1175,469	-10,5	-3,488
1177,155	-3,5	-2,195
1178,841	1,5	-0,13
1180,539	0	-0,3
1182,225	-6	-2,359
1183,917	-10,5	-3,493
1185,602	-3	-2,183
1187,282	1,5	-0,001
1188,968	0	-0,605
1190,654	-8	-2,825
1192,34	-10,5	-3,468
1194,026	-2,5	-1,784
1195,724	1,5	-0,001
1197,41	0	-0,64
1199,096	-8	-2,79
1200,782	-10,5	-3,468
1202,467	-2	-1,689
1204,153	1,5	-0,003
1205,839	-0,5	-0,974
1207,531	-10	-3,148
1209,217	-9	-3,377
1210,903	-1	-1,302
1212,589	1,5	-0,01
1214,275	-1,5	-1,384
1215,961	-10,5	-3,5
1217,641	-6	-3,051
1219,326	0	-0,822
1221,006	1,5	-0,051
1222,692	-3	-1,874
1224,39	-10,5	-3,498
1226,076	-5	-2,705
1227,762	0,5	-0,507
1229,448	0,5	-0,116
1231,134	-4,5	-2,159
1232,82	-10,5	-3,495
1234,506	-4	-2,418
1236,191	1,5	-0,201
1237,883	0	-0,259
1239,575	-6	-2,421
1241,261	-10,5	-3,491
1242,947	-3,5	-2,145
1244,639	1,5	-0,001
1246,325	-0,5	-0,677
1248,011	-8	-2,842
1249,697	-10	-3,457
1251,383	-1,5	-1,594
1253,074	1,5	-0,004
1254,76	-1,5	-1,215
1256,452	-10,5	-3,36
1258,138	-8	-3,323
1259,824	-1	-1,132
1261,51	1,5	-0,019
1263,196	-2,5	-1,656
1264,888	-10,5	-3,499
1266,568	-5	-2,692
1268,254	0,5	-0,546
1269,94	0,5	-0,123
1271,625	-5	-2,288
1273,311	-10,5	-3,493
1275,003	-3,5	-2,24
1276,689	1,5	-0,041
1278,369	0	-0,466
1280,061	-7,5	-2,682
1281,747	-10,5	-3,475
1283,433	-2,5	-1,773
1285,125	1,5	-0,002
1286,805	-0,5	-0,95
1288,485	-10	-3,165
1290,17	-9	-3,387
1291,856	-1	-1,286
1293,542	1,5	-0,01
1295,222	-2	-1,51
1296,908	-10,5	-3,499
1298,594	-6	-2,945
1300,28	0	-0,677
1301,96	1	-0,072
1303,646	-3,5	-2,039
1305,332	-10,5	-3,496
1307,017	-4,5	-2,496
1308,703	1	-0,339
1310,389	0,5	-0,192
1312,081	-5,5	-2,306
1313,767	-10,5	-3,493
1315,453	-3,5	-2,33
1317,139	1,5	-0,175
1318,825	0	-0,287
1320,511	-6	-2,539
1322,197	-10,5	-3,482
1323,894	-3	-1,939
1325,58	1,5	-0,001
1327,266	-0,5	-0,832
1328,952	-9,5	-3,02
1330,638	-9,5	-3,432
1332,318	-1,5	-1,448
1334,004	1,5	-0,005
1335,696	-1,5	-1,192
1337,382	-10,5	-3,306
1339,08	-8,5	-3,378
1340,766	-1,5	-1,342
1342,451	1,5	-0,008
1344,143	-1,5	-1,271
1345,829	-10,5	-3,461
1347,515	-7,5	-3,246
1349,201	-1	-1,038
1350,887	1,5	-0,02
1352,567	-2,5	-1,694
1354,253	-10,5	-3,499
1355,945	-5,5	-2,854
1357,631	0	-0,662
1359,316	1	-0,064
1361,002	-3,5	-1,95
1362,688	-10,5	-3,497
1364,374	-4,5	-2,542
1366,06	1,5	-0,239
1367,746	0	-0,236
1369,426	-5,5	-2,446
1371,112	-10,5	-3,488
1372,798	-3	-2,034
1374,484	1,5	-0,001
1376,176	-0,5	-0,685
1377,855	-9	-2,94
1379,541	-10	-3,45
1381,233	-2	-1,62
1382,919	1,5	-0,003
1384,605	-1	-1,179
1386,285	-10,5	-3,259
1387,971	-8,5	-3,382
1389,657	-1,5	-1,362
1391,349	1,5	-0,008
1393,035	-1,5	-1,359
1394,72	-10,5	-3,499
1396,412	-7,5	-3,201
1398,098	-1	-0,902
1399,796	1,5	-0,022
1401,482	-3	-1,921
1403,168	-10,5	-3,497
1404,854	-5	-2,677
1406,54	1	-0,452
1408,22	0,5	-0,178
1409,906	-5	-2,3
1411,598	-10,5	-3,493
1413,283	-3,5	-2,167
1414,969	1,5	0
1416,649	0	-0,534
1418,329	-8	-2,797
1420,021	-10	-3,468
1421,707	-2,5	-1,735
1423,405	1,5	-0,002
1425,085	-0,5	-0,937
1426,771	-10	-3,196
1428,463	-9	-3,387
1430,148	-1	-1,243
1431,84	1,5	-0,013
1433,52	-1,5	-1,485
1435,206	-10,5	-3,499
1436,892	-6	-3,038
1438,578	-0,5	-0,851
1440,27	1,5	-0,032
1441,956	-2,5	-1,764
1443,642	-10,5	-3,498
1445,328	-4,5	-2,628
1447,014	1	-0,441
1448,693	0	-0,205
1450,379	-5,5	-2,5
1452,065	-10	-3,487
1453,751	-2,5	-1,939
1455,443	1,5	-0,002
1457,129	-0,5	-0,904
1458,815	-9,5	-3,102
1460,507	-9	-3,412
1462,193	-1	-1,314
1463,872	1,5	-0,011
1465,558	-1,5	-1,477
1467,25	-10,5	-3,499
1468,936	-6	-2,971
1470,622	0	-0,619
1472,302	1	-0,089
1473,988	-4,5	-2,161
1475,674	-10,5	-3,494
1477,354	-3,5	-2,173
1479,046	1,5	-0,001
1480,726	0	-0,673
1482,411	-9	-2,994
1484,097	-9,5	-3,434
1485,783	-1,5	-1,42
1487,469	1,5	-0,009
1489,161	-1,5	-1,396
1490,853	-10,5	-3,499
1492,539	-6,5	-3,046
1494,225	0	-0,687
1495,911	1	-0,071
1497,597	-4	-2,158
1499,288	-10,5	-3,495
1500,974	-4	-2,38
1502,66	1,5	0
1504,352	0	-0,478
1506,038	-7	-2,681
1507,724	-10	-3,478
1509,41	-2,5	-1,794
1511,102	1,5	-0,002
1512,794	-0,5	-0,87
1514,474	-10	-3,103
1516,159	-9	-3,409
1517,845	-1,5	-1,352
1519,537	1,5	-0,009
1521,241	-1,5	-1,364
1522,945	-10	-3,499
1524,631	-6	-3,037
1526,323	0	-0,791
1528,015	1,5	-0,043
1529,701	-3,5	-1,93
1531,393	-10,5	-3,497
1533,078	-4,5	-2,512
1534,764	1,5	-0,227
1536,45	0	-0,339
1538,136	-6	-2,569
1539,828	-10	-3,486
1541,514	-2,5	-1,986
1543,206	1,5	-0,001
1544,892	0	-0,756
1546,578	-9	-3,029
1548,264	-9,5	-3,434
1549,95	-1,5	-1,528
1551,635	1,5	-0,005
1553,321	-1	-1,144
1555,013	-10	-3,272
1556,699	-8,5	-3,372
1558,385	-1	-1,333
1560,071	1,5	-0,007
1561,757	-1	-1,34
1563,449	-10	-3,491
1565,135	-7	-3,228
1566,821	-0,5	-1,016
1568,512	1,5	-0,022
1570,198	-2,5	-1,667
1571,884	-10	-3,499
1573,57	-5,5	-2,914
1575,256	0	-0,717
1576,942	1,5	-0,063
1578,628	-3	-2,033
1580,32	-10	-3,496
1582,006	-3,5	-2,365
1583,698	1,5	-0,058
1585,378	0	-0,442
1587,069	-6	-2,626
1588,761	-10	-3,48
1590,447	-2,5	-1,912
1592,139	1,5	-0,001
1593,825	0	-0,836
1595,511	-9,5	-3,102
1597,203	-8	-3,414
1598,889	-1,5	-1,398
1600,575	1,5	-0,008
1602,261	-1,5	-1,356
1603,94	-10	-3,499
1605,626	-5,5	-2,982
1607,312	0	-0,758
1608,998	1	-0,058
1610,684	-3,5	-2,045
1612,376	-10	-3,497
1614,062	-3,5	-2,462
1615,76	1,5	-0,289
1617,446	0	-0,228
1619,132	-5,5	-2,432
1620,818	-10	-3,49
1622,503	-3	-2,038
1624,189	1,5	-0,001
1625,875	0	-0,716
1627,561	-9	-2,916
1629,247	-9,5	-3,451
1630,927	-1,5	-1,498
1632,613	1,5	-0,005
1634,293	-1,5	-1,234
1635,979	-10	-3,349
1637,665	-8	-3,322
1639,356	-1	-1,133
1641,042	1,5	-0,016
1642,722	-2	-1,578
1644,408	-10	-3,499
1646,094	-6	-3,052
1647,78	-0,5	-0,913
1649,466	1,5	-0,028
1651,152	-2,5	-1,69
1652,838	-10	-3,499
1654,524	-5	-2,792
1656,209	1	-0,53
1657,895	1	-0,098
1659,581	-4	-2,193
1661,267	-10	-3,494
1662,953	-3	-2,267
1664,645	1,5	-0,052
1666,331	0	-0,379
1668,017	-6	-2,517
1669,697	-10	-3,484
1671,383	-2,5	-1,875
1673,069	1,5	-0,002
1674,754	-0,5	-0,86
1676,44	-9,5	-3,127
1678,126	-9	-3,421
1679,812	-1,5	-1,413
1681,498	1,5	-0,007
1683,19	-1,5	-1,216
1684,876	-10	-3,486
1686,562	-7,5	-3,265
1688,248	-0,5	-0,972
1689,934	1,5	-0,028
1691,619	-3	-1,731
1693,299	-10	-3,499
1694,985	-5	-2,805
1696,671	0	-0,656
1698,357	1	-0,064
1700,049	-3	-1,841
1701,735	-10	-3,498
1703,421	-5	-2,74
1705,107	1	-0,478
1706,793	0,5	-0,097
1708,472	-4,5	-2,13
1710,158	-10	-3,495
1711,844	-3,5	-2,33
1713,53	1,5	-0,036
1715,216	0	-0,447
1716,902	-6	-2,589
1718,594	-9,5	-3,481
1720,28	-2	-1,776
1721,966	1,5	-0,002
1723,652	-0,5	-0,937
1725,344	-9,5	-3,148
1727,035	-8	-3,4
1728,721	-1,5	-1,38
1730,407	1,5	-0,009
1732,099	-1,5	-1,357
1733,785	-10	-3,5
1735,477	-6	-3,127
1737,163	-0,5	-0,92
1738,849	1,5	-0,026
1740,535	-2,5	-1,619
1742,215	-10	-3,499
1743,906	-5,5	-2,926
1745,592	0	-0,778
1747,284	1	-0,053
1748,97	-3	-1,889
1750,656	-10,5	-3,497
1752,342	-4,5	-2,644
1754,022	1	-0,465
1755,708	0,5	-0,114
1757,394	-4,5	-2,195
1759,08	-10	-3,494
1760,766	-3,5	-2,328
1762,451	1,5	-0,103
1764,137	0	-0,359
1765,823	-6	-2,545
1767,515	-10	-3,485
1769,201	-2,5	-1,982
1770,887	1,5	-0,001
1772,573	0	-0,604
1774,259	-7,5	-2,8
1775,939	-10	-3,463
1777,625	-1,5	-1,678
1779,316	1,5	-0,002
1781,002	-0,5	-0,954
1782,688	-10	-3,201
1784,38	-9	-3,407
1786,066	-1	-1,402
1787,764	1,5	-0,006
1789,45	-1	-1,149
1791,136	-10	-3,382
1792,822	-7,5	-3,283
1794,502	-0,5	-1,072
1796,199	1,5	-0,016
1797,885	-1,5	-1,479
1799,571	-10	-3,499
1801,257	-5,5	-2,916
1802,943	0	-0,677
1804,623	1	-0,063
1806,309	-3,5	-1,993
1808,001	-10	-3,497
1809,687	-4	-2,551
1811,373	1	-0,374
1813,059	0,5	-0,184
1814,744	-5	-2,323
1816,436	-10	-3,492
1818,122	-3	-2,23
1819,808	1,5	-0,077
1821,494	0	-0,386
1823,18	-6	-2,605
1824,866	-9,5	-3,48
1826,552	-2,5	-1,865
1828,238	1,5	-0,001
1829,924	0	-0,832
1831,61	-9,5	-3,131
1833,295	-9	-3,415
1834,981	-1	-1,387
1836,667	1,5	-0,006
1838,353	-1	-1,187
1840,039	-9,5	-3,402
1841,725	-7	-3,282
1843,417	-1	-1,169
1845,103	1,5	-0,012
1846,789	-1,5	-1,374
1848,475	-10	-3,489
1850,16	-6,5	-3,218
1851,846	-0,5	-0,984
1853,532	1,5	-0,024
1855,224	-2	-1,634
1856,904	-10	-3,498
1858,59	-5,5	-2,852
1860,276	0	-0,703
1861,962	1,5	-0,046
1863,648	-3	-1,887
1865,328	-9,5	-3,498
1867,019	-4,5	-2,673
1868,705	1	-0,466
1870,391	1	-0,109
1872,077	-4	-2,134
1873,763	-10	-3,495
1875,449	-3,5	-2,393
1877,135	1,5	-0,168
1878,821	0	-0,252
1880,507	-5,5	-2,454
1882,187	-9,5	-3,488
1883,878	-3	-2,092
1885,558	1,5	-0,001
1887,244	0	-0,577
1888,93	-6	-2,727
1890,616	-9,5	-3,472
1892,296	-2	-1,761
1893,988	1,5	-0,002
1895,668	0	-0,904
1897,354	-8,5	-3,112
1899,034	-8,5	-3,405
1900,719	-1	-1,354
1902,405	1,5	-0,008
1904,097	-1	-1,302
1905,783	-9,5	-3,5
1907,469	-6,5	-3,126
1909,149	-0,5	-0,878
1910,835	1,5	-0,028
1912,527	-1,5	-1,715
1914,213	-9,5	-3,498
1915,905	-4,5	-2,785
1917,585	0,5	-0,526
1919,27	1	-0,09
1920,956	-3,5	-2,119
1922,642	-9,5	-3,495
1924,328	-3,5	-2,373
1926,02	1,5	-0,185
1927,7	0	-0,302
1929,386	-5	-2,51
1931,078	-9,5	-3,486
1932,758	-2,5	-2,018
1934,444	1,5	-0,001
1936,129	0	-0,566
1937,815	-6,5	-2,722
1939,501	-9,5	-3,468
1941,187	-2	-1,754
1942,873	1,5	-0,002
1944,559	-0,5	-0,858
1946,245	-8	-3,02
1947,931	-8	-3,424
1949,617	-1,5	-1,462
1951,309	1,5	-0,004
1952,995	-0,5	-1,156
1954,68	-9,5	-3,307
1956,366	-7,5	-3,337
1958,064	-1	-1,31
1959,756	1,5	-0,007
1961,442	-1	-1,305
1963,134	-9,5	-3,486
1964,82	-6,5	-3,212
1966,5	-0,5	-0,968
1968,186	1,5	-0,025
1969,872	-2	-1,705
1971,552	-9,5	-3,498
1973,237	-4,5	-2,722
1974,923	0	-0,604
1976,609	1	-0,07
1978,295	-3	-2,002
1979,993	-9,5	-3,498
1981,673	-4	-2,561
1983,359	1,5	-0,358
1985,045	1	-0,178
1986,731	-4,5	-2,317
1988,423	-9,5	-3,493
2026,244	-3	-2,301
2027,93	1,5	-0,031
2029,616	0	-0,439
2031,308	-6	-2,649
2032,994	-9	-3,477
2034,674	-2	-1,786
2036,36	1,5	-0,002
2038,046	-0,5	-0,859
2039,732	-9	-3,11
2041,417	-8,5	-3,399
2043,109	-1,5	-1,375
2044,795	1,5	-0,006
2046,481	-1	-1,252
2048,173	-9,5	-3,496
2049,859	-7	-3,251
2051,545	-0,5	-1,066
2053,231	1,5	-0,02
2054,917	-2	-1,652
2056,609	-9,5	-3,499
2058,295	-4,5	-2,769
2059,98	0	-0,677
2061,666	1,5	-0,064
2063,352	-3	-2,025
2065,038	-9,5	-3,496
2066,724	-4	-2,52
2068,41	1	-0,359
2070,096	0,5	-0,175
2071,788	-4,5	-2,334
2073,474	-9,5	-3,492
2075,16	-3	-2,152
2076,845	1,5	-0,001
2078,537	0	-0,525
2080,235	-6	-2,727
2081,915	-9,5	-3,47
2083,607	-2	-1,792
2085,293	1,5	-0,002
2086,979	0	-0,847
2088,665	-8	-3,024
2090,351	-8,5	-3,43
2092,043	-1,5	-1,477
2093,729	1,5	-0,005
2095,414	-1	-1,215
2097,094	-9,5	-3,439
2098,78	-7	-3,29
2100,46	-1	-1,131
2102,152	1,5	-0,013
2103,838	-1,5	-1,477
2105,518	-9,5	-3,499
2107,204	-5,5	-2,962
2108,89	0	-0,733
2110,576	1,5	-0,051
2112,267	-3	-1,843
2113,953	-9,5	-3,498
2115,645	-4	-2,716
2117,331	1	-0,544
2119,011	0,5	-0,1
2120,697	-4,5	-2,235
2122,383	-9,5	-3,494
2124,069	-3	-2,266
2125,755	1,5	-0,018
2127,441	0	-0,419
2129,126	-6	-2,649
2130,818	-9	-3,478
2132,504	-2	-1,905
2134,19	1,5	-0,001
2135,876	0	-0,766
2137,562	-8,5	-2,99
2139,248	-8	-3,432
2140,934	-1,5	-1,544
2142,62	1,5	-0,004
2144,312	-1	-1,143
2145,998	-9,5	-3,456
2147,683	-6	-3,237
2149,369	-0,5	-1,071
2151,055	1,5	-0,018
2152,741	-1,5	-1,605
2154,421	-9,5	-3,499
2156,113	-5	-2,929
2157,793	0	-0,722
2159,479	1	-0,054
2161,165	-3	-1,953
2162,851	-9,5	-3,497
2164,542	-3,5	-2,521
2166,228	1,5	-0,321
2167,914	0,5	-0,171
2169,6	-4,5	-2,258
2171,286	-9	-3,494
2172,966	-2	-2,119
2174,652	1,5	0
2176,338	0	-0,498
2178,024	-6,5	-2,739
2179,716	-9	-3,471
2181,401	-1,5	-1,704
2183,087	1,5	-0,002
2184,773	-0,5	-0,956
2186,459	-9,5	-3,208
2188,145	-7,5	-3,379
2189,831	-1	-1,237
2191,523	1,5	-0,011
2193,209	-1	-1,371
2194,889	-9	-3,499
2196,581	-5,5	-3,116
2198,267	0	-0,938
2199,952	1,5	-0,029
2201,638	-2	-1,72
2203,324	-9,5	-3,499
2205,01	-4,5	-2,743
2206,696	0,5	-0,546
2208,382	1	-0,089
2210,062	-4	-2,169
2211,742	-9,5	-3,494
2213,422	-2,5	-2,219
2215,108	1,5	-0,003
2216,793	0	-0,403
2218,479	-5,5	-2,574
2220,165	-9	-3,483
2221,851	-2	-1,944
2223,531	1,5	-0,001
2225,217	0	-0,714
2226,903	-6	-2,672
2228,595	-9	-3,477
2230,281	-2,5	-2,02
2231,967	1,5	-0,001
2233,652	0	-0,517
2235,332	-6,5	-2,756
2237,018	-9	-3,471
2238,704	-1,5	-1,752
2240,39	1,5	-0,003
2242,076	-0,5	-1,02
2243,762	-9,5	-3,231
2245,448	-7,5	-3,383
2247,14	-1	-1,32
2248,826	1,5	-0,008
2250,512	-1	-1,324
2252,197	-9	-3,5
2253,877	-6	-3,164
2255,563	-0,5	-1,042
2257,249	1,5	-0,017
2258,935	-1,5	-1,455
2260,621	-9,5	-3,499
2262,307	-5,5	-3,086
2263,993	-0,5	-0,947
2265,679	1,5	-0,028
2267,365	-1,5	-1,691
2269,05	-9	-3,499
2270,736	-4,5	-2,922
2272,416	0	-0,62
2274,102	0	-0,275
2275,788	-5	-2,469
2277,474	-9	-3,487
2279,16	-1,5	-1,671
2280,846	1,5	-0,002
2282,532	0	-0,888
2284,218	-9	-3,355
2285,903	-7	-3,3
2287,589	-1	-1,161
2289,275	1,5	-0,028
2290,961	-2	-1,805
2292,647	-9,5	-3,498
2294,333	-4,5	-2,722
2296,019	1	-0,519
2297,705	1	-0,079
2299,391	-3	-2,049
2301,077	-9,5	-3,497
2302,763	-4	-2,627
2304,448	1	-0,44
2306,134	0,5	-0,117
2307,82	-3,5	-2,15
2309,506	-9,5	-3,495
2311,186	-3	-2,317
2312,866	1,5	-0,001
2314,552	0	-0,612
2316,238	-7	-2,804
2317,924	-9	-3,471
2319,61	-2	-1,862
2321,296	1,5	-0,001
2322,987	0	-0,698
2324,673	-6,5	-2,756
2326,359	-9	-3,476
2328,045	-2	-1,815
2329,731	1,5	-0,002
2331,423	0	-0,816
2333,109	-7,5	-2,928
2334,795	-8,5	-3,453
2336,481	-2	-1,76
2338,167	1,5	-0,002
2339,852	-0,5	-0,84
2341,532	-8	-2,946
2343,218	-8,5	-3,454
2344,904	-1,5	-1,678
2346,59	1,5	-0,002
2348,276	0	-0,795
2349,962	-7,5	-2,935
2351,642	-8,5	-3,45
2353,328	-1,5	-1,607
2355,014	1,5	-0,003
2356,699	-0,5	-0,894
2358,385	-8	-2,979
2360,071	-8,5	-3,443
2361,757	-1,5	-1,496
2363,443	1,5	-0,004
2365,129	-0,5	-1,084
2366,809	-9	-3,217
2368,495	-7,5	-3,396
2370,175	-1	-1,419
2371,867	1,5	-0,005
2373,552	-1	-1,144
2375,244	-9,5	-3,499
2376,93	-6	-3,18
2378,616	-0,5	-1,01
2380,308	1,5	-0,018
2381,994	-1,5	-1,589
2383,686	-9	-3,499
2385,372	-5	-2,943
2387,058	0	-0,858
2388,738	1,5	-0,031
2390,43	-1,5	-1,674
2392,115	-8,5	-3,499
2393,801	-3,5	-2,509
2395,493	1,5	-0,329
2397,179	0,5	-0,176
2398,865	-3,5	-2,233
2400,551	-9	-3,494
2402,237	-3	-2,359
2403,923	1,5	-0,184
2405,609	0,5	-0,221
2407,295	-3,5	-2,311
2408,98	-9	-3,494
2410,666	-2	-2,094
2412,352	1,5	0
2414,032	0	-0,446
2415,73	-5	-2,483
2417,416	-9	-3,489
2419,108	-2	-2,124
2420,794	1,5	0
2422,48	0	-0,466
2424,16	-5	-2,599
2425,846	-8,5	-3,482
2427,543	-2,5	-2,065
2429,229	1,5	-0,001
2430,915	0	-0,65
2432,601	-6,5	-2,862
2434,287	-8	-3,465
2435,985	-1,5	-1,764
2437,671	1,5	-0,002
2439,357	0	-0,927
2441,043	-8	-3,153
2442,729	-7,5	-3,406
2444,42	-1	-1,444
2446,106	1,5	-0,005
2447,792	-0,5	-1,071
2449,478	-8,5	-3,323
2451,164	-7	-3,348
2452,85	-1	-1,366
2454,536	1,5	-0,007
2456,222	-0,5	-1,236
2457,902	-8,5	-3,414
2495,717	-7,5	-3,434
2497,403	-1	-1,525
2499,095	1,5	-0,004
2500,781	-0,5	-1,175
2502,467	-8,5	-3,372
2504,159	-6,5	-3,345
2505,845	-0,5	-1,23
2507,531	1,5	-0,01
2509,217	-1	-1,34
2510,909	-8,5	-3,486
2512,595	-6	-3,236
2514,28	-0,5	-1,127
2515,96	1,5	-0,016
2517,646	-1	-1,536
2519,332	-8,5	-3,499
2521,018	-5	-3,041
2522,704	0	-0,848
2524,396	1,5	-0,037
2526,082	-2	-1,866
2527,762	-8,5	-3,498
2529,448	-4	-2,65
2531,133	0,5	-0,509
2532,819	1	-0,1
2534,505	-3	-2,012
2536,197	-8,5	-3,497
2537,883	-3,5	-2,616
2539,581	1	-0,467
2541,261	0,5	-0,116
2542,947	-3	-2,142
2544,633	-8,5	-3,495
2546,319	-3	-2,412
2548,005	1,5	-0,255
2549,69	0,5	-0,187
2551,376	-4	-2,37
2553,062	-8,5	-3,491
2554,748	-2,5	-2,185
2556,434	1,5	-0,021
2558,12	0	-0,452
2559,806	-5	-2,624
2561,486	-8,5	-3,481
2563,172	-1,5	-1,763
2564,858	1,5	-0,002
2566,543	0	-0,822
2568,235	-6,5	-2,926
2569,921	-8	-3,461
2571,613	-1,5	-1,745
2573,299	1,5	-0,007
2574,985	-0,5	-1,196
2576,671	-8	-3,265
2578,357	-6,5	-3,374
2580,043	-1	-1,357
2581,729	1,5	-0,007
2583,414	-0,5	-1,266
2585,1	-8	-3,444
2586,786	-6	-3,303
2588,472	-0,5	-1,189
2590,158	1,5	-0,012
2591,844	-0,5	-1,375
2593,53	-8	-3,5
2595,228	-6	-3,245
2596,914	-0,5	-1,106
2598,6	2	-0,016
2600,286	-0,5	-1,447
2601,971	-8	-3,5
2603,657	-5	-3,146
2605,343	0	-0,991
2607,035	1,5	-0,02
2608,727	-0,5	-1,54
2610,413	-8	-3,499
2612,099	-5	-3,111
2613,779	-0,5	-0,958
2615,465	1,5	-0,028
2617,151	-1	-1,644
2618,836	-8	-3,499
2620,522	-4,5	-2,911
2622,208	0	-0,72
2623,894	1,5	-0,05
2625,58	-1,5	-1,908
2627,266	-8	-3,498
2628,946	-3,5	-2,633
2630,626	1	-0,432
2632,312	0,5	-0,146
2633,998	-3,5	-2,281
2635,684	-8	-3,492
2637,369	-2	-2,115
2639,055	1,5	-0,001
2676,871	0	-0,718
2678,557	-7	-3,039
2680,243	-7	-3,43
2681,929	-1	-1,405
2683,621	1,5	-0,008
2685,307	-0,5	-1,299
2686,993	-8	-3,5
2688,678	-5	-3,166
2690,358	-0,5	-1,061
2692,044	1,5	-0,02
2693,73	-1	-1,594
2695,416	-8	-3,499
2697,102	-4	-2,877
2698,788	0	-0,642
2700,474	1	-0,07
2702,16	-2	-1,991
2703,846	-8	-3,497
2705,532	-3	-2,564
2707,217	1	-0,317
2708,903	0	-0,18
2710,589	-3	-2,272
2712,275	-7,5	-3,493
2713,967	-2,5	-2,287
2715,653	1,5	-0,071
2717,339	0	-0,399
2719,025	-4,5	-2,534
2720,705	-8	-3,486
2722,391	-2	-1,976
2724,076	1,5	-0,001
2725,762	0	-0,679
2727,448	-5,5	-2,812
2729,134	-7,5	-3,469
2730,82	-1,5	-1,685
2732,512	1,5	-0,002
2734,198	0	-0,998
2735,884	-7,5	-3,229
2737,57	-6	-3,381
2739,256	-1	-1,343
2740,947	1,5	-0,009
2742,633	-0,5	-1,318
2744,313	-7,5	-3,486
2745,999	-5	-3,262
2747,685	-0,5	-1,042
2785,495	1,5	-0,007
2787,181	-0,5	-1,179
2788,861	-7,5	-3,312
2790,547	-5,5	-3,338
2792,233	-1	-1,212
2793,912	1,5	-0,016
2795,598	-1	-1,615
2797,284	-7,5	-3,499
2798,97	-4	-2,841
2800,656	0	-0,701
2802,342	1	-0,066
2804,028	-2,5	-2,029
2805,714	-7,5	-3,497
2807,4	-2,5	-2,411
2809,086	1,5	-0,236
2810,771	0	-0,239
2812,463	-4	-2,524
2814,143	-7	-3,483
2815,829	-1,5	-1,907
2817,515	1,5	-0,001
2819,201	0	-0,816
2820,881	-6,5	-3,008
2822,567	-6	-3,428
2824,253	-1	-1,415
2825,939	1,5	-0,006
2827,625	-0,5	-1,265
2829,31	-7,5	-3,499
2830,996	-5	-3,25
2832,676	-0,5	-1,077
2834,362	1,5	-0,018
2836,048	-1	-1,604
2837,728	-7	-3,499
2839,414	-4,5	-3,072
2841,1	0	-0,942
2842,786	1,5	-0,023
2844,472	-1	-1,711
2846,158	-7,5	-3,498
2847,843	-3,5	-2,866
2849,529	0	-0,721
2851,221	1,5	-0,052
2852,901	-2,5	-2,003
2854,587	-7,5	-3,497
2856,279	-3	-2,53
2857,959	1,5	-0,251
2859,645	0,5	-0,22
2861,331	-3	-2,396
2863,017	-7,5	-3,49
2864,702	-1,5	-2,092
2866,388	1,5	-0,001
2868,074	0	-0,591
2869,76	-4,5	-2,73
2871,446	-7	-3,475
2873,126	-1,5	-1,786
2874,806	1,5	-0,002
2876,492	0	-0,968
2878,178	-6,5	-3,194
2879,864	-5,5	-3,384
2881,549	-0,5	-1,294
2883,241	1,5	-0,01
2884,927	-0,5	-1,506
2886,613	-7,5	-3,499
2888,299	-3,5	-2,907
2889,985	0	-0,645
2891,671	1	-0,115
2893,357	-2,5	-2,222
2895,043	-7	-3,493
2896,729	-2	-2,153
2898,415	1,5	0
2900,106	0	-0,489
2901,792	-4,5	-2,702
2903,472	-6,5	-3,474
2905,158	-1,5	-1,83
2906,844	1,5	-0,002
2908,536	0	-0,87
2910,222	-6	-3,057
2911,902	-6	-3,419
2913,588	-1	-1,394
2915,274	1,5	-0,006
2916,959	-0,5	-1,196
2918,645	-7	-3,471
2920,331	-4,5	-3,199
2922,017	-0,5	-0,976
2923,703	1,5	-0,021
2925,389	-1	-1,658
2927,075	-6	-3,499
2928,761	-3	-2,882
2930,447	0	-0,668
2932,145	1	-0,047
2933,83	-1,5	-1,99
2935,516	-6	-3,497
2937,202	-2,5	-2,518
2938,888	1,5	-0,286
2940,574	0,5	-0,226
2942,26	-3	-2,399
2943,946	-6,5	-3,489
2945,632	-2	-2,201
2947,312	1,5	0
2948,998	0	-0,528
2950,684	-4,5	-2,853
2952,369	-6	-3,453
2954,061	-1	-1,578
2955,753	1,5	-0,004
2957,439	-0,5	-1,115
2959,125	-6	-3,432
2960,811	-4,5	-3,253
2962,497	0	-0,941
2964,183	1,5	-0,029
2965,869	-1	-1,694
2967,567	-6	-3,499
2969,252	-3	-2,885
2970,944	0	-0,68
2972,63	1	-0,066
2974,316	-1,5	-2,016
2976,008	-6	-3,497
2977,694	-2	-2,293
2979,38	1,5	0
2981,066	0	-0,579
2982,746	-4	-2,802
2984,438	-6	-3,467
2986,123	-1	-1,661
2987,809	1,5	-0,003
2989,495	0	-1,068
2991,181	-6	-3,269
2992,867	-4,5	-3,36
2994,571	-0,5	-1,342
2996,257	1,5	-0,008
2997,943	0	-1,348
2999,629	-6	-3,5
3001,315	-3,5	-3,186
3003,007	-0,5	-1,05
3004,692	1,5	-0,019
3006,378	-0,5	-1,68
3008,058	-5,5	-3,498
3009,744	-3	-2,724
3011,43	1	-0,415
3013,116	1	-0,136
3014,796	-2	-2,37
3016,482	-5,5	-3,489
3018,168	-1,5	-2,056
3019,86	1,5	-0,001
3021,545	0	-0,711
3023,231	-4,5	-2,941
3024,917	-5,5	-3,442
3026,603	-0,5	-1,466
3028,295	1,5	-0,004
3029,981	0	-1,148
3031,667	-5,5	-3,462
3033,353	-4	-3,238
3035,039	-0,5	-1,034
3036,725	1,5	-0,019
3038,41	-0,5	-1,716
3040,102	-5,5	-3,498
3041,788	-3	-2,837
3043,474	0	-0,629
3045,16	1	-0,081
3046,84	-1,5	-2,109
3048,532	-5,5	-3,496
3050,212	-1,5	-2,298
3051,898	1,5	-0,006
3053,578	0	-0,486
3055,264	-3,5	-2,775
3056,949	-5,5	-3,465
3058,629	-1	-1,602
3060,315	1,5	-0,004
3062,001	0	-0,973
3063,693	-5	-3,12
3065,379	-5	-3,405
3067,077	-0,5	-1,395
3068,763	1,5	-0,007
3070,449	0	-1,27
3072,129	-5,5	-3,491
3073,808	-3,5	-3,25
3075,506	0	-1,077
3077,192	1,5	-0,016
3078,878	-0,5	-1,536
3080,564	-5	-3,499
3082,25	-2,5	-2,781
3083,936	0,5	-0,578
3085,622	1	-0,075
3087,302	-1,5	-2,1
3088,988	-5	-3,496
3090,674	-2	-2,423
3092,359	1,5	-0,217
3094,045	0	-0,28
3095,731	-2,5	-2,53
3097,411	-5	-3,482
3099,103	-1	-1,914
3100,789	1,5	-0,001
3102,475	0	-0,82
3104,161	-4,5	-3,008
3105,847	-4,5	-3,428
3107,539	-1	-1,466
3109,224	1,5	-0,005
3110,904	0	-1,26
3112,596	-5	-3,364
3114,276	-4	-3,282
3115,956	-0,5	-1,056
3117,642	1,5	-0,021
3119,328	-0,5	-1,64
3121,02	-5	-3,499
3122,706	-2,5	-2,919
3124,392	0	-0,636
3126,078	1	-0,069
3127,769	-1	-2,036
3129,455	-5	-3,496
3131,141	-2	-2,477
3132,827	1,5	-0,315
3134,513	0,5	-0,189
3136,205	-1,5	-2,275
3137,891	-5	-3,494
3139,577	-2	-2,375
3141,257	1,5	-0,185
3142,937	0	-0,287
3144,622	-2	-2,41
3146,308	-5	-3,49
3147,994	-1,5	-2,114
3149,68	1,5	0
3151,36	0	-0,596
3153,046	-3,5	-2,778
3154,732	-5	-3,473
3156,418	-1	-1,814
3158,104	1,5	-0,002
3159,79	0	-0,856
3161,475	-4,5	-3,028
3163,167	-4,5	-3,432
3164,853	-0,5	-1,457
3166,539	1,5	-0,004
3168,225	0	-1,101
3169,911	-5	-3,221
3171,603	-4,5	-3,41
3173,289	-1	-1,424
3174,981	1,5	-0,005
3176,667	0	-1,163
3178,347	-5	-3,339
3180,032	-4	-3,335
3181,454	1,5	-0,001