File: Cycling_tests/_60perc/_4gap/entrada/_5.txt
Time (s)	Load (N)	Displacement (mm)
0	0	-0,03
2,147	0	-0,046
4,379	-0,5	-0,566
6,503	0	-0,441
8,614	0,5	-0,238
10,726	0,5	-0,102
12,838	0,5	-0,009
14,956	0,5	0
17,068	1	0
19,18	0,5	-0,001
21,292	0,5	-0,001
23,404	1	-0,001
25,527	1	-0,001
27,645	1	-0,001
29,757	0,5	-0,001
31,875	1	-0,002
33,987	1	-0,002
36,105	1	-0,003
38,229	1	-0,005
40,347	1	-0,006
42,464	1	-0,008
44,576	1	-0,01
46,694	1	-0,01
48,806	1	-0,011
50,93	1	-0,016
53,048	1	-0,02
55,172	1,5	-0,024
57,285	1	-0,04
59,407	1	-0,048
61,525	1	-0,062
63,643	0	-0,102
65,755	0	-0,208
67,879	0	-0,202
70,003	0	-0,198
72,121	0	-0,237
74,251	0	-0,257
76,363	0	-0,372
78,492	-0,5	-0,488
80,616	-0,5	-0,438
82,729	-0,5	-0,573
84,84	-1	-0,641
86,958	-1	-0,793
89,076	-2	-0,983
91,194	-3	-1,216
93,323	-3	-1,29
95,453	-3,5	-1,385
97,583	-4	-1,5
99,719	-4,5	-1,528
101,831	-5	-1,696
103,961	-5,5	-1,738
106,073	-5,5	-1,821
108,191	-6	-1,896
110,309	-6,5	-1,998
112,426	-7	-2,084
114,544	-8	-2,232
116,662	-8	-2,323
118,798	-8,5	-2,303
120,91	-9	-2,378
123,04	-9	-2,428
125,17	-9	-2,405
127,294	-9	-2,444
129,406	-9,5	-2,502
131,541	-9	-2,514
133,659	-10,5	-2,593
135,783	-10,5	-2,638
137,908	-11,5	-2,71
140,025	-12	-2,768
142,149	-12	-2,824
144,267	-12,5	-2,888
182,616	-14,5	-3,446
184,74	-14,5	-3,479
186,864	-14,5	-3,498
188,988	-14,5	-3,5
191,112	-14,5	-3,499
193,23	-14,5	-3,499
195,366	-14,5	-3,499
197,502	-14,5	-3,499
199,638	-14,5	-3,499
201,761	-14,5	-3,498
203,891	-14,5	-3,498
206,015	-14,5	-3,498
208,139	-14,5	-3,497
210,258	-14,5	-3,496
212,375	-14	-3,495
214,493	-14	-3,49
216,616	-14	-3,485
218,734	-14	-3,477
220,864	-13,5	-3,463
222,982	-12,5	-3,434
225,106	-12	-3,4
227,23	-11	-3,354
229,354	-10,5	-3,257
231,484	-9	-3,062
233,607	-8	-2,877
235,737	-7,5	-2,681
237,873	-7,5	-2,649
239,997	-6	-2,492
242,121	-6	-2,399
244,245	-5,5	-2,259
246,381	-5	-2,2
248,505	-4,5	-1,974
250,628	-4	-1,902
252,746	-3,5	-1,748
254,882	-3	-1,652
257,018	-3	-1,528
259,148	-2,5	-1,412
261,266	-2	-1,167
263,402	-2	-1,113
265,532	-2	-1,083
267,661	-1	-0,967
269,785	-0,5	-0,817
271,921	0	-0,708
274,051	0	-0,63
276,187	0	-0,64
278,317	1	-0,552
280,441	1	-0,469
282,577	1,5	-0,339
284,695	1,5	-0,237
286,831	1,5	-0,146
288,954	1,5	-0,009
291,084	1,5	0
293,208	1,5	-0,001
295,338	1,5	-0,001
297,456	1,5	-0,002
299,58	1,5	-0,004
301,704	1,5	-0,004
303,833	1,5	-0,006
305,957	1,5	-0,008
308,087	1,5	-0,012
310,211	1,5	-0,014
312,341	1,5	-0,018
314,483	1,5	-0,026
316,601	1,5	-0,044
318,731	1,5	-0,064
320,854	1	-0,094
322,984	1	-0,106
325,114	0,5	-0,146
327,244	0	-0,2
329,362	0	-0,348
331,492	0	-0,443
333,622	0	-0,564
335,746	-0,5	-0,705
337,87	-0,5	-0,733
339,993	-1	-0,884
342,129	-0,5	-0,843
344,259	-1,5	-1,044
346,377	-2,5	-1,283
348,501	-3	-1,46
350,631	-3,5	-1,624
352,767	-3,5	-1,668
354,897	-5	-1,858
357,026	-5,5	-2,059
359,156	-7	-2,254
361,286	-7,5	-2,407
363,416	-8,5	-2,534
365,54	-10	-2,738
367,67	-10	-2,795
369,8	-11,5	-2,929
371,924	-12	-2,988
374,054	-12,5	-3,078
376,171	-13,5	-3,321
378,307	-13,5	-3,466
380,431	-13,5	-3,499
382,567	-13,5	-3,499
384,697	-13,5	-3,498
386,821	-13,5	-3,497
388,939	-13,5	-3,496
391,069	-13,5	-3,495
393,186	-13	-3,488
395,31	-13	-3,478
397,434	-12,5	-3,461
399,564	-12	-3,432
401,688	-11	-3,385
403,824	-11	-3,346
405,948	-10	-3,264
408,083	-9,5	-3,205
410,219	-9	-3,194
412,343	-8,5	-2,963
414,461	-7	-2,808
416,591	-6,5	-2,714
418,721	-5,5	-2,55
420,845	-5,5	-2,362
422,975	-4,5	-2,251
425,099	-4,5	-2,164
427,216	-3,5	-1,898
429,34	-3	-1,752
431,464	-3	-1,654
433,588	-2,5	-1,514
435,724	-2,5	-1,433
437,854	-2	-1,296
439,972	-2	-1,184
442,084	-1,5	-0,963
444,211	-1	-0,963
446,331	0	-0,814
448,455	0	-0,785
450,585	-0,5	-0,76
452,709	0	-0,676
454,839	1	-0,529
456,957	1	-0,439
459,075	1	-0,342
461,198	1,5	-0,35
463,322	1,5	-0,239
465,446	1,5	-0,259
467,564	1,5	-0,153
469,688	1,5	-0,036
471,83	1,5	-0,009
473,954	1,5	0
476,084	1,5	0
478,214	1,5	0
480,343	1,5	-0,001
482,473	1,5	-0,001
484,597	1,5	-0,001
486,727	1,5	-0,001
488,845	1,5	-0,002
490,969	1,5	-0,002
493,093	1,5	-0,002
495,223	1,5	-0,002
497,346	1,5	-0,003
499,47	2	-0,004
501,6	1,5	-0,005
503,724	1,5	-0,009
505,842	1,5	-0,015
507,96	1,5	-0,032
510,09	1,5	-0,036
512,22	1,5	-0,055
514,343	1	-0,078
516,467	1	-0,124
518,597	1	-0,174
520,727	0,5	-0,248
522,851	0	-0,438
524,975	0	-0,546
527,105	0	-0,668
529,223	-0,5	-0,793
531,346	0	-0,76
533,476	-0,5	-0,807
535,6	-1	-0,928
537,718	-1	-1,055
539,842	-1,5	-1,148
541,966	-2	-1,235
544,096	-1,5	-1,276
546,214	-2	-1,378
548,343	-2,5	-1,413
550,467	-2,5	-1,501
552,591	-3	-1,578
554,721	-3	-1,636
556,839	-3,5	-1,832
558,975	-4	-1,897
561,093	-4,5	-2,052
563,223	-5,5	-2,15
565,347	-6	-2,281
567,476	-7	-2,482
569,606	-7,5	-2,497
571,724	-8	-2,583
573,842	-8	-2,578
575,972	-7,5	-2,545
578,102	-7,5	-2,559
580,22	-8	-2,588
582,344	-10	-2,834
584,461	-10,5	-2,983
586,579	-12	-3,149
588,703	-12,5	-3,305
590,827	-12,5	-3,408
592,945	-12,5	-3,5
595,069	-12,5	-3,499
597,193	-12,5	-3,499
599,317	-12,5	-3,499
601,44	-12,5	-3,498
603,564	-12,5	-3,497
605,688	-12,5	-3,497
607,818	-12,5	-3,496
609,936	-12,5	-3,492
612,066	-12,5	-3,489
614,19	-12,5	-3,479
616,32	-12	-3,466
618,449	-12	-3,461
620,573	-11,5	-3,426
622,697	-10,5	-3,376
624,815	-9,5	-3,277
626,933	-9	-3,112
629,057	-7,5	-2,961
631,181	-7	-2,884
633,311	-7	-2,8
635,446	-6	-2,73
637,564	-5,5	-2,59
639,688	-5	-2,396
641,818	-4,5	-2,234
643,942	-3,5	-2,078
646,06	-3	-1,843
648,19	-3	-1,744
650,32	-2,5	-1,638
652,444	-2	-1,514
654,567	-2	-1,463
656,685	-1,5	-1,362
658,809	-1,5	-1,216
660,927	-1,5	-1,157
663,057	-1	-1,068
665,181	0	-0,933
667,305	0	-0,792
669,429	0	-0,662
671,552	0,5	-0,57
673,676	1	-0,483
675,806	1	-0,361
677,942	1,5	-0,306
680,072	1,5	-0,198
682,196	1,5	-0,083
684,32	1,5	-0,012
686,444	1,5	-0,002
688,561	1,5	-0,001
690,685	1,5	-0,001
692,809	1,5	-0,001
694,927	1,5	-0,002
697,051	1,5	-0,003
699,175	1,5	-0,004
701,299	1,5	-0,006
703,429	1,5	-0,008
705,546	1,5	-0,012
707,664	1,5	-0,015
709,788	1,5	-0,019
711,906	1,5	-0,027
714,03	1,5	-0,03
716,154	1,5	-0,043
718,272	1,5	-0,061
720,396	1	-0,099
722,52	0,5	-0,148
724,643	0,5	-0,188
726,773	0,5	-0,211
728,891	0	-0,338
731,009	0	-0,518
733,133	0	-0,6
735,263	0	-0,653
737,387	-0,5	-0,734
739,517	-0,5	-0,755
741,64	-0,5	-0,853
743,764	-1	-0,983
745,876	-1,5	-1,145
748,006	-1,5	-1,23
750,136	-2	-1,282
752,254	-2	-1,351
754,378	-2,5	-1,487
756,502	-2	-1,441
758,631	-2,5	-1,551
760,749	-3	-1,695
762,873	-3	-1,778
764,997	-4	-1,902
767,121	-4	-2,011
769,245	-5	-2,151
771,369	-5,5	-2,249
773,487	-6	-2,345
775,61	-6,5	-2,433
777,728	-8	-2,645
779,852	-9	-2,749
781,976	-9,5	-2,875
784,106	-10,5	-3,033
786,23	-12	-3,125
788,354	-12	-3,192
790,478	-12	-3,26
792,596	-12	-3,44
794,719	-12	-3,5
796,831	-12	-3,499
798,955	-12	-3,499
801,073	-12	-3,498
803,197	-12	-3,498
805,321	-12	-3,498
807,451	-12	-3,497
809,575	-12	-3,496
811,698	-12	-3,494
813,822	-12	-3,492
815,946	-12	-3,491
818,076	-12	-3,491
820,194	-11,5	-3,489
822,318	-11,5	-3,484
824,442	-11,5	-3,476
826,56	-11	-3,469
828,683	-10,5	-3,44
830,807	-10	-3,397
832,925	-9,5	-3,331
835,049	-8	-3,188
837,173	-7	-3,058
839,297	-7,5	-3,008
841,415	-6	-2,832
843,545	-5,5	-2,7
845,668	-5	-2,635
847,786	-5	-2,607
849,91	-4,5	-2,472
852,034	-4,5	-2,353
854,152	-3,5	-2,209
856,27	-3	-2,028
858,4	-3	-1,917
860,524	-3	-1,9
862,647	-3	-1,811
864,771	-2,5	-1,72
866,907	-2,5	-1,724
869,025	-2,5	-1,643
871,161	-2,5	-1,648
873,285	-2	-1,619
875,403	-2	-1,448
877,521	-1,5	-1,3
879,645	-1,5	-1,228
881,768	-1,5	-1,189
883,892	-1,5	-1,16
886,016	-1	-1,009
888,146	-1	-1,047
890,27	-1	-1,002
892,394	-1	-1,021
894,512	-1	-0,968
896,63	-0,5	-0,898
898,753	-0,5	-0,795
900,883	0	-0,742
903,007	0	-0,624
905,131	0,5	-0,494
907,261	1	-0,441
909,379	1,5	-0,371
911,503	1,5	-0,255
913,633	1,5	-0,213
915,744	1,5	-0,164
917,868	1,5	-0,19
919,986	1,5	-0,164
922,11	1,5	-0,096
924,234	1,5	-0,041
926,358	1,5	-0,022
928,482	1,5	0
930,618	1,5	-0,001
932,736	1,5	0
934,859	1,5	0
936,983	1,5	0
939,107	1,5	0
941,225	1,5	0
943,349	1,5	-0,001
945,473	1,5	-0,001
947,591	1,5	-0,001
949,715	1,5	-0,001
951,838	1,5	-0,001
953,962	1,5	-0,001
956,08	1,5	-0,001
958,21	1,5	-0,001
960,328	1,5	-0,002
962,452	1,5	-0,002
964,576	1,5	-0,002
966,7	2	-0,002
968,817	1,5	-0,002
970,947	1,5	-0,002
973,065	2	-0,003
975,195	2	-0,002
977,313	2	-0,003
979,431	1,5	-0,005
981,555	1,5	-0,005
983,685	1,5	-0,004
985,802	2	-0,003
987,926	1,5	-0,002
990,056	1,5	-0,002
992,174	1,5	-0,002
994,304	1,5	-0,002
996,428	1,5	-0,002
998,552	1,5	-0,002
1000,67	1,5	-0,002
1002,787	1,5	-0,002
1004,911	1,5	-0,002
1007,035	1,5	-0,002
1009,153	2	-0,002
1011,277	2	-0,004
1013,395	1,5	-0,006
1015,519	1,5	-0,009
1017,643	1,5	-0,01
1019,766	1,5	-0,011
1021,89	2	-0,014
1024,02	1,5	-0,017
1026,138	1,5	-0,027
1028,264	1,5	-0,026
1030,38	1,5	-0,03
1032,51	1,5	-0,03
1034,628	1,5	-0,034
1036,752	1,5	-0,031
1038,875	1,5	-0,024
1040,987	1,5	-0,03
1043,111	2	-0,027
1045,229	1,5	-0,024
1047,353	1,5	-0,026
1049,471	1,5	-0,036
1051,601	2	-0,025
1053,719	1,5	-0,028
1055,842	1,5	-0,028
1057,966	1,5	-0,021
1060,09	1,5	-0,021
1062,22	1,5	-0,023
1064,338	1,5	-0,024
1066,462	1,5	-0,023
1068,58	1,5	-0,026
1070,704	1,5	-0,026
1072,821	1,5	-0,027
1074,939	1,5	-0,029
1077,057	1,5	-0,029
1079,181	2	-0,028
1081,299	1,5	-0,031
1083,429	1,5	-0,026
1085,547	1,5	-0,034
1087,677	1,5	-0,033
1089,794	1,5	-0,036
1091,912	1,5	-0,044
1094,042	1,5	-0,035
1096,16	1,5	-0,031
1098,29	1,5	-0,028
1100,408	1,5	-0,03
1102,532	2	-0,025
1104,65	2	-0,03
1106,774	2	-0,026
1108,891	2	-0,026
1111,021	1,5	-0,022
1113,139	2	-0,025
1115,263	2	-0,026
1117,381	2	-0,027
1119,511	1,5	-0,022
1121,629	1,5	-0,018
1123,747	1,5	-0,016
1125,865	2	-0,017
1127,988	2	-0,014
1130,106	1,5	-0,013
1132,224	1,5	-0,014
1134,354	2	-0,013
1136,472	2	-0,017
1138,596	1,5	-0,016
1140,714	1,5	-0,019
1142,831	2	-0,017
1144,955	2	-0,016
1147,079	2	-0,014
1149,203	2	-0,014
1151,315	2	-0,015
1153,439	2	-0,012
1155,557	2	-0,012
1157,681	1,5	-0,012
1159,805	1,5	-0,011
1161,928	2	-0,012
1164,046	1,5	-0,012
1166,164	2	-0,012
1168,282	1,5	-0,011
1170,406	1,5	-0,008
1172,524	2	-0,006
1174,66	2	-0,004
1176,778	2	-0,004
1178,907	2	-0,003
1181,031	1,5	-0,003
1183,155	2	-0,003
1185,279	2	-0,003
1187,391	2	-0,004
1189,515	1,5	-0,004
1191,633	1,5	-0,004
1193,757	2	-0,002
1195,886	2	-0,002
1198,01	1,5	-0,002
1200,128	2	-0,002
1202,258	1,5	-0,002
1204,376	1,5	-0,002
1206,5	1,5	-0,002
1208,612	1,5	-0,002
1210,736	1,5	-0,003
1212,853	1,5	-0,004
1214,971	1,5	-0,004
1217,089	1,5	-0,005
1219,207	1,5	-0,007
1221,331	1,5	-0,008
1223,449	1,5	-0,007
1225,573	1,5	-0,006
1227,691	1,5	-0,006
1229,815	1,5	-0,006
1231,938	1,5	-0,008
1234,068	1,5	-0,006
1236,186	1,5	-0,006
1238,304	2	-0,007
1240,428	1,5	-0,008
1242,552	2	-0,008
1244,676	2	-0,007
1246,8	1,5	-0,007
1248,923	1,5	-0,007
1251,041	1,5	-0,007
1253,159	1,5	-0,007
1255,283	1,5	-0,007
1257,443	1,5	-0,003
1259,567	2	-0,002
1261,691	2	-0,003
1263,821	2	-0,002
1265,938	1,5	-0,003
1268,05	2	-0,004
1270,18	1,5	-0,002
1272,298	2	-0,004
1274,422	2	-0,003
1276,54	1,5	-0,003
1278,664	1,5	-0,003
1280,782	2	-0,003
1282,905	1,5	-0,004
1285,029	2	-0,004
1287,147	2	-0,004
1289,271	1,5	-0,004
1291,389	1,5	-0,004
1293,507	2	-0,004
1295,631	1,5	-0,004
1297,749	1,5	-0,005
1299,878	1,5	-0,005
1301,996	1,5	-0,006
1304,12	1,5	-0,005
1306,244	2	-0,005
1308,368	1,5	-0,004
1310,492	2	-0,004
1312,61	2	-0,006
1314,74	1,5	-0,006
1316,858	1,5	-0,007
1318,981	1,5	-0,006
1321,099	1,5	-0,006
1323,217	1,5	-0,007
1325,347	1,5	-0,006
1327,471	1,5	-0,004
1329,595	1,5	-0,003
1331,713	1,5	-0,004
1333,837	1,5	-0,004
1335,96	2	-0,006
1338,078	1,5	-0,006
1340,202	1,5	-0,008
1342,326	1,5	-0,004
1344,45	1,5	-0,005
1346,574	1,5	-0,005
1348,704	1,5	-0,006
1350,828	1,5	-0,005
1352,945	1,5	-0,006
1355,069	2	-0,005
1357,199	1,5	-0,006
1359,311	1,5	-0,006
1361,435	1,5	-0,007
1363,553	1,5	-0,009
1365,677	1,5	-0,01
1367,795	2	-0,01
1369,913	2	-0,011
1372,036	2	-0,008
1374,166	2	-0,008
1376,29	2	-0,009
1378,408	1,5	-0,01
1380,526	1,5	-0,012
1382,65	1,5	-0,01
1384,768	1,5	-0,012
1386,886	1,5	-0,013
1389,009	1,5	-0,014
1391,121	1,5	-0,02
1393,245	1,5	-0,026
1395,369	1,5	-0,03
1397,487	1,5	-0,033
1399,617	1,5	-0,036
1401,735	1,5	-0,056
1403,853	1,5	-0,053
1405,982	1,5	-0,075
1408,1	1,5	-0,081
1410,236	1,5	-0,057
1412,354	1,5	-0,062
1414,472	1,5	-0,076
1416,596	1	-0,093
1418,708	1,5	-0,115
1420,832	1	-0,101
1422,956	1	-0,092
1425,079	1,5	-0,075
1427,203	1,5	-0,095
1429,321	1,5	-0,088
1431,433	1	-0,1
1433,557	1	-0,103
1435,681	1,5	-0,108
1437,799	1,5	-0,096
1439,923	1	-0,082
1442,04	1,5	-0,085
1444,164	1,5	-0,071
1446,288	1,5	-0,074
1448,406	1,5	-0,077
1450,53	1,5	-0,083
1452,648	1,5	-0,076
1454,772	1,5	-0,064
1456,89	1	-0,081
1459,007	1	-0,071
1461,131	1,5	-0,064
1463,249	1,5	-0,064
1465,361	1,5	-0,08
1467,485	1	-0,075
1469,603	1	-0,095
1471,721	1,5	-0,077
1473,845	1,5	-0,058
1475,968	1,5	-0,047
1478,092	1,5	-0,04
1480,21	1,5	-0,038
1482,334	1,5	-0,033
1484,458	1,5	-0,022
1486,576	1,5	-0,018
1488,7	1,5	-0,014
1490,818	1,5	-0,014
1492,936	1,5	-0,016
1495,071	1,5	-0,01
1497,189	1,5	-0,011
1499,307	1,5	-0,009
1501,431	1,5	-0,006
1503,549	1,5	-0,006
1505,667	2	-0,004
1507,797	1,5	-0,003
1509,915	1,5	-0,002
1512,038	1,5	-0,002
1514,162	2	-0,002
1516,28	1,5	-0,002
1518,392	2	-0,003
1520,51	2	-0,004
1522,634	1,5	-0,004
1524,758	1,5	-0,005
1526,882	2	-0,006
1529,006	2	-0,005
1531,135	2	-0,003
1533,247	1,5	-0,004
1535,371	2	-0,003
1537,489	1,5	-0,003
1539,607	1,5	-0,003
1541,731	1,5	-0,002
1543,849	1,5	-0,002
1545,966	1,5	-0,002
1548,09	1,5	-0,001
1550,214	2	-0,001
1552,332	1,5	-0,001
1554,456	1,5	-0,001
1556,574	2	-0,001
1558,692	2	-0,001
1560,81	2	-0,002
1562,927	1,5	-0,002
1565,045	1,5	-0,002
1567,181	1,5	-0,002
1569,299	1,5	-0,004
1571,423	1,5	-0,003
1573,547	1,5	-0,005
1575,671	1,5	-0,006
1577,795	1,5	-0,007
1579,918	1,5	-0,007
1582,036	1,5	-0,009
1584,154	1,5	-0,008
1586,278	1,5	-0,01
1588,396	1,5	-0,013
1590,52	2	-0,014
1592,638	1,5	-0,012
1594,762	1,5	-0,013
1596,886	1,5	-0,015
1599,003	1,5	-0,015
1601,121	1,5	-0,016
1603,251	1,5	-0,016
1605,363	1,5	-0,018
1607,475	1,5	-0,023
1609,599	2	-0,022
1611,717	1,5	-0,025
1613,835	1,5	-0,026
1615,958	2	-0,037
1618,076	1,5	-0,049
1620,2	1,5	-0,046
1622,324	1,5	-0,05
1624,442	1,5	-0,047
1626,572	1,5	-0,055
1628,69	1,5	-0,06
1630,808	1,5	-0,089
1632,937	1,5	-0,069
1635,055	1,5	-0,087
1637,173	1	-0,158
1639,303	1	-0,162
1641,421	0,5	-0,213
1643,539	0,5	-0,261
1645,663	0,5	-0,259
1647,775	0,5	-0,342
1649,893	0	-0,401
1652,022	0	-0,33
1654,14	0	-0,432
1656,258	0	-0,507
1658,388	0	-0,554
1660,506	0	-0,687
1662,63	0	-0,743
1664,754	0	-0,852
1666,872	-0,5	-0,9
1668,989	-0,5	-0,975
1671,125	-0,5	-0,965
1673,243	-0,5	-1,002
1675,367	-0,5	-0,951
1677,491	-0,5	-0,96
1679,609	-0,5	-0,916
1681,727	-0,5	-0,939
1683,851	-0,5	-0,894
1685,974	-0,5	-0,858
1688,092	-0,5	-0,836
1690,216	-0,5	-0,807
1692,34	-0,5	-0,75
1694,464	0	-0,743
1696,588	0	-0,835
1698,712	-0,5	-0,896
1700,83	-0,5	-0,982
1702,947	-0,5	-0,988
1705,065	-0,5	-0,961
1707,183	-0,5	-1,046
1709,307	-0,5	-1,033
1711,431	-1	-1,194
1713,549	-1	-1,29
1715,673	-1,5	-1,351
1717,791	-1,5	-1,378
1719,908	-1,5	-1,416
1722,039	-1,5	-1,373
1724,156	-2	-1,554
1726,274	-2,5	-1,682
1728,398	-3	-1,796
1730,522	-3	-1,946
1732,652	-3,5	-1,978
1734,77	-4	-2,105
1736,888	-4,5	-2,234
1739,005	-5	-2,394
1741,129	-5,5	-2,444
1743,247	-6	-2,513
1745,365	-6,5	-2,62
1747,495	-8	-2,699
1749,613	-7,5	-2,746
1751,731	-8,5	-2,864
1753,855	-9,5	-2,967
1755,978	-9	-3,012
1758,096	-10	-3,076
1760,22	-10,5	-3,186
1762,338	-10,5	-3,269
1764,462	-10,5	-3,356
1766,586	-10,5	-3,354
1768,704	-10,5	-3,414
1770,822	-10,5	-3,486
1772,945	-10,5	-3,5
1775,075	-10,5	-3,467
1777,193	-10,5	-3,5
1779,323	-10,5	-3,5
1781,441	-10,5	-3,499
1783,565	-10,5	-3,499
1785,689	-10,5	-3,499
1787,807	-10,5	-3,499
1789,924	-10,5	-3,499
1792,054	-10,5	-3,499
1794,178	-10,5	-3,499
1796,302	-10,5	-3,498
1798,425	-10,5	-3,498
1800,544	-10,5	-3,498
1802,662	-10,5	-3,497
1804,78	-10,5	-3,496
1806,91	-10,5	-3,495
1809,027	-10	-3,493
1811,145	-10,5	-3,492
1813,269	-10,5	-3,49
1815,393	-10,5	-3,49
1817,523	-10,5	-3,49
1819,641	-10,5	-3,488
1821,753	-10	-3,482
1823,865	-10	-3,468
1825,988	-10	-3,472
1828,112	-10	-3,463
1830,23	-9,5	-3,45
1832,348	-9,5	-3,441
1834,466	-9	-3,425
1836,584	-8,5	-3,395
1838,708	-8	-3,379
1840,826	-7,5	-3,318
1842,943	-6,5	-3,249
1845,061	-6,5	-3,148
1847,179	-6	-3,042
1849,297	-5,5	-2,881
1851,427	-5	-2,787
1853,551	-4,5	-2,732
1855,675	-4,5	-2,697
1857,835	-5	-2,758
1859,958	-4,5	-2,703
1862,142	-5,5	-2,953
1864,26	-5	-2,814
1866,384	-5	-2,839
1868,502	-4,5	-2,752
1870,62	-4,5	-2,633
1872,75	-5	-2,684
1874,874	-4,5	-2,571
1876,992	-4	-2,506
1879,11	-3,5	-2,383
1881,233	-3,5	-2,407
1883,351	-3,5	-2,312
1885,481	-3	-2,223
1887,611	-3	-2,218
1889,729	-3	-2,122
1891,853	-2,5	-1,997
1893,977	-2,5	-1,901
1896,088	-2	-1,774
1898,212	-2	-1,692
1900,336	-2	-1,588
1902,454	-1,5	-1,444
1904,566	-1	-1,329
1906,696	-1,5	-1,303
1908,814	-1	-1,228
1910,932	-1	-1,086
1913,049	-1	-0,973
1915,173	-0,5	-0,943
1917,291	-0,5	-0,869
1919,415	0	-0,814
1921,539	0	-0,801
1923,663	0	-0,82
1925,781	0	-0,792
1927,911	0	-0,798
1930,034	0	-0,749
1932,164	0	-0,728
1934,288	0	-0,695
1936,412	0	-0,64
1938,536	0,5	-0,637
1940,654	0	-0,626
1942,784	0,5	-0,59
1944,902	1	-0,514
1947,026	1	-0,443
1949,143	1,5	-0,408
1951,273	1,5	-0,321
1953,391	1,5	-0,16
1955,503	1,5	0
1957,627	1,5	0
1959,745	1,5	-0,001
1961,863	2	-0,001
1963,987	2	-0,001
1966,11	2	-0,001
1968,228	2	-0,002
1970,358	2	-0,003
1972,476	1,5	-0,003
1974,6	2	-0,003
1976,718	1,5	-0,004
1978,842	1,5	-0,005
1980,96	1,5	-0,01
1983,083	2	-0,012
1985,207	2	-0,016
1987,325	2	-0,023
1989,449	1,5	-0,029
1991,573	1,5	-0,036
1993,691	1,5	-0,048
1995,815	1,5	-0,068
1997,939	1,5	-0,067
2000,063	1,5	-0,092
2002,186	1,5	-0,096
2004,304	1	-0,126
2006,428	1	-0,143
2008,546	0,5	-0,202
2010,664	0,5	-0,28
2012,782	0,5	-0,374
2014,906	0	-0,38
2017,024	0	-0,445
2019,147	0	-0,56
2021,265	0	-0,683
2023,395	0	-0,782
2025,513	0	-0,936
2027,631	-0,5	-1,09
2029,755	-0,5	-1,158
2031,873	-1	-1,29
2033,991	-1,5	-1,398
2036,114	-1,5	-1,431
2038,244	-1,5	-1,504
2040,356	-2	-1,695
2042,48	-2,5	-1,819
2044,604	-3	-1,95
2046,728	-3	-2,005
2048,852	-3,5	-2,119
2050,97	-4	-2,284
2053,087	-5	-2,496
2055,211	-5	-2,473
2057,335	-6	-2,582
2059,465	-5,5	-2,612
2061,583	-5,5	-2,602
2063,701	-6	-2,651
2065,825	-6,5	-2,716
2067,949	-6,5	-2,734
2070,067	-7	-2,799
2072,184	-7,5	-2,91
2074,308	-7,5	-2,875
2076,426	-9	-3,004
2078,55	-9	-3,086
2080,668	-9,5	-3,08
2082,798	-9,5	-3,129
2084,916	-10	-3,194
2087,04	-10	-3,228
2089,163	-10,5	-3,338
2091,281	-10,5	-3,462
2093,399	-10,5	-3,5
2095,517	-10,5	-3,5
2097,635	-10,5	-3,499
2099,753	-10,5	-3,499
2101,871	-10,5	-3,499
2103,995	-10,5	-3,499
2106,113	-10	-3,498
2108,23	-10,5	-3,498
2110,36	-10,5	-3,497
2112,49	-10,5	-3,496
2114,614	-10,5	-3,496
2116,732	-10	-3,493
2118,85	-10,5	-3,49
2120,974	-10	-3,49
2123,098	-10,5	-3,49
2125,215	-10	-3,485
2127,345	-10	-3,481
2129,463	-10	-3,475
2131,581	-10	-3,467
2133,699	-10	-3,466
2135,835	-10	-3,47
2137,953	-10	-3,46
2140,071	-9,5	-3,446
2142,206	-10	-3,453
2144,324	-9,5	-3,433
2146,442	-9	-3,42
2148,56	-9	-3,404
2150,69	-9	-3,409
2152,808	-8,5	-3,396
2154,932	-8,5	-3,392
2157,054	-9	-3,392
2159,179	-8,5	-3,396
2161,297	-8,5	-3,38
2163,421	-9	-3,399
2165,545	-8,5	-3,387
2167,663	-8	-3,335
2169,781	-7,5	-3,306
2171,893	-7,5	-3,286
2174,023	-7,5	-3,314
2176,14	-7,5	-3,282
2178,258	-7	-3,282
2180,376	-6,5	-3,233
2182,5	-6	-3,221
2184,618	-6	-3,191
2186,748	-6	-3,155
2188,866	-5,5	-3,106
2190,984	-5,5	-3,016
2193,101	-5,5	-3,005
2195,225	-5,5	-2,992
2197,343	-5	-2,953
2199,467	-5	-2,898
2201,579	-4,5	-2,756
2203,697	-4,5	-2,735
2205,821	-4,5	-2,716
2207,939	-4	-2,615
2210,056	-4	-2,599
2212,18	-3,5	-2,56
2214,304	-3,5	-2,515
2216,422	-3,5	-2,478
2218,54	-3,5	-2,466
2220,652	-3	-2,341
2222,776	-3	-2,327
2224,894	-3	-2,263
2227,006	-2,5	-2,2
2229,123	-2,5	-2,199
2231,247	-3	-2,177
2233,365	-2,5	-2,161
2235,483	-2,5	-2,101
2237,601	-2,5	-2,099
2239,731	-2,5	-2,124
2241,849	-2,5	-2,112
2243,967	-2,5	-2,09
2246,084	-2,5	-2,011
2248,202	-2	-1,935
2250,32	-2,5	-1,872
2252,438	-2	-1,833
2254,568	-2,5	-1,904
2256,686	-2,5	-1,936
2258,804	-2,5	-1,94
2260,922	-2	-1,936
2263,045	-2,5	-1,896
2265,163	-2	-1,815
2267,287	-2,5	-1,787
2269,405	-2	-1,766
2271,529	-2	-1,71
2273,647	-2	-1,682
2275,771	-1,5	-1,654
2277,889	-1,5	-1,619
2280,019	-1,5	-1,581
2282,142	-1,5	-1,535
2284,26	-1	-1,44
2286,39	-1,5	-1,509
2288,508	-1,5	-1,52
2290,626	-1,5	-1,526
2292,738	-1	-1,377
2294,868	-1,5	-1,4
2296,986	-1	-1,362
2299,109	-1	-1,368
2301,227	-1	-1,366
2303,345	-1	-1,316
2305,463	-1	-1,225
2307,587	-1	-1,192
2309,705	-1	-1,159
2311,841	-0,5	-1,196
2313,959	-0,5	-1,083
2316,076	-0,5	-0,998
2318,2	0	-0,921
2320,324	0	-0,876
2322,442	-0,5	-0,844
2324,56	0	-0,817
2326,678	0	-0,722
2328,802	0	-0,677
2330,926	0	-0,626
2333,043	0,5	-0,524
2335,173	1	-0,536
2337,291	1	-0,472
2339,403	1	-0,394
2341,521	1,5	-0,334
2343,645	1,5	-0,381
2345,769	1,5	-0,335
2347,887	1,5	-0,297
2350,034	1,5	-0,362
2352,152	1,5	-0,292
2354,276	1,5	-0,321
2356,394	1,5	-0,321
2358,518	1,5	-0,303
2360,63	1,5	-0,281
2362,754	1,5	-0,232
2364,872	1,5	-0,147
2366,99	2	-0,104
2369,107	1,5	0
2371,231	1,5	-0,001
2373,349	1,5	-0,001
2375,461	1,5	-0,001
2377,579	2	-0,001
2379,703	2	-0,002
2381,821	1,5	-0,002
2383,945	1,5	-0,002
2386,062	1,5	-0,003
2388,186	1,5	-0,003
2390,304	1,5	-0,004
2392,422	1,5	-0,006
2394,54	1,5	-0,009
2396,664	2	-0,01
2398,782	2	-0,012
2400,9	2	-0,016
2403,017	2	-0,021
2405,141	2	-0,024
2407,265	1,5	-0,027
2409,383	1,5	-0,025
2411,501	1,5	-0,028
2413,625	1,5	-0,028
2415,743	1,5	-0,036
2417,861	1,5	-0,046
2419,985	1,5	-0,045
2422,114	1,5	-0,05
2424,232	1	-0,066
2426,356	1,5	-0,077
2428,474	1	-0,11
2430,604	1	-0,135
2432,722	0,5	-0,158
2434,846	0,5	-0,198
2436,964	0	-0,371
2439,093	0	-0,488
2441,211	0	-0,63
2443,335	0	-0,612
2445,447	0	-0,738
2447,565	0	-0,814
2449,683	-0,5	-0,951
2451,801	-0,5	-1,122
2453,925	-0,5	-1,178
2456,036	-0,5	-1,283
2458,154	-1	-1,373
2460,284	-1	-1,436
2462,408	-1	-1,428
2464,532	-1	-1,488
2466,656	-1,5	-1,618
2468,774	-2	-1,756
2470,892	-2,5	-1,854
2473,015	-2,5	-1,994
2475,139	-3	-2,086
2477,257	-3,5	-2,251
2479,381	-4	-2,37
2481,517	-4	-2,419
2483,635	-5	-2,594
2485,753	-5	-2,638
2487,877	-6	-2,757
2489,995	-6,5	-2,885
2492,118	-7	-2,888
2494,236	-8,5	-3,064
2496,354	-9	-3,226
2498,478	-9,5	-3,327
2500,602	-9,5	-3,457
2502,726	-9,5	-3,5
2504,844	-9,5	-3,499
2506,962	-9,5	-3,499
2509,079	-9,5	-3,498
2511,203	-9,5	-3,498
2513,321	-9,5	-3,496
2515,445	-9,5	-3,495
2517,569	-9,5	-3,494
2519,693	-9,5	-3,493
2521,811	-9,5	-3,492
2523,929	-9	-3,488
2526,064	-9,5	-3,485
2528,182	-9,5	-3,48
2530,3	-9	-3,473
2532,412	-9	-3,463
2534,542	-9	-3,46
2536,654	-8	-3,426
2538,778	-8	-3,412
2540,902	-7,5	-3,385
2543,019	-7	-3,35
2545,137	-6,5	-3,277
2547,255	-6	-3,175
2549,373	-5,5	-3,07
2551,503	-5,5	-3,064
2553,621	-5	-2,996
2555,745	-4,5	-2,865
2557,863	-4,5	-2,826
2559,992	-4,5	-2,791
2562,11	-4	-2,668
2564,228	-4	-2,647
2566,34	-4	-2,672
2568,458	-3,5	-2,606
2570,576	-3,5	-2,521
2572,694	-3,5	-2,451
2574,818	-3	-2,342
2576,942	-3	-2,244
2579,059	-2,5	-2,085
2581,177	-2	-1,86
2583,295	-1,5	-1,674
2585,413	-1,5	-1,541
2587,543	-1	-1,494
2589,661	-1	-1,451
2591,785	-1	-1,193
2593,909	-0,5	-1,175
2596,032	-0,5	-0,971
2598,15	-0,5	-0,854
2600,268	0	-0,667
2602,398	0	-0,631
2604,51	0,5	-0,515
2606,634	0,5	-0,53
2608,752	1	-0,439
2610,87	1	-0,385
2612,994	1,5	-0,264
2615,111	1,5	-0,065
2617,229	1,5	0
2619,359	1,5	-0,001
2621,483	2	-0,001
2623,607	2	-0,001
2625,725	1,5	-0,002
2627,843	1,5	-0,003
2629,966	1,5	-0,004
2632,09	1,5	-0,008
2634,208	1,5	-0,016
2636,326	2	-0,019
2638,438	1,5	-0,029
2640,556	1,5	-0,043
2642,68	1	-0,054
2644,798	1	-0,086
2646,916	1	-0,117
2649,033	0,5	-0,17
2651,163	0,5	-0,222
2653,281	0,5	-0,344
2655,405	0	-0,436
2657,523	0	-0,58
2659,653	0	-0,69
2661,771	0	-0,808
2663,895	0	-0,821
2666,031	0	-0,891
2668,142	-0,5	-1,124
2670,272	-0,5	-1,181
2672,39	-0,5	-1,304
2674,508	-1	-1,495
2676,626	-1	-1,565
2678,75	-1,5	-1,715
2680,868	-1,5	-1,743
2682,985	-1,5	-1,807
2685,103	-2	-1,956
2687,227	-2,5	-2,085
2689,345	-3,5	-2,209
2691,469	-3	-2,164
2693,587	-3,5	-2,29
2695,711	-4	-2,314
2697,835	-4,5	-2,38
2699,959	-4,5	-2,441
2702,082	-4,5	-2,418
2704,2	-4,5	-2,482
2706,33	-4,5	-2,469
2708,448	-4,5	-2,513
2710,572	-5,5	-2,632
2712,69	-6,5	-2,776
2714,82	-7	-2,892
2716,938	-7,5	-2,978
2719,049	-9	-3,088
2721,167	-9	-3,245
2723,291	-9	-3,296
2725,409	-9,5	-3,408
2727,533	-9,5	-3,427
2729,651	-9	-3,497
2731,781	-9,5	-3,5
2733,899	-9,5	-3,499
2736,016	-9,5	-3,499
2738,128	-9,5	-3,499
2740,246	-9,5	-3,499
2742,37	-9,5	-3,499
2744,488	-9,5	-3,498
2746,606	-9,5	-3,498
2748,73	-9,5	-3,497
2750,854	-9,5	-3,497
2752,971	-9	-3,496
2755,089	-9,5	-3,495
2757,207	-9	-3,493
2759,325	-9	-3,493
2761,449	-9,5	-3,492
2763,573	-9,5	-3,492
2765,697	-9	-3,489
2767,821	-9	-3,488
2769,944	-9	-3,485
2772,062	-9	-3,483
2774,186	-9	-3,483
2776,304	-9	-3,478
2778,428	-9	-3,472
2780,552	-9	-3,473
2782,67	-9	-3,469
2784,788	-8,5	-3,459
2786,906	-8,5	-3,459
2789,023	-8,5	-3,449
2791,141	-8	-3,437
2793,265	-8	-3,435
2795,383	-7,5	-3,42
2797,501	-8	-3,413
2799,631	-7,5	-3,414
2801,749	-7	-3,396
2803,867	-7	-3,38
2805,984	-6,5	-3,339
2808,108	-6	-3,345
2810,232	-7	-3,342
2812,35	-6	-3,325
2814,474	-6	-3,266
2816,598	-6	-3,322
2818,716	-6	-3,31
2820,834	-6	-3,246
2822,951	-5,5	-3,194
2825,069	-5,5	-3,108
2827,193	-5	-3,011
2829,311	-4,5	-2,946
2831,429	-4,5	-2,892
2833,559	-4,5	-2,91
2835,671	-4	-2,8
2837,789	-4	-2,756
2839,907	-3,5	-2,672
2842,024	-3	-2,548
2844,136	-3	-2,476
2846,266	-3	-2,541
2848,384	-2,5	-2,535
2850,514	-3,5	-2,632
2852,626	-3	-2,478
2854,75	-3	-2,434
2856,868	-2,5	-2,365
2858,991	-2,5	-2,288
2861,109	-3	-2,31
2863,239	-2,5	-2,288
2865,357	-2,5	-2,23
2867,475	-2,5	-2,161
2869,599	-2	-2,078
2871,717	-2	-2,009
2873,835	-2	-1,956
2875,958	-1,5	-1,906
2878,082	-1,5	-1,871
2880,2	-1,5	-1,754
2882,318	-1,5	-1,783
2884,442	-1,5	-1,736
2886,56	-1,5	-1,676
2888,684	-1,5	-1,616
2890,802	-1	-1,525
2892,919	-1	-1,45
2895,043	-1	-1,469
2897,161	-1	-1,388
2899,279	-1	-1,272
2901,397	-0,5	-1,133
2903,521	-0,5	-1,094
2905,633	-0,5	-1,037
2907,757	-0,5	-0,971
2909,875	0	-0,906
2911,992	0	-0,778
2914,116	0	-0,749
2916,234	0	-0,675
2918,358	0	-0,64
2920,476	0,5	-0,607
2922,612	0	-0,628
2924,73	0,5	-0,558
2926,848	1	-0,478
2928,965	1	-0,387
2931,095	1,5	-0,335
2933,213	1,5	-0,258
2935,331	1,5	-0,13
2937,449	1,5	0
2939,567	1,5	-0,001
2941,691	2	-0,001
2943,815	1,5	-0,001
2945,938	1,5	-0,002
2948,056	2	-0,002
2950,18	1,5	-0,002
2952,298	2	-0,003
2954,416	2	-0,005
2956,534	1,5	-0,007
2958,652	2	-0,011
2960,776	1,5	-0,014
2962,899	1,5	-0,021
2965,017	1,5	-0,027
2967,141	1,5	-0,026
2969,259	1,5	-0,032
2971,389	1,5	-0,044
2973,507	1,5	-0,047
2975,637	1,5	-0,052
2977,755	1,5	-0,065
2979,879	1	-0,082
2981,997	1	-0,114
2984,108	0,5	-0,192
2986,226	0,5	-0,259
2988,344	0	-0,415
2990,474	0	-0,488
2992,592	0	-0,612
2994,71	0	-0,623
2996,828	0	-0,649
2998,945	0	-0,809
3001,069	0	-0,902
3003,187	0	-1,072
3005,299	0	-1,23
3007,417	-1	-1,395
3009,535	-0,5	-1,428
3011,659	-1	-1,457
3013,777	-1	-1,521
3015,894	-1,5	-1,644
3018,018	-1	-1,657
3020,13	-1,5	-1,788
3022,248	-2	-1,9
3024,366	-2,5	-2,006
3026,484	-2,5	-2,087
3028,602	-2,5	-2,2
3030,732	-3	-2,17
3032,855	-3	-2,29
3034,973	-3,5	-2,386
3037,091	-4,5	-2,515
3039,209	-4,5	-2,569
3041,327	-5	-2,706
3043,451	-5,5	-2,746
3045,569	-5,5	-2,816
3047,699	-6	-2,868
3049,817	-6	-2,943
3051,94	-7	-3,04
3054,064	-7,5	-3,054
3056,182	-7,5	-3,114
3058,3	-8	-3,232
3060,454	-8	-3,12
3062,578	-7,5	-3,16
3064,696	-7,5	-3,221
3066,82	-8	-3,277
3068,937	-8	-3,306
3071,055	-7,5	-3,421
3073,179	-7,5	-3,445
3075,297	-7,5	-3,5
3077,415	-7,5	-3,5
3079,533	-8	-3,5
3081,651	-7,5	-3,499
3083,775	-7,5	-3,499
3085,898	-7,5	-3,499
3088,016	-8	-3,498
3090,134	-7,5	-3,497
3092,252	-7,5	-3,496
3094,376	-7,5	-3,494
3096,494	-8	-3,491
3098,612	-7,5	-3,483
3100,73	-7,5	-3,476
3102,847	-7,5	-3,466
3104,965	-7	-3,449
3107,089	-6,5	-3,422
3109,207	-6	-3,374
3111,325	-5	-3,279
3113,443	-4,5	-3,155
3115,567	-4	-3,036
3117,685	-3,5	-2,834
3119,803	-3	-2,694
3121,92	-2,5	-2,492
3124,038	-2,5	-2,392
3126,162	-2,5	-2,399
3128,28	-2	-2,25
3130,398	-2	-2,159
3132,516	-1,5	-2,01
3134,634	-1,5	-1,924
3136,758	-1	-1,8
3138,875	-1,5	-1,789
3140,993	-1	-1,762
3143,111	-1,5	-1,756
3145,229	-1	-1,697
3147,347	-1	-1,633
3149,465	-1	-1,606
3151,583	-0,5	-1,511
3153,701	-1	-1,462
3155,818	-0,5	-1,462
3157,942	-0,5	-1,438
3160,06	-0,5	-1,369
3162,178	-1	-1,368
3164,296	-0,5	-1,389
3166,414	-0,5	-1,326
3168,538	-0,5	-1,281
3170,656	-0,5	-1,222
3172,773	-0,5	-1,108
3174,891	-0,5	-1,046
3177,009	0	-0,938
3179,121	0	-0,861
3181,245	0	-0,837
3183,363	0	-0,836
3185,475	0	-0,752
3187,593	0	-0,646
3189,717	0,5	-0,585
3191,834	0,5	-0,5
3193,952	1	-0,472
3196,07	1,5	-0,349
3198,188	1,5	-0,289
3200,306	1,5	-0,19
3202,358	2	-0,001