File: ensaios_Ciclicos/_newS/_2G20/entrada/_2.txt
Time (s)	Load (N)	Displacement (mm)
0	-0,16	-0,035
2,225	0,16	-0,424
4,361	0,98	-0,38
6,497	1,36	-0,266
8,645	1,92	-0,273
10,781	2,16	-0,244
12,923	2,3	-0,285
15,059	2,46	-0,295
17,201	2,06	-0,357
19,336	2,22	-0,345
21,472	2,78	-0,274
23,608	2,58	-0,306
25,744	2,72	-0,349
27,88	3,04	-0,256
30,022	3,1	-0,248
32,164	3,22	-0,244
34,3	3,28	-0,222
36,441	3,36	-0,231
38,583	3,44	-0,222
40,725	3,48	-0,242
42,861	3,56	-0,162
44,997	3,62	-0,064
47,133	3,68	-0,088
49,275	3,72	-0,102
51,411	3,78	-0,046
53,552	3,84	-0,012
55,688	3,92	0
57,836	3,96	0
59,984	4,02	0
62,126	4,04	0
64,28	4,08	0
66,422	4,14	0
68,563	4,18	0
70,699	4,22	-0,001
72,835	4,28	-0,001
74,983	4,32	-0,001
77,125	4,34	-0,001
79,261	4,4	-0,001
81,403	4,44	-0,001
83,539	4,48	-0,001
85,68	4,52	-0,002
87,816	4,56	-0,002
89,952	4,6	-0,002
92,1	4,64	-0,002
94,242	4,68	-0,003
96,39	4,72	-0,003
98,532	4,74	-0,004
100,668	4,78	-0,005
102,815	4,8	-0,005
104,963	4,84	-0,005
107,111	4,86	-0,006
109,259	4,88	-0,005
111,395	4,9	-0,007
113,543	4,92	-0,006
115,685	4,94	-0,006
117,827	4,96	-0,008
119,968	4,98	-0,01
122,11	4,98	-0,012
124,258	4,96	-0,014
126,394	4,84	-0,022
128,536	4,8	-0,03
130,672	4,74	-0,035
132,82	4,44	-0,043
134,962	4,62	-0,041
137,11	4,66	-0,042
139,257	4,62	-0,047
141,399	4,52	-0,048
143,553	4,7	-0,041
145,701	4,7	-0,044
147,837	4,46	-0,056
149,985	4,34	-0,054
152,133	4,68	-0,052
154,275	4,66	-0,051
156,416	4,4	-0,058
158,564	4,42	-0,059
160,712	4,22	-0,078
162,86	3,5	-0,094
165,02	3,94	-0,088
167,156	3,42	-0,115
169,304	2,62	-0,128
171,458	3,54	-0,113
173,599	3,14	-0,115
175,747	3,48	-0,14
177,889	3,02	-0,156
180,037	2,82	-0,132
182,179	2,66	-0,162
184,321	1,36	-0,248
186,469	0,82	-0,357
188,617	0,46	-0,409
190,759	0,02	-0,417
192,918	0,66	-0,383
195,06	0	-0,444
197,214	-0,72	-0,541
199,362	-1,6	-0,594
201,51	-1,26	-0,662
203,658	-1,94	-0,683
205,8	-2,56	-0,76
207,953	-2,8	-0,829
210,107	-2,08	-0,75
212,255	-3,28	-0,829
214,403	-2,08	-0,803
216,545	-3,08	-0,896
218,693	-3,98	-0,831
220,841	-3,28	-0,862
222,989	-3,24	-0,888
225,142	-4,22	-1,022
227,296	-4,62	-1,056
229,432	-5,78	-1,159
231,586	-4,06	-1,051
233,728	-4,46	-1,075
235,876	-5,26	-1,113
238,024	-4,32	-1,1
240,166	-5,74	-1,232
242,308	-5,2	-1,133
244,461	-4,32	-1,102
246,603	-5,14	-1,152
248,751	-6,32	-1,225
250,893	-6,38	-1,282
253,041	-6,34	-1,308
255,183	-7,96	-1,422
257,343	-7,7	-1,472
259,491	-8,88	-1,535
261,644	-8,16	-1,542
263,792	-9,5	-1,62
265,94	-10,38	-1,7
268,088	-10,24	-1,722
270,236	-10,78	-1,714
272,39	-9,84	-1,694
274,538	-11,82	-1,81
276,692	-12,18	-1,823
278,839	-10,78	-1,811
280,987	-10,2	-1,752
283,129	-11,5	-1,85
285,271	-12,54	-1,923
287,419	-11,54	-1,931
289,567	-12,62	-1,984
291,709	-13,84	-2,078
293,857	-13,84	-2,078
296,016	-14,14	-1,969
298,17	-13,04	-1,984
300,318	-14,28	-2,011
302,46	-12,8	-2,034
304,614	-13,84	-2,047
306,756	-13,36	-2,044
308,904	-13,86	-2,022
311,052	-13,56	-2,022
313,199	-14,46	-2,021
315,347	-12,64	-1,988
317,495	-13,08	-1,96
319,637	-14,52	-2,043
321,791	-13,12	-2,013
323,945	-12,28	-1,982
326,099	-12,46	-2,009
328,247	-12,9	-1,982
330,394	-13,16	-2,024
332,542	-13,54	-2,002
334,696	-11,48	-1,908
336,844	-11,66	-1,864
338,992	-13,36	-1,953
341,146	-11,76	-1,891
343,294	-12,04	-1,916
345,448	-12,44	-1,959
347,602	-11,72	-1,95
349,748	-11,82	-1,897
351,891	-12,26	-1,9
354,033	-12,32	-1,949
356,187	-12,36	-1,962
358,335	-12,1	-1,967
360,495	-13,38	-1,944
362,655	-11,22	-1,883
364,797	-13,3	-1,928
366,944	-11,9	-1,932
369,104	-12,76	-1,882
371,252	-13,14	-1,928
373,4	-11,3	-1,912
375,548	-11,84	-1,9
377,696	-11,2	-1,868
379,856	-10,24	-1,818
381,998	-10,98	-1,842
384,151	-11,9	-1,822
386,305	-10,78	-1,812
388,447	-12,82	-1,932
390,607	-11,06	-1,828
392,755	-10,86	-1,838
394,909	-10,64	-1,802
397,069	-10,5	-1,763
399,211	-11,62	-1,824
401,358	-10	-1,78
403,518	-10,1	-1,751
405,666	-9,98	-1,74
407,814	-9,88	-1,77
409,974	-9,2	-1,673
412,128	-9,74	-1,711
414,276	-10	-1,759
416,424	-11,16	-1,822
418,571	-10,16	-1,827
420,731	-10,02	-1,787
422,873	-10,28	-1,807
425,027	-11,02	-1,807
427,175	-9,8	-1,717
429,329	-8,8	-1,711
431,471	-9,84	-1,752
433,631	-9,9	-1,808
435,784	-10,68	-1,777
437,932	-9,68	-1,787
440,086	-10,76	-1,803
442,24	-10,36	-1,772
444,388	-9,3	-1,773
446,536	-9,44	-1,713
448,684	-9,92	-1,695
450,838	-8,96	-1,666
452,985	-9,78	-1,697
455,133	-8,66	-1,674
457,287	-8,78	-1,693
459,441	-9,72	-1,678
461,595	-8,74	-1,664
463,755	-8,26	-1,586
465,909	-7,74	-1,593
468,051	-9,18	-1,723
470,198	-10,24	-1,754
472,358	-8,9	-1,666
474,512	-9,4	-1,72
476,666	-9,22	-1,711
478,814	-9,08	-1,704
480,962	-11,04	-1,827
483,11	-10,22	-1,843
485,264	-11,86	-1,918
487,417	-13,48	-1,971
489,583	-11,56	-1,913
491,731	-11,64	-1,96
493,891	-10,24	-1,852
496,045	-10,14	-1,843
498,205	-9,78	-1,78
500,353	-11,18	-1,834
502,507	-10,08	-1,798
504,655	-9,6	-1,754
506,796	-10,18	-1,768
508,944	-9,64	-1,82
511,11	-9,9	-1,792
513,264	-9,6	-1,752
515,412	-9,88	-1,793
517,56	-10,52	-1,783
519,708	-9,58	-1,798
521,856	-10,42	-1,818
524,009	-9,6	-1,793
526,151	-10,34	-1,828
528,323	-9,52	-1,764
530,471	-9,94	-1,816
532,619	-10,64	-1,826
534,767	-10,96	-1,894
536,921	-11,3	-1,908
539,075	-11,36	-1,898
541,228	-10,34	-1,878
543,382	-12,8	-1,938
545,53	-11,42	-1,93
547,69	-10,56	-1,885
549,838	-11,7	-1,906
551,986	-10,84	-1,932
554,134	-11,3	-1,886
556,294	-11,66	-1,892
558,447	-10,52	-1,878
560,601	-10,38	-1,868
562,755	-10,46	-1,854
564,903	-10,58	-1,899
567,051	-10,6	-1,852
569,205	-10,86	-1,884
571,347	-11,94	-1,93
573,495	-11,44	-1,902
575,642	-10,52	-1,913
577,796	-10,82	-1,838
579,95	-9,7	-1,798
582,104	-9,12	-1,739
584,264	-8,66	-1,669
586,412	-9,1	-1,652
588,572	-8,06	-1,591
590,72	-8,04	-1,617
592,873	-9,84	-1,693
595,021	-8,66	-1,703
597,175	-8,84	-1,673
599,323	-8,8	-1,698
601,483	-8,36	-1,621
603,631	-10,3	-1,743
605,779	-9,32	-1,752
607,933	-9,56	-1,758
610,086	-9,94	-1,803
612,234	-10,64	-1,865
614,394	-10,18	-1,788
616,548	-9,42	-1,726
618,702	-8,9	-1,647
620,868	-7,82	-1,568
623,01	-7,86	-1,602
625,152	-8,58	-1,648
627,305	-8,48	-1,628
629,459	-7,44	-1,596
631,613	-8,32	-1,588
633,761	-8	-1,586
635,909	-8,16	-1,608
638,051	-9,3	-1,699
640,199	-9,44	-1,821
642,347	-9,46	-1,762
644,501	-9,86	-1,806
646,654	-10,04	-1,802
648,808	-10,5	-1,861
650,962	-10,16	-1,83
653,116	-10,38	-1,831
655,264	-10,22	-1,857
657,412	-10,42	-1,798
659,56	-10,26	-1,787
661,717	-9,94	-1,745
663,867	-10	-1,731
666,015	-8,14	-1,66
668,157	-8,22	-1,642
670,305	-9,78	-1,722
672,459	-9,1	-1,759
674,613	-9,72	-1,776
676,767	-9,24	-1,735
678,927	-8,2	-1,6
681,086	-7,18	-1,539
683,228	-6,68	-1,488
685,388	-6,96	-1,414
687,548	-7,06	-1,442
689,702	-6,24	-1,428
691,844	-6,5	-1,384
693,998	-5,8	-1,346
696,146	-5,64	-1,339
698,305	-3,96	-1,109
700,453	-3,22	-1,134
702,595	-3,7	-1,154
704,749	-3,64	-1,1
706,903	-3,7	-1,113
709,057	-3,36	-1,077
711,211	-3,22	-1,041
713,365	-2,28	-0,93
715,518	-1,34	-0,857
717,672	-0,78	-0,779
719,826	-0,92	-0,704
721,98	0,28	-0,626
724,128	0,28	-0,609
726,282	-0,48	-0,712
728,442	-0,42	-0,668
730,59	-0,9	-0,741
732,737	-0,78	-0,756
734,885	-0,84	-0,765
737,039	-0,3	-0,704
739,199	-0,58	-0,712
741,353	0,16	-0,696
743,513	-0,32	-0,731
745,673	-0,72	-0,761
747,821	-1,7	-0,889
749,969	-2,22	-0,988
752,116	-2,7	-0,983
754,264	-3,38	-1,078
756,418	-3,16	-1,058
758,566	-3,92	-1,077
760,714	-3,02	-1,077
762,862	-3,92	-1,114
765,022	-2,92	-1,042
767,17	-3,18	-1,105
769,317	-6,36	-1,317
771,477	-6,32	-1,363
773,625	-6,86	-1,447
775,797	-5,26	-1,347
777,945	-6,64	-1,438
780,093	-7,02	-1,5
782,235	-7,22	-1,566
784,377	-8,66	-1,691
786,524	-8,86	-1,718
788,678	-8,68	-1,686
790,832	-7,96	-1,682
792,992	-8,06	-1,649
795,14	-9,22	-1,717
797,294	-8,18	-1,685
799,436	-8,82	-1,709
801,596	-9,64	-1,776
803,755	-9,16	-1,774
805,903	-9,56	-1,752
808,057	-8,46	-1,705
810,211	-9	-1,769
812,365	-9,8	-1,851
814,513	-11,56	-1,94
816,661	-11,84	-2,009
818,815	-11,06	-1,936
820,968	-11,56	-1,963
823,128	-10,8	-1,962
825,288	-11,18	-1,943
827,436	-10,7	-1,926
829,59	-10,42	-1,853
831,738	-11,64	-1,911
833,892	-10,42	-1,885
836,058	-9,94	-1,752
838,205	-9,1	-1,784
840,353	-9,8	-1,761
842,501	-10,48	-1,856
844,649	-10,5	-1,962
846,797	-12,12	-2,063
848,963	-10,48	-1,939
851,117	-11,5	-1,918
853,277	-11	-1,938
855,43	-11,3	-1,966
857,584	-10,56	-1,973
859,726	-10,98	-1,975
861,874	-11,22	-2,001
864,04	-12,6	-2,08
866,194	-14,34	-2,114
868,348	-12,58	-2,146
870,496	-13,36	-2,22
872,643	-13,46	-2,262
874,797	-15,32	-2,322
876,951	-15,88	-2,36
879,099	-15,16	-2,328
881,253	-15,22	-2,409
883,401	-15,22	-2,444
885,555	-16,1	-2,43
887,709	-17,44	-2,532
889,863	-16,58	-2,554
892,01	-17,08	-2,59
894,164	-17,24	-2,603
896,324	-16,18	-2,542
898,478	-17,14	-2,527
900,632	-16,86	-2,513
902,792	-17,04	-2,478
904,94	-15,34	-2,454
907,088	-15,54	-2,466
909,247	-15,4	-2,421
911,395	-16,2	-2,43
913,555	-15,04	-2,365
915,703	-14,32	-2,321
917,857	-15,04	-2,359
920,011	-15,06	-2,361
922,159	-14,56	-2,349
924,319	-14,3	-2,268
926,466	-14,38	-2,309
928,62	-15,9	-2,332
930,768	-14,88	-2,368
932,916	-16,76	-2,468
935,07	-17,52	-2,513
937,224	-16,12	-2,492
939,372	-16,88	-2,554
941,526	-16,04	-2,482
943,673	-16,38	-2,508
945,822	-16,1	-2,512
947,975	-17,04	-2,503
950,147	-16,22	-2,409
952,301	-15,06	-2,399
954,455	-16,36	-2,426
956,609	-15,72	-2,444
958,763	-16,08	-2,37
960,91	-15,18	-2,355
963,058	-15,38	-2,348
965,2	-15,8	-2,455
967,348	-17,48	-2,509
969,502	-15,5	-2,435
971,65	-16,56	-2,472
973,81	-18,16	-2,459
975,952	-16,4	-2,468
978,111	-16,16	-2,39
980,265	-14,76	-2,355
982,419	-15,04	-2,378
984,573	-16,76	-2,309
986,727	-14,74	-2,316
988,875	-14,46	-2,294
991,023	-14,2	-2,303
993,165	-14,6	-2,375
995,313	-15,32	-2,364
997,472	-14,66	-2,276
999,632	-15	-2,254
1001,78	-13,16	-2,204
1003,934	-14,38	-2,2
1006,076	-13,32	-2,267
1008,236	-13,24	-2,286
1010,402	-13,08	-2,211
1012,549	-13,86	-2,215
1014,697	-13,82	-2,219
1016,845	-12,8	-2,16
1018,993	-12,98	-2,096
1021,147	-12,26	-2,007
1023,289	-11,92	-2,036
1025,437	-11,26	-2,078
1027,585	-12,1	-2,098
1029,733	-11,94	-2,071
1031,892	-11,88	-2,038
1034,04	-12,04	-2,088
1036,188	-12,96	-2,174
1038,33	-12,94	-2,224
1040,484	-13,28	-2,241
1042,632	-13,38	-2,278
1044,786	-13,3	-2,253
1046,94	-13,76	-2,296
1049,093	-14,3	-2,355
1051,241	-14,72	-2,403
1053,383	-15,28	-2,421
1055,537	-15,3	-2,418
1057,685	-14,82	-2,39
1059,845	-14,06	-2,28
1061,999	-13,28	-2,283
1064,153	-13,16	-2,278
1066,3	-13,6	-2,314
1068,454	-13,5	-2,3
1070,596	-14,9	-2,388
1072,75	-14,18	-2,405
1074,898	-16,06	-2,515
1077,052	-15,96	-2,474
1079,206	-15,34	-2,416
1081,366	-15,76	-2,404
1083,513	-14,12	-2,376
1085,655	-14,3	-2,348
1087,804	-15,56	-2,379
1089,957	-14,16	-2,315
1092,111	-14,74	-2,354
1094,259	-15,04	-2,374
1096,401	-14,94	-2,424
1098,543	-16,84	-2,556
1100,696	-16,48	-2,599
1102,844	-17,44	-2,598
1104,998	-18,02	-2,631
1107,152	-15,9	-2,532
1109,3	-16,08	-2,553
1111,442	-17,68	-2,666
1113,59	-18,4	-2,745
1115,75	-19,96	-2,636
1117,891	-17,24	-2,656
1120,039	-17,2	-2,654
1122,187	-17,46	-2,696
1124,341	-16,86	-2,583
1126,489	-17,66	-2,708
1128,649	-16,8	-2,673
1130,809	-16,46	-2,613
1132,957	-17,26	-2,622
1135,105	-15,94	-2,6
1137,252	-17,52	-2,668
1139,412	-16,46	-2,624
1141,56	-17,64	-2,661
1143,714	-16,96	-2,604
1145,868	-15,52	-2,546
1148,022	-16,46	-2,579
1150,182	-15,62	-2,47
1152,33	-15,02	-2,438
1154,489	-13,88	-2,378
1156,643	-14,2	-2,41
1158,797	-14,52	-2,416
1160,951	-15,36	-2,498
1163,105	-15,4	-2,467
1165,253	-15,28	-2,492
1167,401	-16,08	-2,486
1169,561	-14,4	-2,378
1171,708	-14,66	-2,435
1173,868	-13,66	-2,379
1176,022	-13,6	-2,37
1178,176	-13,94	-2,308
1180,33	-12,64	-2,261
1182,49	-12,52	-2,21
1184,656	-12,32	-2,204
1186,804	-11,62	-2,156
1188,957	-12,44	-2,147
1191,111	-11,94	-2,175
1193,277	-11,84	-2,089
1195,431	-11,3	-2,005
1197,591	-10,1	-1,96
1199,745	-9,42	-1,961
1201,893	-10,38	-1,977
1204,053	-9,18	-1,894
1206,206	-8,96	-1,864
1208,366	-6,82	-1,664
1210,526	-6,98	-1,658
1212,68	-7,12	-1,669
1214,828	-7,52	-1,721
1216,994	-7,28	-1,642
1219,142	-6,38	-1,635
1221,296	-7,86	-1,7
1223,437	-7,6	-1,663
1225,585	-7,76	-1,75
1227,739	-7,24	-1,693
1229,899	-6,26	-1,622
1232,053	-7,54	-1,618
1234,201	-6,3	-1,6
1236,349	-6,66	-1,54
1238,503	-6,1	-1,574
1240,662	-5,1	-1,482
1242,828	-4,98	-1,413
1244,982	-4,7	-1,377
1247,13	-5,6	-1,402
1249,278	-4,1	-1,338
1251,426	-4,54	-1,332
1253,58	-3,78	-1,306
1255,728	-4,4	-1,316
1257,887	-3,02	-1,192
1260,047	-2,78	-1,114
1262,207	-1,62	-1,006
1264,355	-1,6	-0,936
1266,503	-1,04	-0,894
1268,663	-0,12	-0,816
1270,817	0,56	-0,716
1272,971	0,54	-0,627
1275,118	1,82	-0,558
1277,272	1,98	-0,437
1279,408	2,18	-0,474
1281,562	2,36	-0,449
1283,734	3,32	-0,296
1285,888	3,86	-0,231
1288,03	3,14	-0,28
1290,178	4,56	-0,217
1292,32	3,92	-0,25
1294,467	4,36	-0,21
1296,621	4,84	-0,173
1298,775	5,06	-0,157
1300,917	5,52	-0,144
1303,071	4,78	-0,142
1305,231	5,98	-0,092
1307,397	6,66	-0,067
1309,545	6,86	-0,058
1311,692	6,88	-0,045
1313,852	7,1	-0,042
1316,006	7,2	-0,037
1318,154	7,44	-0,032
1320,308	7,28	-0,024
1322,462	7,5	-0,021
1324,616	7,62	-0,016
1326,764	7,56	-0,017
1328,911	7,6	-0,016
1331,065	7,66	-0,011
1333,213	7,66	-0,014
1335,373	7,7	-0,01
1337,527	7,68	-0,008
1339,681	7,74	-0,006
1341,823	7,72	-0,006
1343,971	7,7	-0,006
1346,13	7,74	-0,006
1348,278	7,74	-0,006
1350,432	7,74	-0,004
1352,586	7,76	-0,004
1354,734	7,76	-0,003
1356,882	7,76	-0,004
1359,036	7,76	-0,004
1361,178	7,76	-0,004
1363,325	7,76	-0,003
1365,479	7,76	-0,003
1367,639	7,76	-0,002
1369,787	7,76	-0,002
1371,929	7,76	-0,002
1374,083	7,76	-0,002
1376,237	7,76	-0,002
1378,397	7,76	-0,002
1380,544	7,74	-0,001
1382,68	7,76	-0,002
1384,828	7,76	-0,002
1386,988	7,76	-0,001
1389,148	7,76	-0,001
1391,29	7,74	-0,001
1393,45	7,74	-0,001
1395,616	7,74	-0,001
1397,764	7,76	-0,001
1399,905	7,76	-0,002
1402,065	7,76	-0,001
1404,231	7,74	-0,001
1406,385	7,76	-0,001
1408,539	7,76	-0,001
1410,699	7,76	-0,001
1412,859	7,76	-0,001
1415,006	7,78	-0,001
1417,148	7,76	-0,001
1419,302	7,76	-0,001
1421,456	7,76	-0,001
1423,616	7,76	-0,001
1425,764	7,76	-0,001
1427,912	7,76	-0,001
1430,066	7,76	-0,001
1432,226	7,74	-0,001
1434,373	7,76	-0,001
1436,521	7,78	-0,001
1438,681	7,76	-0,001
1440,829	7,76	-0,001
1442,977	7,76	-0,001
1445,131	7,76	-0,001
1447,279	7,76	-0,001
1449,433	7,76	-0,001
1451,586	7,76	-0,001
1453,734	7,76	-0,001
1455,888	7,74	-0,001
1458,03	7,76	-0,001
1460,19	7,76	-0,001
1462,338	7,76	-0,001
1464,48	7,76	-0,001
1466,628	7,76	-0,001
1468,787	7,78	-0,001
1470,935	7,78	-0,001
1473,083	7,76	-0,001
1475,243	7,76	-0,001
1477,403	7,76	0
1479,545	7,76	-0,001
1481,699	7,76	-0,001
1483,859	7,76	0
1486,012	7,74	-0,006
1488,172	7,74	-0,022
1490,314	7,76	0
1492,462	7,76	0
1494,604	7,76	0
1496,752	7,76	-0,001
1498,9	7,78	-0,001
1501,054	7,76	0
1503,201	7,76	-0,001
1505,343	7,78	-0,001
1507,503	7,76	0
1509,657	7,78	0
1511,799	7,78	-0,009
1513,947	7,78	0
1516,101	7,76	0
1518,249	7,78	-0,001
1520,414	7,78	0
1522,562	7,78	0
1524,722	7,76	0
1526,87	7,8	0
1529,018	7,8	0
1531,16	7,8	0
1533,314	7,8	-0,001
1535,462	7,78	0
1537,628	7,78	0
1539,775	7,78	0
1541,929	7,78	0
1544,095	7,78	0
1546,243	7,78	0
1548,391	7,8	0
1550,539	7,78	-0,003
1552,705	7,76	-0,003
1554,853	7,8	0
1557	7,78	0
1559,148	7,8	0
1561,308	7,8	0
1563,465	7,8	0
1565,616	7,8	0
1567,776	7,8	-0,003
1569,918	7,78	0
1572,072	7,8	0
1574,225	7,8	0
1576,373	7,8	0
1578,533	7,8	0
1580,681	7,78	-0,001
1582,829	7,8	-0,001
1584,983	7,8	-0,001
1587,143	7,8	-0,001
1589,291	7,78	-0,002
1591,432	7,8	0
1593,592	7,78	0
1595,752	7,78	-0,018
1597,9	7,78	-0,003
1600,054	7,78	-0,12
1602,208	7,78	-0,095
1604,368	7,78	-0,103
1606,515	7,78	-0,09
1608,669	7,78	-0,09
1610,829	7,76	-0,189
1612,983	7,7	-0,243
1615,131	7,4	-0,341
1617,285	6,78	-0,441
1619,433	7,64	-0,335
1621,593	6,92	-0,446
1623,735	6,66	-0,405
1625,888	6,4	-0,506
1628,042	5,1	-0,622
1630,184	4,28	-0,823
1632,338	2,18	-0,932
1634,492	1,68	-1,116
1636,646	0,66	-1,264
1638,788	0,04	-1,282
1640,948	-1,36	-1,45
1643,107	-2,8	-1,67
1645,261	-3,56	-1,781
1647,421	-4,92	-1,927
1649,569	-4,62	-1,975
1651,735	-5,32	-2,156
1653,889	-7,4	-2,331
1656,031	-8,06	-2,386
1658,179	-8,04	-2,371
1660,326	-6,72	-2,398
1662,48	-9,26	-2,526
1664,634	-9,86	-2,603
1666,782	-9,46	-2,552
1668,936	-9,64	-2,581
1671,084	-10,96	-2,772
1673,232	-11,92	-2,78
1675,386	-11,92	-2,89
1677,545	-12,86	-2,968
1679,699	-14,26	-3,131
1681,859	-16,04	-3,27
1684,019	-15,52	-3,327
1686,167	-17,48	-3,372
1688,315	-17,7	-3,372
1690,475	-19,06	-3,417
1692,623	-18,88	-3,431
1694,764	-18,68	-3,44
1696,918	-19,74	-3,458
1699,066	-19,68	-3,468
1701,226	-20,2	-3,48
1703,374	-20,32	-3,486
1705,528	-20,38	-3,491
1707,688	-20,48	-3,493
1709,836	-20,54	-3,496
1711,995	-20,54	-3,496
1714,137	-20,48	-3,494
1716,285	-20,5	-3,494
1718,439	-20,5	-3,495
1720,581	-20,5	-3,496
1722,729	-20,52	-3,496
1724,889	-20,52	-3,497
1727,037	-20,52	-3,497
1729,185	-20,52	-3,497
1731,344	-20,5	-3,497
1733,504	-20,52	-3,498
1735,67	-20,48	-3,499
1737,818	-20,46	-3,499
1739,972	-20,42	-3,499
1742,126	-20,38	-3,499
1744,274	-20,26	-3,5
1746,41	-20,26	-3,5
1748,557	-20,26	-3,5
1750,723	-20,24	-3,451
1752,871	-20,2	-3,264
1755,025	-20,2	-3,189
1757,161	-20	-3,162
1759,321	-19,56	-3,059
1761,481	-18,64	-2,917
1763,635	-15,68	-2,688
1765,788	-15,3	-2,696
1767,948	-13,14	-2,555
1770,09	-12,68	-2,542
1772,244	-11,58	-2,432
1774,392	-11,38	-2,34
1776,546	-9,88	-2,251
1778,694	-9,84	-2,165
1780,848	-7,8	-2,008
1783,001	-7,06	-1,817
1785,161	-6,08	-1,734
1787,303	-4,88	-1,626
1789,457	-4,46	-1,538
1791,599	-4,72	-1,528
1793,741	-4,42	-1,521
1795,895	-3,74	-1,427
1798,049	-2,6	-1,332
1800,196	-3,04	-1,326
1802,338	-2,3	-1,244
1804,486	-1,5	-1,148
1806,646	-0,3	-1,002
1808,806	0,16	-0,889
1810,948	0,9	-0,804
1813,102	1,56	-0,685
1815,25	2,42	-0,55
1817,392	1,86	-0,595
1819,539	2,66	-0,473
1821,687	3,34	-0,393
1823,841	4,76	-0,255
1825,989	4,66	-0,205
1828,149	6,5	-0,094
1830,303	6,2	-0,113
1832,451	6,78	-0,081
1834,599	6,84	-0,058
1836,758	7,08	-0,056
1838,9	7,48	-0,041
1841,048	7,42	-0,044
1843,196	7,24	-0,043
1845,35	7,5	-0,037
1847,492	7,32	-0,042
1849,646	7,6	-0,034
1851,8	7,56	-0,036
1853,953	7,48	-0,038
1856,101	7,4	-0,047
1858,255	7,5	-0,036
1860,409	7,5	-0,034
1862,551	7,4	-0,044
1864,705	7,54	-0,035
1866,859	7,64	-0,028
1869,025	7,48	-0,04
1871,166	7,14	-0,053
1873,32	7,4	-0,05
1875,48	7,58	-0,032
1877,628	7,5	-0,037
1879,788	7,5	-0,032
1881,93	7,46	-0,039
1884,072	7,16	-0,046
1886,22	7,52	-0,04
1888,385	7,7	-0,023
1890,533	7,64	-0,026
1892,681	7,8	-0,018
1894,835	7,78	-0,016
1896,995	7,74	-0,018
1899,137	7,62	-0,025
1901,291	7,64	-0,023
1903,451	7,7	-0,023
1905,598	7,68	-0,024
1907,746	7,7	-0,025
1909,894	7,64	-0,022
1912,048	7,82	-0,016
1914,196	7,82	-0,018
1916,362	7,82	-0,017
1918,516	7,82	-0,016
1920,664	7,7	-0,02
1922,811	7,74	-0,018
1924,965	7,86	-0,012
1927,131	7,9	-0,007
1929,273	7,88	-0,008
1931,427	7,92	-0,006
1933,587	7,92	-0,005
1935,729	7,92	-0,006
1937,889	7,94	-0,004
1940,054	7,92	-0,003
1942,202	7,94	-0,003
1944,35	7,92	-0,004
1946,51	7,94	-0,003
1948,664	7,94	-0,004
1950,818	7,94	-0,004
1952,972	7,94	-0,003
1955,126	7,94	-0,003
1957,268	7,94	-0,004
1959,409	7,94	-0,004
1961,551	7,94	-0,004
1963,699	7,94	-0,004
1965,853	7,94	-0,004
1968,001	7,94	-0,004
1970,143	7,94	-0,004
1972,291	7,92	-0,004
1974,451	7,94	-0,004
1976,598	7,94	-0,004
1978,752	7,94	-0,003
1980,918	7,94	-0,002
1983,066	7,94	-0,002
1985,22	7,94	-0,002
1987,374	7,92	-0,002
1989,528	7,92	-0,002
1991,688	7,94	-0,002
1993,841	7,9	-0,002
1996,001	7,92	-0,002
1998,149	7,94	-0,003
2000,309	7,92	-0,002
2002,463	7,92	-0,002
2004,605	7,94	-0,002
2006,759	7,94	-0,002
2008,913	7,92	-0,002
2011,06	7,94	-0,002
2013,22	7,92	-0,002
2015,368	7,92	-0,002
2017,51	7,92	-0,002
2019,67	7,92	-0,002
2021,824	7,94	-0,002
2023,978	7,92	-0,002
2026,126	7,92	-0,002
2028,279	7,9	-0,001
2030,433	7,9	-0,001
2032,575	7,88	-0,001
2034,729	7,9	-0,001
2036,889	7,88	-0,001
2039,037	7,9	-0,001
2041,191	7,88	-0,001
2043,345	7,9	-0,001
2045,486	7,9	-0,001
2047,64	7,88	-0,001
2049,794	7,86	0
2051,948	7,84	-0,083
2054,102	7,84	-0,185
2056,256	7,82	-0,176
2058,398	7,82	-0,174
2060,558	7,4	-0,287
2062,712	7,58	-0,334
2064,871	6,94	-0,391
2067,013	6,68	-0,473
2069,167	5,04	-0,605
2071,321	4,2	-0,822
2073,463	3,82	-0,841
2075,611	2,2	-0,947
2077,759	2,2	-1,028
2079,907	1,46	-1,104
2082,054	1	-1,156
2084,202	1,44	-1,18
2086,35	0,36	-1,233
2088,516	-0,3	-1,362
2090,67	-1	-1,413
2092,812	-1	-1,448
2094,96	-1,44	-1,529
2097,119	-1,7	-1,616
2099,267	-2,62	-1,654
2101,427	-2,62	-1,73
2103,575	-3,32	-1,821
2105,723	-4,26	-1,871
2107,871	-4,34	-1,955
2110,019	-4,44	-1,967
2112,167	-4,38	-2,042
2114,321	-4,9	-2,147
2116,474	-6,3	-2,268
2118,616	-6,92	-2,335
2120,77	-7,82	-2,461
2122,924	-8,16	-2,507
2125,066	-8,6	-2,542
2127,22	-8,64	-2,66
2129,368	-10,04	-2,749
2131,516	-9,48	-2,756
2133,669	-10,68	-2,845
2135,817	-10,32	-2,804
2137,965	-10,98	-2,938
2140,113	-10,02	-2,862
2142,261	-11,42	-2,917
2144,421	-11,12	-3,047
2146,569	-12,66	-3,101
2148,711	-13,02	-3,119
2150,864	-13,58	-3,192
2153,006	-13,54	-3,158
2155,166	-13,74	-3,222
2157,326	-15,28	-3,316
2159,474	-15,02	-3,341
2161,628	-15,34	-3,372
2163,782	-16,86	-3,4
2165,924	-15,78	-3,384
2168,089	-16,88	-3,42
2170,237	-16,6	-3,41
2172,379	-17,94	-3,44
2174,533	-17,8	-3,452
2176,681	-18,16	-3,461
2178,823	-18,26	-3,463
2180,971	-17,26	-3,469
2183,119	-18,4	-3,469
2185,267	-18,36	-3,475
2187,426	-18,44	-3,482
2189,586	-18,64	-3,488
2191,728	-18,7	-3,49
2193,87	-18,62	-3,488
2196,036	-18,72	-3,494
2198,178	-18,7	-3,494
2200,326	-18,72	-3,493
2202,473	-18,66	-3,492
2204,615	-18,68	-3,495
2206,769	-18,7	-3,496
2208,923	-18,72	-3,497
2211,071	-18,68	-3,498
2213,237	-18,68	-3,499
2215,385	-18,62	-3,499
2217,539	-18,6	-3,499
2219,693	-18,58	-3,499
2221,846	-18,58	-3,499
2223,988	-18,56	-3,499
2226,142	-18,56	-3,499
2228,296	-18,54	-3,499
2230,438	-18,52	-3,499
2232,592	-18,52	-3,5
2234,74	-18,5	-3,5
2236,888	-18,54	-3,5
2239,035	-18,48	-3,5
2241,177	-18,5	-3,499
2243,325	-18,5	-3,499
2245,479	-18,46	-3,499
2247,621	-18,48	-3,499
2249,763	-18,46	-3,499
2251,917	-18,46	-3,5
2254,071	-18,42	-3,452
2256,224	-18,42	-3,414
2258,372	-18,42	-3,447
2260,532	-18,42	-3,36
2262,68	-18,36	-3,395
2264,84	-18,36	-3,316
2266,994	-18,34	-3,257
2269,142	-18,34	-3,254
2271,296	-18,34	-3,158
2273,443	-17,34	-3,088
2275,597	-15,22	-2,972
2277,751	-16,16	-2,94
2279,911	-15,64	-2,874
2282,053	-16,04	-2,829
2284,201	-13,32	-2,774
2286,349	-14,28	-2,79
2288,509	-13,08	-2,714
2290,662	-12,84	-2,682
2292,804	-13,16	-2,659
2294,958	-12,38	-2,659
2297,112	-12,88	-2,571
2299,254	-11,66	-2,6
2301,408	-10,96	-2,484
2303,568	-10,32	-2,375
2305,722	-9,56	-2,361
2307,869	-9,9	-2,329
2310,023	-8,76	-2,259
2312,171	-8,16	-2,217
2314,325	-8,64	-2,159
2316,479	-7,3	-2,065
2318,627	-7,98	-2,042
2320,775	-6,48	-1,958
2322,935	-6,92	-1,96
2325,088	-6,06	-1,883
2327,23	-6,32	-1,964
2329,39	-6,66	-1,844
2331,532	-5,86	-1,874
2333,68	-5,9	-1,878
2335,846	-5,52	-1,761
2337,988	-5,38	-1,768
2340,136	-4,68	-1,758
2342,289	-4,66	-1,754
2344,431	-4,38	-1,66
2346,579	-4,46	-1,676
2348,733	-3,8	-1,639
2350,881	-3,9	-1,581
2353,029	-2,54	-1,468
2355,171	-2,78	-1,465
2357,331	-2,38	-1,358
2359,491	-1,96	-1,333
2361,638	-3,08	-1,328
2363,792	-2,18	-1,36
2365,952	-2,16	-1,322
2368,106	-1,9	-1,248
2370,254	-1,3	-1,178
2372,414	-0,62	-1,101
2374,562	-0,76	-1,1
2376,704	-0,94	-1,087
2378,857	-0,24	-1,029
2381,005	-0,4	-0,982
2383,153	-0,22	-1,05
2385,307	0,12	-0,975
2387,461	0,56	-0,871
2389,603	-0,2	-0,863
2391,757	1,3	-0,758
2393,911	1,76	-0,668
2396,064	2,4	-0,623
2398,218	2,68	-0,448
2400,378	3,44	-0,36
2402,52	3,74	-0,337
2404,68	4,14	-0,242
2406,828	5,42	-0,179
2408,97	5,02	-0,186
2411,124	6,04	-0,112
2413,271	6,66	-0,078
2415,425	6,92	-0,059
2417,573	6,98	-0,058
2419,727	7,3	-0,037
2421,875	7,56	-0,024
2424,023	7,7	-0,022
2426,165	7,76	-0,016
2428,325	7,78	-0,01
2430,473	7,82	-0,008
2432,614	7,84	-0,007
2434,774	7,84	-0,006
2436,922	7,84	-0,006
2439,064	7,86	-0,006
2441,212	7,84	-0,006
2443,36	7,86	-0,005
2445,514	7,86	-0,004
2447,679	7,86	-0,003
2449,833	7,86	-0,003
2451,981	7,84	-0,003
2454,129	7,84	-0,002
2456,277	7,84	-0,002
2458,437	7,84	-0,002
2460,591	7,84	-0,001
2462,733	7,82	-0,001
2464,893	7,8	0
2467,046	7,78	-0,015
2469,212	7,76	-0,213
2471,354	7,72	-0,282
2473,508	6,98	-0,442
2475,65	6,1	-0,52
2477,81	4,72	-0,709
2479,964	3,32	-0,802
2482,112	4,1	-0,809
2484,265	2,3	-0,988
2486,413	1,52	-1,085
2488,567	0,88	-1,201
2490,721	-0,24	-1,307
2492,881	-1,14	-1,489
2495,029	-1,32	-1,543
2497,177	-1,28	-1,602
2499,331	-2,4	-1,718
2501,478	-3,22	-1,788
2503,638	-3,68	-1,928
2505,792	-4,14	-2,045
2507,934	-3,68	-2,011
2510,088	-4,26	-2,046
2512,248	-5,06	-2,176
2514,39	-4,44	-2,114
2516,538	-3,62	-2,094
2518,679	-4,64	-2,102
2520,839	-5,76	-2,253
2522,993	-5,6	-2,336
2525,135	-6,12	-2,398
2527,283	-6,56	-2,468
2529,437	-7,54	-2,536
2531,585	-7,94	-2,611
2533,745	-8,78	-2,773
2535,893	-9,32	-2,853
2538,034	-8,66	-2,803
2540,194	-10,06	-2,966
2542,348	-10,74	-3,065
2544,49	-12,68	-3,236
2546,65	-12,04	-3,241
2548,804	-13,32	-3,359
2550,952	-13,96	-3,38
2553,117	-15,32	-3,432
2555,277	-16,22	-3,457
2557,431	-16,1	-3,468
2559,579	-16,58	-3,476
2561,727	-16,64	-3,48
2563,875	-16,7	-3,483
2566,023	-16,72	-3,484
2568,177	-16,76	-3,488
2570,318	-16,78	-3,49
2572,466	-16,74	-3,491
2574,614	-16,74	-3,494
2576,768	-16,76	-3,496
2578,916	-16,78	-3,497
2581,064	-16,78	-3,498
2583,218	-16,74	-3,499
2585,372	-16,72	-3,499
2587,519	-16,7	-3,499
2589,667	-16,68	-3,499
2591,821	-16,64	-3,5
2593,969	-16,6	-3,499
2596,135	-16,58	-3,408
2598,283	-16,58	-3,327
2600,437	-16,24	-3,191
2602,591	-15,76	-3,094
2604,733	-14,82	-3,039
2606,886	-14,14	-2,954
2609,028	-14,58	-2,925
2611,188	-12,82	-2,805
2613,348	-11,4	-2,681
2615,508	-11,92	-2,593
2617,656	-9,96	-2,572
2619,81	-10,26	-2,493
2621,952	-9,1	-2,485
2624,111	-8,78	-2,36
2626,259	-8,84	-2,382
2628,401	-8,52	-2,368
2630,561	-7,86	-2,237
2632,727	-6,84	-2,11
2634,875	-6,28	-2,035
2637,029	-5,6	-1,909
2639,171	-5,42	-1,9
2641,33	-4,04	-1,738
2643,49	-2,96	-1,609
2645,638	-3,18	-1,56
2647,804	-2,42	-1,438
2649,958	-1,68	-1,358
2652,106	-1,76	-1,294
2654,254	-0,64	-1,188
2656,408	-0,66	-1,076
2658,561	-0,1	-1,04
2660,715	0,56	-0,903
2662,863	0,7	-0,871
2665,017	1,22	-0,824
2667,165	1,04	-0,782
2669,313	1,84	-0,723
2671,473	2,7	-0,523
2673,621	2,82	-0,5
2675,762	2,96	-0,478
2677,916	2,52	-0,552
2680,058	2,46	-0,587
2682,212	2,96	-0,482
2684,366	3,2	-0,408
2686,52	3,54	-0,33
2688,674	4,7	-0,22
2690,822	4,22	-0,213
2692,963	4,8	-0,17
2695,111	4,84	-0,178
2697,271	5,4	-0,152
2699,419	4,98	-0,182
2701,567	5,7	-0,138
2703,715	5,54	-0,145
2705,869	5,96	-0,113
2708,023	6,26	-0,087
2710,165	6,1	-0,078
2712,312	6,42	-0,066
2714,454	6,76	-0,061
2716,614	7,16	-0,046
2718,762	7,06	-0,04
2720,91	7,28	-0,041
2723,07	7,52	-0,028
2725,218	7,56	-0,02
2727,36	7,58	-0,019
2729,507	7,66	-0,015
2731,655	7,7	-0,012
2733,809	7,74	-0,008
2735,957	7,76	-0,006
2738,099	7,74	-0,006
2740,247	7,76	-0,008
2742,389	7,76	-0,008
2744,543	7,76	-0,006
2746,702	7,78	-0,005
2748,85	7,78	-0,004
2751,01	7,78	-0,004
2753,158	7,78	-0,003
2755,3	7,78	-0,003
2757,442	7,76	-0,002
2759,584	7,76	-0,002
2761,744	7,74	-0,002
2763,897	7,72	-0,001
2766,039	7,72	-0,001
2768,193	7,7	-0,001
2770,347	7,7	0
2772,489	7,7	-0,001
2774,643	7,68	0
2776,785	7,68	0
2778,933	7,68	0
2781,086	7,68	0
2783,228	7,66	-0,07
2785,382	7,5	-0,286
2787,536	7,64	-0,306
2789,684	6,74	-0,394
2791,832	7,14	-0,379
2793,974	7,22	-0,37
2796,134	7,04	-0,425
2798,287	5,74	-0,531
2800,435	6,26	-0,574
2802,583	4,9	-0,634
2804,731	4,88	-0,715
2806,879	4,06	-0,683
2809,045	3,62	-0,753
2811,193	4,02	-0,796
2813,341	3,72	-0,754
2815,5	2,68	-0,857
2817,642	3,3	-0,823
2819,796	3,3	-0,849
2821,944	2,9	-0,892
2824,098	2,24	-0,928
2826,252	2,2	-1,028
2828,4	1,64	-1,024
2830,56	1,1	-1,159
2832,707	1,2	-1,132
2834,867	1,3	-1,188
2837,033	0,98	-1,236
2839,181	0,44	-1,216
2841,329	0,34	-1,328
2843,477	-0,48	-1,382
2845,619	0,08	-1,347
2847,773	-0,48	-1,48
2849,921	-1,32	-1,522
2852,062	-0,74	-1,489
2854,21	-0,22	-1,388
2856,352	0,52	-1,413
2858,5	-0,56	-1,418
2860,66	-0,6	-1,462
2862,802	0,1	-1,328
2864,95	0,46	-1,322
2867,109	0,06	-1,378
2869,257	-0,1	-1,374
2871,411	0,02	-1,372
2873,565	-0,78	-1,483
2875,719	-0,74	-1,588
2877,867	-1,82	-1,663
2880,015	-2,1	-1,722
2882,163	-2,62	-1,814
2884,311	-2,36	-1,836
2886,458	-3,42	-1,948
2888,612	-2,88	-1,968
2890,76	-3,74	-2,022
2892,908	-3,8	-2,055
2895,062	-3,74	-2,064
2897,21	-3,72	-2,045
2899,364	-4	-2,106
2901,512	-4,2	-2,195
2903,659	-4,28	-2,177
2905,813	-5,56	-2,32
2907,961	-5,66	-2,353
2910,115	-6,04	-2,442
2912,269	-6,32	-2,521
2914,411	-5,6	-2,439
2916,565	-6,22	-2,484
2918,713	-6,54	-2,453
2920,866	-6,5	-2,553
2923,014	-6,74	-2,564
2925,162	-7,06	-2,629
2927,322	-6,74	-2,647
2929,476	-7,48	-2,683
2931,618	-7,44	-2,756
2933,772	-8,48	-2,823
2935,92	-8,4	-2,825
2938,073	-8,86	-2,833
2940,227	-8,24	-2,853
2942,369	-8,1	-2,803
2944,529	-8,42	-2,912
2946,677	-8,34	-2,805
2948,831	-9	-2,853
2950,979	-8,5	-2,859
2953,127	-7,1	-2,854
2955,275	-8,4	-2,834
2957,416	-8,32	-2,799
2959,564	-7,6	-2,773
2961,73	-8,84	-2,853
2963,878	-8,68	-2,843
2966,026	-7,98	-2,813
2968,168	-7,28	-2,788
2970,328	-7,96	-2,843
2972,487	-7,7	-2,862
2974,629	-8,34	-2,758
2976,795	-8,82	-2,907
2978,949	-9,42	-2,937
2981,097	-8,8	-2,928
2983,245	-8,66	-2,912
2985,399	-9,64	-3,002
2987,553	-9,76	-3,044
2989,707	-10,14	-3,133
2991,854	-9,76	-3,102
2994,008	-10,04	-3,08
2996,15	-9,96	-3,039
2998,304	-9,58	-3,027
3000,458	-10,04	-3,111
3002,606	-8,8	-3,139
3004,76	-10,72	-3,216
3006,902	-10,62	-3,183
3009,049	-10,58	-3,162
3011,191	-9,94	-3,083
3013,345	-8,62	-2,999
3015,505	-8,94	-3,007
3017,659	-10,42	-3,103
3019,825	-9,3	-3,066
3021,973	-10,6	-3,146
3024,121	-11,34	-3,259
3026,28	-11,36	-3,291
3028,422	-11,3	-3,271
3030,576	-11,74	-3,318
3032,742	-12,92	-3,381
3034,884	-13,34	-3,388
3037,044	-13,8	-3,397
3039,192	-13,74	-3,407
3041,352	-14,12	-3,428
3043,511	-14,68	-3,449
3045,659	-14,38	-3,45
3047,807	-14,82	-3,454
3049,955	-14,6	-3,459
3052,115	-15,02	-3,468
3054,269	-15,06	-3,475
3056,417	-15,1	-3,475
3058,565	-15,24	-3,475
3060,718	-15	-3,476
3062,86	-14,9	-3,468
3065,02	-15,08	-3,48
3067,168	-15,26	-3,48
3069,334	-15,36	-3,486
3071,476	-15,26	-3,484
3073,636	-15,38	-3,488
3075,784	-15,38	-3,487
3077,925	-15,38	-3,486
3080,079	-15,24	-3,486
3082,221	-15,32	-3,486
3084,375	-15,22	-3,482
3086,529	-15,26	-3,482
3088,683	-15,3	-3,487
3090,837	-15,3	-3,487
3092,997	-15,26	-3,487
3095,139	-15,28	-3,488
3097,292	-15,34	-3,49
3099,434	-15,26	-3,487
3101,588	-15,32	-3,488
3103,748	-15,34	-3,49
3105,89	-15,3	-3,488
3108,038	-15,28	-3,487
3110,18	-15,28	-3,488
3112,339	-15,26	-3,484
3114,487	-15,12	-3,482
3116,635	-15,08	-3,48
3118,789	-15,04	-3,475
3120,949	-15,14	-3,482
3123,091	-15,1	-3,479
3125,245	-15,06	-3,48
3127,399	-15,18	-3,482
3129,547	-15,18	-3,482
3131,706	-15,14	-3,48
3133,854	-15,1	-3,483
3136,008	-15,2	-3,485
3138,156	-15,2	-3,488
3140,316	-15,26	-3,492
3142,47	-15,26	-3,492
3144,636	-15,28	-3,494
3146,784	-15,3	-3,494
3148,937	-15,28	-3,495
3151,085	-15,26	-3,495
3153,233	-15,26	-3,496
3155,393	-15,26	-3,496
3157,547	-15,26	-3,496
3159,689	-15,24	-3,496
3161,843	-15,26	-3,497
3163,985	-15,24	-3,497
3166,138	-15,24	-3,497
3168,286	-15,24	-3,497
3170,638	-14,56	-3,168
3172,858	-10,3	-2,758
3175	-10,98	-2,781
3177,16	-10,22	-2,731
3179,302	-10,44	-2,76
3181,456	-9,68	-2,66
3183,615	-8,52	-2,541
3185,769	-8,6	-2,424
3188,001	-5,22	-2,025
3190,191	-4,24	-1,847
3192,375	-2,54	-1,592
3194,529	-2,56	-1,554
3196,683	-2,24	-1,535
3198,849	-2,28	-1,466
3200,996	-1,68	-1,449
3203,18	-1,12	-1,232
3205,34	-0,54	-1,165
3207,488	-0,38	-1,133
3209,642	-0,68	-1,188
3211,79	-0,68	-1,18
3213,944	-0,26	-1,156
3216,092	-0,44	-1,107
3218,281	1,02	-0,891
3218,821	7,58	0