File: ensaios_Ciclicos/_newS/_2G20/entrada/_3.txt
Time (s)	Load (N)	Displacement (mm)
0	-0,2	-0,022
2,17	0,34	-0,268
4,306	0,48	-0,344
6,448	-0,94	-0,538
8,583	-1,38	-0,613
10,719	-3,8	-0,793
12,861	-3,02	-0,731
14,997	-2,5	-0,805
17,133	-3,16	-0,815
19,269	-2,4	-0,745
21,405	-2,36	-0,76
23,541	-1,9	-0,636
25,682	-1,3	-0,608
27,818	-1,34	-0,586
29,954	0,18	-0,537
32,09	-0,46	-0,616
34,226	-1,3	-0,606
36,362	-1,58	-0,641
38,498	-0,7	-0,56
40,634	0,84	-0,506
42,77	0,48	-0,531
44,911	1,82	-0,261
47,053	1,88	-0,269
49,195	1,7	-0,332
51,331	1,22	-0,433
53,467	1,24	-0,427
55,603	-0,08	-0,495
57,745	-0,76	-0,615
59,887	-1,9	-0,761
62,022	-1,92	-0,782
64,158	-3,06	-0,82
66,306	-3,66	-0,937
68,454	-4,12	-1,065
70,59	-3,98	-1,038
72,732	-3,78	-1,077
74,868	-5,14	-1,172
77,01	-5,5	-1,206
79,145	-5,44	-1,169
81,287	-5,04	-1,15
83,423	-4,74	-1,133
85,571	-5,42	-1,215
87,707	-5,68	-1,219
89,843	-5,14	-1,159
91,979	-4,66	-1,08
94,115	-4,68	-1,1
96,251	-4,12	-1,034
98,392	-3,42	-1,01
100,528	-3,62	-0,972
102,664	-3,36	-0,945
104,806	-3,76	-1,06
106,942	-4,16	-1,027
109,078	-4,14	-1,026
111,214	-4,46	-1,047
113,349	-3,36	-1,02
115,485	-4,46	-1,093
117,627	-4,74	-1,155
119,763	-4,8	-1,18
121,905	-5,2	-1,209
124,041	-5,08	-1,182
126,177	-4,72	-1,139
128,319	-4,48	-1,135
130,454	-5,42	-1,204
132,596	-5,42	-1,234
134,732	-5,62	-1,259
136,868	-4,7	-1,243
139,004	-4,68	-1,151
141,14	-4,46	-1,13
143,276	-3,94	-1,087
145,412	-4,28	-1,043
147,548	-3,48	-1,015
149,683	-3,12	-0,978
151,819	-3,92	-1,004
153,955	-3,88	-1,018
156,091	-4,08	-1,029
158,239	-4,16	-1,094
160,375	-4,82	-1,156
162,511	-5,42	-1,23
164,659	-5,02	-1,225
166,794	-5,18	-1,267
168,93	-5,96	-1,312
171,066	-5,32	-1,308
173,22	-6,16	-1,445
175,356	-6,92	-1,508
177,504	-6,54	-1,467
179,646	-5,58	-1,469
181,782	-6,18	-1,447
183,929	-6,82	-1,517
186,065	-5,58	-1,441
188,207	-6,18	-1,481
190,343	-7,14	-1,576
192,485	-7,5	-1,665
194,633	-7,96	-1,713
196,781	-8,88	-1,815
198,923	-9,3	-1,902
201,058	-8,84	-1,855
203,2	-8,94	-1,899
205,336	-9,94	-1,952
207,478	-9,38	-1,916
209,614	-8,66	-1,826
211,756	-8,92	-1,822
213,892	-8,02	-1,7
216,028	-8,1	-1,726
218,164	-7,68	-1,795
220,302	-8,04	-1,75
222,441	-8,3	-1,833
224,577	-9,68	-1,944
226,713	-10,78	-2,102
228,849	-11,74	-2,192
230,991	-13,12	-2,381
233,133	-15,48	-2,602
235,274	-15,44	-2,732
237,422	-16,32	-2,84
239,564	-17,98	-2,948
241,7	-18,62	-3,011
243,836	-18,62	-3,011
245,978	-18,18	-2,991
248,12	-18,28	-2,962
250,262	-18,68	-3,04
252,41	-18,6	-2,987
254,557	-19,58	-3,085
256,711	-19,9	-3,214
258,859	-19,68	-3,168
261,007	-22,62	-3,316
263,143	-22,02	-3,342
265,285	-23,36	-3,371
267,421	-22,82	-3,362
269,569	-22,48	-3,329
271,71	-20,1	-3,184
273,852	-21,3	-3,249
275,994	-19,9	-3,178
278,13	-16,94	-2,901
280,266	-17,82	-2,896
282,414	-17,1	-2,895
284,556	-17,26	-2,872
286,71	-18,66	-3,031
288,851	-15	-2,706
291,005	-15,2	-2,815
293,147	-15,7	-2,72
295,301	-16,58	-2,832
297,449	-17,92	-2,944
299,591	-17,08	-2,83
301,739	-15,98	-2,782
303,881	-15,5	-2,759
306,028	-15,52	-2,722
308,164	-15,06	-2,6
310,306	-13,32	-2,463
312,442	-12,08	-2,351
314,59	-12,94	-2,42
316,726	-12,94	-2,367
318,868	-11,44	-2,328
321,01	-12,48	-2,389
323,151	-13,48	-2,466
325,293	-13,58	-2,505
327,435	-13,98	-2,646
329,577	-14,96	-2,681
331,719	-15,84	-2,816
333,861	-16,68	-2,846
336,003	-17	-2,827
338,157	-17,96	-3,034
340,31	-19,48	-3,197
342,452	-20,82	-3,282
344,6	-21,34	-3,304
346,748	-21,32	-3,352
348,902	-23,32	-3,395
351,044	-23,5	-3,392
353,186	-23,6	-3,408
355,328	-22,86	-3,388
357,469	-23,46	-3,4
359,617	-23,04	-3,43
361,765	-23,82	-3,422
363,919	-24,64	-3,435
366,061	-24,62	-3,446
368,203	-24,44	-3,448
370,351	-24,82	-3,46
372,499	-25,08	-3,465
374,647	-25,38	-3,479
376,788	-24,92	-3,465
378,924	-25,16	-3,474
381,066	-25,38	-3,48
383,214	-25,26	-3,479
385,362	-25,22	-3,476
387,504	-25,38	-3,48
389,646	-25,14	-3,476
391,794	-25,06	-3,479
393,941	-25,46	-3,486
396,089	-25,46	-3,489
398,231	-25,28	-3,487
400,379	-25,46	-3,488
402,533	-25,46	-3,491
404,681	-25,54	-3,494
406,829	-25,5	-3,494
408,971	-25,54	-3,496
411,118	-25,54	-3,497
413,26	-25,52	-3,496
415,396	-25,52	-3,497
417,538	-25,5	-3,498
419,686	-25,52	-3,498
421,834	-25,44	-3,499
423,976	-25,46	-3,499
426,124	-25,44	-3,499
428,265	-25,42	-3,499
430,413	-25,42	-3,5
432,549	-25,4	-3,5
434,703	-25,36	-3,5
436,851	-25,36	-3,5
438,999	-25,32	-3,459
441,147	-25,32	-3,348
443,295	-25,28	-3,309
445,442	-25,28	-3,258
447,584	-25,12	-3,221
449,72	-25,24	-3,212
451,868	-25,24	-3,141
454,016	-24,28	-3,135
456,152	-25,02	-3,125
458,306	-24,2	-3,009
460,454	-22,24	-2,986
462,595	-23,04	-3
464,749	-25	-3,096
466,897	-23,96	-3,101
469,045	-23,66	-3,054
471,193	-23,1	-3,052
473,335	-24,04	-3,103
475,483	-24,84	-2,98
477,637	-22,08	-2,949
479,779	-21,84	-2,867
481,92	-22,28	-2,863
484,074	-21,22	-2,874
486,228	-21,26	-2,857
488,382	-20,96	-2,834
490,536	-19,74	-2,697
492,69	-20,64	-2,661
494,838	-19,88	-2,623
496,985	-17,42	-2,5
499,127	-18,16	-2,53
501,281	-18,12	-2,53
503,429	-15,66	-2,408
505,577	-16	-2,38
507,719	-16,54	-2,378
509,867	-15,44	-2,292
512,015	-15,64	-2,248
514,157	-14,22	-2,187
516,298	-12,7	-2,068
518,452	-12,08	-2,01
520,6	-13,12	-2,046
522,748	-13,5	-2,002
524,902	-11,26	-1,872
527,044	-10,9	-1,795
529,186	-10,08	-1,744
531,34	-8,14	-1,512
533,493	-6,44	-1,369
535,647	-6,9	-1,243
537,795	-5,28	-1,141
539,943	-4,92	-1,029
542,091	-3,92	-0,984
544,233	-3,32	-0,855
546,381	-2,52	-0,652
548,523	-1,92	-0,59
550,67	-1,38	-0,515
552,824	-0,5	-0,342
554,966	0,64	-0,219
557,108	1,2	-0,15
559,256	2	-0,097
561,41	2,62	-0,061
563,57	2,94	-0,036
565,712	3,16	-0,028
567,86	3,26	-0,017
570,001	3,3	-0,016
572,143	3,34	-0,012
574,291	3,42	-0,009
576,433	3,46	-0,006
578,587	3,46	-0,004
580,735	3,46	-0,002
582,895	3,44	0
585,036	3,4	-0,151
587,178	2,74	-0,386
589,326	0,56	-0,627
591,474	0,22	-0,655
593,616	-0,38	-0,764
595,77	-2,1	-0,981
597,93	-3,6	-1,185
600,078	-4,14	-1,372
602,226	-4,98	-1,533
604,373	-6,2	-1,702
606,521	-7,42	-1,949
608,669	-9,06	-2,066
610,811	-9,68	-2,186
612,953	-10,1	-2,279
615,101	-10,54	-2,428
617,249	-13,4	-2,631
619,397	-14,32	-2,812
621,544	-13,4	-2,798
623,692	-15,98	-2,963
625,834	-16,36	-2,966
627,988	-15,76	-2,911
630,142	-18,72	-3,135
632,296	-19,04	-3,32
634,444	-22,2	-3,408
636,592	-23,42	-3,452
638,733	-23,78	-3,47
640,881	-24,14	-3,481
643,041	-24,34	-3,49
645,201	-24,4	-3,492
647,361	-24,44	-3,497
649,503	-24,44	-3,498
651,657	-24,46	-3,499
653,805	-24,46	-3,499
655,958	-24,44	-3,5
658,106	-24,42	-3,36
660,254	-24,16	-3,14
662,408	-21,68	-2,979
664,568	-18,2	-2,637
666,716	-16,46	-2,413
668,87	-13,86	-2,239
671,024	-11,56	-1,995
673,171	-10,34	-1,872
675,325	-8,5	-1,65
677,473	-7,66	-1,479
679,621	-6,1	-1,378
681,763	-5,76	-1,263
683,905	-5	-1,197
686,065	-3,78	-0,977
688,213	-3,22	-0,822
690,36	-1,84	-0,688
692,514	-1,92	-0,599
694,662	-0,82	-0,503
696,81	-0,9	-0,448
698,958	0,34	-0,266
701,106	1,38	-0,156
703,254	1,88	-0,096
705,408	2,78	-0,05
707,555	3,12	-0,035
709,703	3,32	-0,024
711,857	3,54	-0,012
713,999	3,6	-0,008
716,147	3,6	-0,005
718,301	3,6	-0,003
720,449	3,6	-0,002
722,603	3,58	-0,001
724,751	3,56	0
726,898	3,54	-0,109
729,046	3,32	-0,29
731,194	2,26	-0,506
733,342	0,68	-0,677
735,484	-1,22	-0,855
737,638	-2,38	-1,05
739,792	-3,2	-1,22
741,952	-4,14	-1,445
744,099	-5,18	-1,62
746,247	-6,38	-1,792
748,401	-7,28	-1,93
750,555	-9	-2,188
752,703	-10,22	-2,31
754,857	-11,64	-2,48
756,999	-11,96	-2,584
759,153	-13,54	-2,763
761,3	-15,06	-2,93
763,454	-17,72	-3,098
765,602	-18,02	-3,205
767,756	-19,78	-3,341
769,898	-21,6	-3,394
772,052	-22,1	-3,436
774,212	-23,1	-3,474
776,36	-23,7	-3,485
778,507	-23,86	-3,492
780,649	-23,88	-3,494
782,797	-23,9	-3,497
784,933	-23,9	-3,498
787,087	-23,9	-3,499
789,229	-23,9	-3,499
791,383	-23,88	-3,499
793,537	-23,84	-3,5
795,678	-23,86	-3,449
797,826	-23,84	-3,206
799,98	-21,42	-2,998
802,134	-20,64	-2,941
804,282	-19,48	-2,764
806,436	-16,84	-2,604
808,59	-16,5	-2,378
810,738	-13,58	-2,233
812,885	-13,24	-2,206
815,033	-11,94	-2,104
817,187	-12,94	-2,111
819,335	-10,98	-1,918
821,489	-9,22	-1,734
823,643	-8,42	-1,643
825,791	-6,76	-1,431
827,939	-6,08	-1,362
830,08	-5,36	-1,29
832,228	-5,02	-1,173
834,376	-4,3	-1,075
836,524	-3,52	-0,963
838,672	-2,32	-0,782
840,82	-1,84	-0,627
842,974	-0,44	-0,443
845,116	0,34	-0,263
847,27	1,64	-0,166
849,417	1,96	-0,111
851,565	0,92	-0,157
853,725	2,62	-0,068
855,867	2,6	-0,06
858,027	2,34	-0,083
860,181	2,7	-0,065
862,329	3,3	-0,036
864,489	3,6	-0,02
866,636	3,5	-0,022
868,784	3,58	-0,013
870,938	3,72	-0,007
873,092	3,74	-0,005
875,234	3,74	-0,003
877,388	3,74	-0,002
879,536	3,72	-0,002
881,69	3,72	-0,001
883,837	3,7	-0,001
885,985	3,68	0
888,133	3,68	-0,092
890,293	3,12	-0,32
892,435	3,42	-0,311
894,577	2,74	-0,416
896,731	1,44	-0,564
898,885	-0,34	-0,696
901,02	0,74	-0,796
903,174	-1,52	-0,976
905,316	-2,26	-1,053
907,476	-2,8	-1,22
909,63	-3,82	-1,352
911,778	-4,56	-1,55
913,944	-6,08	-1,784
916,098	-6,58	-1,969
918,24	-7,24	-2,004
920,399	-8,18	-2,177
922,547	-9,64	-2,256
924,701	-9,78	-2,393
926,855	-11,06	-2,579
929,003	-13,68	-2,76
931,151	-13,48	-2,831
933,299	-14,64	-2,942
935,458	-16,66	-3,115
937,6	-16,5	-3,154
939,748	-18,7	-3,257
941,89	-19,2	-3,322
944,038	-19,9	-3,384
946,192	-22,14	-3,439
948,334	-22,44	-3,458
950,494	-23,06	-3,477
952,641	-23,3	-3,486
954,789	-23,24	-3,491
956,931	-23,3	-3,494
959,079	-23,34	-3,496
961,233	-23,32	-3,497
963,381	-23,34	-3,498
965,535	-23,32	-3,498
967,683	-23,3	-3,499
969,824	-23,3	-3,499
971,978	-23,28	-3,5
974,126	-23,24	-3,354
976,274	-23,24	-3,192
978,428	-22	-2,994
980,57	-20,88	-2,869
982,724	-17,72	-2,69
984,872	-17,68	-2,593
987,032	-14,5	-2,368
989,185	-13,08	-2,189
991,333	-11,86	-2,103
993,481	-10,72	-2,007
995,635	-10,08	-1,805
997,777	-9,2	-1,772
999,937	-9	-1,593
1002,079	-6,28	-1,505
1004,227	-5,74	-1,345
1006,374	-4,78	-1,206
1008,534	-3,84	-1,018
1010,676	-3,14	-0,935
1012,83	-2,42	-0,804
1014,972	-2,24	-0,722
1017,12	-0,78	-0,55
1019,268	-0,28	-0,373
1021,422	0,96	-0,234
1023,563	1,78	-0,132
1025,717	2,76	-0,091
1027,865	3	-0,06
1030,013	3,26	-0,034
1032,161	3,6	-0,026
1034,303	3,68	-0,018
1036,451	3,8	-0,01
1038,593	3,8	-0,009
1040,752	3,84	-0,005
1042,9	3,84	-0,003
1045,042	3,84	-0,002
1047,184	3,84	-0,002
1049,344	3,84	-0,001
1051,492	3,84	0
1053,646	3,82	0
1055,8	3,8	-0,027
1057,941	3,8	-0,096
1060,089	3,8	-0,278
1062,243	1,74	-0,509
1064,397	1,34	-0,597
1066,551	0	-0,751
1068,699	-0,98	-0,879
1070,841	-1,44	-0,914
1073,001	-1,88	-1,048
1075,154	-3,36	-1,262
1077,296	-3,84	-1,407
1079,45	-3,78	-1,516
1081,598	-4,84	-1,597
1083,74	-5,1	-1,68
1085,894	-5,68	-1,764
1088,048	-6	-1,848
1090,196	-6,78	-1,944
1092,35	-6,32	-2,002
1094,497	-7,6	-2,082
1096,639	-7,66	-2,154
1098,793	-9,36	-2,286
1100,941	-9,22	-2,34
1103,101	-10,44	-2,448
1105,249	-10,94	-2,603
1107,403	-11,18	-2,75
1109,545	-14,12	-2,892
1111,698	-15,46	-2,997
1113,846	-16,28	-3,146
1115,994	-17,7	-3,251
1118,142	-19,32	-3,349
1120,29	-20,2	-3,41
1122,432	-21,5	-3,438
1124,586	-20,96	-3,444
1126,734	-22,2	-3,463
1128,881	-22,44	-3,473
1131,023	-22,26	-3,481
1133,171	-22,48	-3,478
1135,319	-22,68	-3,485
1137,479	-22,8	-3,492
1139,621	-22,82	-3,491
1141,763	-22,66	-3,492
1143,917	-22,72	-3,496
1146,064	-22,76	-3,498
1148,206	-22,72	-3,498
1150,354	-22,72	-3,498
1152,496	-22,7	-3,498
1154,632	-22,66	-3,499
1156,78	-22,64	-3,499
1158,928	-22,56	-3,499
1161,088	-22,52	-3,5
1163,241	-22,48	-3,491
1165,383	-22,46	-3,386
1167,531	-22,44	-3,292
1169,685	-22,28	-3,166
1171,833	-19,88	-3,004
1173,987	-18,22	-2,842
1176,129	-16,54	-2,722
1178,283	-16,38	-2,606
1180,436	-14,08	-2,474
1182,59	-13,02	-2,369
1184,744	-11,92	-2,237
1186,886	-11,5	-2,159
1189,034	-9,68	-1,994
1191,182	-10,38	-1,883
1193,336	-7,6	-1,749
1195,49	-6,38	-1,565
1197,637	-5,36	-1,443
1199,779	-4,76	-1,381
1201,939	-3,86	-1,198
1204,093	-2,96	-1,039
1206,247	-2,2	-0,967
1208,395	-1,84	-0,793
1210,549	-0,48	-0,611
1212,697	-0,54	-0,558
1214,844	0,28	-0,487
1216,998	0,68	-0,288
1219,146	2,02	-0,177
1221,306	2,86	-0,092
1223,454	3,22	-0,069
1225,608	3,72	-0,036
1227,768	3,9	-0,019
1229,916	3,98	-0,014
1232,07	4,04	-0,008
1234,211	4,06	-0,006
1236,359	4,06	-0,004
1238,507	4,06	-0,002
1240,667	4,04	-0,001
1242,809	4,02	0
1244,957	4,02	-0,037
1247,111	4	-0,212
1249,259	4,02	-0,318
1251,4	3,22	-0,449
1253,554	2,02	-0,581
1255,696	1,22	-0,653
1257,856	0,22	-0,901
1260,004	-1,48	-0,959
1262,146	-1,46	-1,021
1264,288	-1,88	-1,113
1266,442	-2,76	-1,31
1268,589	-3,14	-1,387
1270,737	-2,78	-1,374
1272,885	-3,42	-1,432
1275,039	-3,8	-1,64
1277,187	-4,38	-1,731
1279,347	-6,12	-2,02
1281,507	-6,36	-2,102
1283,655	-6,68	-2,166
1285,808	-7,68	-2,33
1287,956	-7,2	-2,448
1290,104	-9,26	-2,528
1292,252	-9,18	-2,65
1294,406	-10,86	-2,751
1296,554	-11,7	-2,863
1298,702	-13,44	-3,035
1300,856	-14,42	-3,182
1302,997	-14,44	-3,23
1305,151	-15,52	-3,31
1307,311	-17,92	-3,408
1309,459	-18,48	-3,424
1311,613	-18,72	-3,444
1313,761	-19,08	-3,459
1315,921	-19,44	-3,478
1318,063	-19,44	-3,484
1320,222	-19,52	-3,49
1322,37	-19,52	-3,493
1324,524	-19,48	-3,497
1326,684	-19,24	-3,498
1328,832	-19,08	-3,499
1330,986	-18,94	-3,499
1333,14	-18,68	-3,499
1335,288	-18,22	-3,499
1337,447	-18,06	-3,496
1339,607	-17,9	-3,243
1341,761	-16,2	-3,078
1343,909	-16,84	-3,082
1346,069	-16,54	-3,106
1348,223	-15,76	-3,011
1350,377	-13,58	-2,9
1352,525	-13,68	-2,836
1354,666	-13,86	-2,791
1356,82	-11,78	-2,675
1358,968	-11,82	-2,578
1361,116	-8,88	-2,381
1363,27	-8	-2,249
1365,436	-6,14	-2,031
1367,584	-5,34	-1,913
1369,726	-5,48	-1,842
1371,88	-3,46	-1,598
1374,039	-2,78	-1,494
1376,193	-2,02	-1,208
1378,335	-1,26	-1,154
1380,483	-0,92	-1,045
1382,631	-0,74	-0,918
1384,779	0,2	-0,746
1386,939	0,36	-0,654
1389,093	0,66	-0,538
1391,24	1,16	-0,42
1393,406	1,92	-0,236
1395,554	2,76	-0,134
1397,702	3,24	-0,09
1399,85	3,46	-0,056
1401,998	3,9	-0,037
1404,152	4,08	-0,02
1406,294	4,18	-0,014
1408,447	4,2	-0,01
1410,601	4,22	-0,008
1412,755	4,24	-0,005
1414,915	4,22	-0,003
1417,075	4,2	-0,001
1419,217	4,2	-0,002
1421,365	4,18	-0,001
1423,525	4,16	0
1425,678	4,16	-0,016
1427,838	4,12	-0,126
1429,992	3,74	-0,211
1432,14	4,12	-0,228
1434,288	4,1	-0,262
1436,442	3,26	-0,38
1438,584	3,28	-0,466
1440,738	1,92	-0,605
1442,891	0,74	-0,683
1445,039	1,46	-0,695
1447,199	0,16	-0,82
1449,347	-0,16	-0,916
1451,495	-0,68	-0,997
1453,655	-1,7	-1,216
1455,809	-2,16	-1,407
1457,951	-2,6	-1,462
1460,11	-3,1	-1,572
1462,264	-3,3	-1,734
1464,424	-3,8	-1,865
1466,572	-4,54	-1,983
1468,714	-4,54	-2,038
1470,868	-4,7	-2,117
1473,022	-5,1	-2,233
1475,17	-5,94	-2,33
1477,317	-5,52	-2,357
1479,465	-5,78	-2,405
1481,607	-5,32	-2,28
1483,755	-5,74	-2,361
1485,909	-6,32	-2,418
1488,057	-6,74	-2,594
1490,205	-6,84	-2,621
1492,365	-7,4	-2,794
1494,512	-7,94	-2,774
1496,666	-8,46	-2,905
1498,808	-9,3	-3,003
1500,962	-9,8	-3,12
1503,122	-10,48	-3,257
1505,27	-10,84	-3,222
1507,412	-10,48	-3,224
1509,56	-10,42	-3,225
1511,714	-11,04	-3,254
1513,867	-11,62	-3,321
1516,009	-11,2	-3,279
1518,151	-10,64	-3,273
1520,299	-9,28	-3,194
1522,447	-11,22	-3,278
1524,607	-11,66	-3,342
1526,749	-12,1	-3,366
1528,891	-11,84	-3,387
1531,05	-13,04	-3,431
1533,204	-13,38	-3,468
1535,352	-13,24	-3,449
1537,5	-13,02	-3,46
1539,648	-12,88	-3,444
1541,796	-13,26	-3,46
1543,938	-13,06	-3,453
1546,092	-13,32	-3,476
1548,245	-13,34	-3,471
1550,405	-13,5	-3,486
1552,553	-13,48	-3,491
1554,701	-13,4	-3,492
1556,855	-13,38	-3,494
1559,003	-13,32	-3,495
1561,151	-13,3	-3,495
1563,293	-13,26	-3,495
1565,452	-13,2	-3,496
1567,606	-13,18	-3,498
1569,76	-13,14	-3,498
1571,896	-13,12	-3,497
1574,044	-13,1	-3,498
1576,198	-13,06	-3,498
1578,346	-13	-3,499
1580,488	-12,98	-3,499
1582,635	-12,96	-3,499
1584,795	-12,9	-3,499
1586,943	-12,86	-3,499
1589,091	-12,8	-3,5
1591,239	-12,78	-3,5
1593,387	-12,74	-3,444
1595,535	-12,72	-3,258
1597,689	-12,68	-3,211
1599,837	-12,06	-3,114
1601,984	-10,44	-3,031
1604,132	-8,94	-2,786
1606,292	-10,1	-2,742
1608,44	-8,6	-2,789
1610,594	-8,18	-2,7
1612,742	-6,96	-2,63
1614,89	-6,74	-2,524
1617,032	-5,78	-2,398
1619,185	-5,22	-2,372
1621,339	-4,78	-2,284
1623,499	-4,34	-2,233
1625,653	-4,34	-2,117
1627,795	-3,7	-2,013
1629,943	-2,62	-1,863
1632,091	-2,58	-1,762
1634,251	-1,94	-1,615
1636,392	-1,64	-1,565
1638,558	-0,7	-1,342
1640,712	-0,86	-1,279
1642,866	-0,3	-1,13
1645,008	-0,32	-1,15
1647,156	-0,64	-1,175
1649,316	-0,68	-1,221
1651,47	-0,02	-1,025
1653,617	0,28	-0,961
1655,771	0,2	-0,878
1657,925	-0,02	-0,931
1660,079	0,48	-0,869
1662,227	0,34	-0,848
1664,387	0,7	-0,717
1666,541	0,98	-0,595
1668,701	1,52	-0,419
1670,848	1,62	-0,374
1673,008	1,62	-0,324
1675,168	2,24	-0,192
1677,322	2,88	-0,129
1679,476	3,2	-0,105
1681,624	3,02	-0,093
1683,784	3,28	-0,057
1685,932	3,86	-0,029
1688,085	3,98	-0,02
1690,233	4,04	-0,013
1692,387	4,1	-0,01
1694,541	4,1	-0,008
1696,701	4,12	-0,004
1698,843	4,12	-0,003
1700,991	4,12	-0,003
1703,145	4,1	-0,002
1705,304	4,1	-0,002
1707,458	4,1	-0,001
1709,606	4,06	-0,001
1711,76	4,04	-0,001
1713,92	4,06	0
1716,068	4,06	-0,001
1718,228	4,06	-0,019
1720,376	4,04	-0,003
1722,535	4,02	-0,043
1724,683	4,04	-0,012
1726,837	4,04	-0,048
1728,991	4,02	-0,032
1731,157	4,04	-0,072
1733,305	4,02	-0,146
1735,459	3,8	-0,279
1737,613	2,94	-0,364
1739,773	2,68	-0,488
1741,92	2,6	-0,48
1744,074	1,48	-0,573
1746,228	1,8	-0,626
1748,382	0,4	-0,822
1750,53	0,42	-0,761
1752,69	0,4	-0,835
1754,85	0,16	-0,906
1757,004	1,06	-0,725
1759,163	0,16	-0,832
1761,305	1,12	-0,724
1763,459	0,36	-0,818
1765,613	-0,04	-0,838
1767,767	2,9	-0,586
1769,915	3	-0,46
1772,075	3,14	-0,382
1774,223	3,2	-0,393
1776,364	3,04	-0,503
1778,512	2,14	-0,557
1780,654	1,48	-0,64
1782,808	0,72	-0,762
1784,962	1,06	-0,824
1787,104	0	-0,933
1789,258	-0,9	-1,065
1791,412	-0,56	-0,983
1793,571	-0,16	-0,901
1795,713	-0,52	-0,941
1797,855	-0,18	-0,912
1800,009	-0,38	-0,98
1802,151	-0,62	-0,987
1804,299	-1,06	-1,122
1806,459	-1,3	-1,272
1808,613	-1,7	-1,431
1810,748	-1,84	-1,41
1812,902	-1,82	-1,556
1815,05	-1,96	-1,579
1817,204	-2,34	-1,78
1819,346	-2,68	-1,899
1821,5	-2,94	-2,031
1823,654	-3,46	-2,201
1825,802	-3,62	-2,275
1827,955	-4,06	-2,365
1830,097	-4,06	-2,42
1832,245	-3,74	-2,351
1834,393	-4,24	-2,421
1836,547	-4,36	-2,44
1838,695	-3,8	-2,326
1840,855	-3,94	-2,354
1843,015	-4,46	-2,484
1845,162	-4,46	-2,596
1847,31	-4,88	-2,634
1849,464	-5,04	-2,72
1851,612	-5,68	-2,81
1853,766	-6,08	-2,936
1855,908	-6,8	-3,066
1858,062	-6,66	-3,092
1860,216	-7,24	-3,149
1862,357	-6,6	-3,083
1864,505	-7,5	-3,179
1866,659	-7,24	-3,178
1868,813	-7,42	-3,24
1870,955	-7,96	-3,3
1873,109	-8,26	-3,351
1875,257	-8,98	-3,378
1877,417	-9,26	-3,411
1879,565	-9,5	-3,406
1881,724	-8,86	-3,421
1883,872	-9,54	-3,428
1886,014	-9,54	-3,436
1888,162	-9,96	-3,452
1890,31	-10,12	-3,45
1892,452	-10,08	-3,458
1894,612	-10,2	-3,472
1896,76	-10,42	-3,479
1898,907	-10,48	-3,484
1901,061	-10,48	-3,482
1903,209	-10,38	-3,483
1905,357	-10,46	-3,485
1907,511	-10,44	-3,488
1909,665	-10,52	-3,49
1911,813	-10,46	-3,491
1913,961	-10,52	-3,494
1916,114	-10,52	-3,496
1918,268	-10,48	-3,497
1920,41	-10,48	-3,497
1922,552	-10,44	-3,498
1924,706	-10,42	-3,498
1926,848	-10,4	-3,499
1928,996	-10,38	-3,499
1931,132	-10,38	-3,498
1933,285	-10,36	-3,499
1935,439	-10,32	-3,499
1937,581	-10,32	-3,5
1939,741	-10,26	-3,376
1941,895	-10,24	-3,242
1944,049	-9,9	-3,195
1946,191	-9,92	-3,11
1948,345	-9,02	-3,054
1950,504	-7,98	-2,95
1952,664	-6,68	-2,814
1954,812	-6,74	-2,803
1956,96	-6,52	-2,775
1959,114	-5,76	-2,611
1961,268	-4,88	-2,522
1963,416	-4,36	-2,409
1965,57	-4,4	-2,389
1967,723	-3,24	-2,2
1969,877	-2,52	-2,068
1972,025	-2,52	-2,05
1974,179	-2,54	-2,026
1976,333	-2,5	-1,963
1978,487	-1,64	-1,746
1980,623	-1,3	-1,657
1982,777	-0,76	-1,488
1984,93	-0,82	-1,388
1987,072	-0,56	-1,278
1989,226	-0,12	-1,119
1991,374	0	-1,039
1993,522	0,06	-0,997
1995,67	-0,18	-1,097
1997,824	0,06	-1,028
1999,972	-0,02	-1,049
2002,138	0,32	-0,937
2004,285	0,6	-0,754
2006,451	0,68	-0,702
2008,605	0,68	-0,729
2010,753	0,48	-0,793
2012,901	0,48	-0,792
2015,043	0,38	-0,838
2017,203	0,6	-0,724
2019,345	0,66	-0,694
2021,492	0,78	-0,592
2023,646	0,84	-0,598
2025,794	1,1	-0,544
2027,948	1,18	-0,44
2030,108	1,2	-0,427
2032,256	1,14	-0,516
2034,41	1,3	-0,386
2036,552	1,24	-0,403
2038,711	1,44	-0,326
2040,859	1,22	-0,48
2043,007	1,18	-0,459
2045,167	1,74	-0,242
2047,315	1,84	-0,268
2049,469	1,56	-0,298
2051,611	1,6	-0,288
2053,765	1,8	-0,242
2055,906	1,8	-0,231
2058,054	2,34	-0,169
2060,208	2,36	-0,132
2062,368	2,66	-0,097
2064,522	3,1	-0,068
2066,664	3,26	-0,052
2068,812	3,3	-0,044
2070,966	3,48	-0,035
2073,113	3,66	-0,026
2075,267	3,7	-0,019
2077,415	3,72	-0,02
2079,569	3,66	-0,022
2081,717	3,78	-0,016
2083,865	3,68	-0,016
2086,019	3,78	-0,01
2088,173	3,84	-0,009
2090,32	3,82	-0,009
2092,474	3,82	-0,008
2094,622	3,8	-0,008
2096,764	3,78	-0,009
2098,924	3,8	-0,008
2101,072	3,8	-0,01
2103,226	3,8	-0,008
2105,38	3,82	-0,008
2107,533	3,84	-0,007
2109,687	3,84	-0,005
2111,829	3,84	-0,006
2113,995	3,84	-0,003
2116,149	3,84	-0,003
2118,309	3,84	-0,002
2120,457	3,84	-0,002
2122,605	3,84	-0,001
2124,765	3,84	-0,001
2126,918	3,82	-0,001
2129,06	3,84	-0,001
2131,214	3,82	-0,001
2133,368	3,82	-0,001
2135,516	3,82	-0,001
2137,664	3,82	-0,001
2139,806	3,8	-0,001
2141,947	3,8	-0,001
2144,101	3,82	-0,001
2146,255	3,8	-0,001
2148,409	3,8	-0,001
2150,557	3,8	-0,001
2152,717	3,8	0
2154,865	3,78	-0,001
2157,013	3,78	-0,092
2159,167	3,76	-0,142
2161,32	3,76	-0,21
2163,468	3,34	-0,232
2165,622	3,48	-0,314
2167,776	3,38	-0,42
2169,924	3,2	-0,399
2172,084	2,7	-0,423
2174,238	3,28	-0,389
2176,398	2,92	-0,44
2178,551	2,48	-0,529
2180,693	1,7	-0,638
2182,847	0,52	-0,764
2185,007	0,34	-0,878
2187,149	0,66	-0,748
2189,309	0,12	-0,836
2191,457	0,3	-0,89
2193,605	-0,22	-0,906
2195,764	-0,54	-1,004
2197,918	-0,38	-1,088
2200,072	-0,66	-1,156
2202,22	-0,58	-1,12
2204,368	-0,52	-1,094
2206,528	-0,86	-1,154
2208,688	-1,06	-1,258
2210,83	-1,12	-1,318
2212,983	-1,18	-1,36
2215,131	-1,4	-1,477
2217,273	-1,44	-1,517
2219,433	-1,6	-1,658
2221,587	-1,72	-1,705
2223,741	-2,24	-1,907
2225,889	-2,36	-2,034
2228,037	-2,28	-2,046
2230,19	-2,52	-2,141
2232,344	-2,7	-2,171
2234,492	-2,66	-2,226
2236,646	-2,84	-2,272
2238,788	-2,84	-2,28
2240,936	-2,76	-2,275
2243,084	-3,02	-2,34
2245,226	-2,92	-2,369
2247,379	-3,32	-2,432
2249,533	-3,5	-2,569
2251,687	-3,82	-2,717
2253,847	-4,36	-2,884
2255,989	-4,34	-2,881
2258,143	-4,94	-3,023
2260,297	-5,04	-3,112
2262,445	-5,78	-3,223
2264,593	-5,94	-3,274
2266,746	-6,78	-3,353
2268,894	-7,24	-3,403
2271,048	-8,16	-3,449
2273,196	-8,4	-3,467
2275,35	-8,7	-3,481
2277,486	-8,72	-3,483
2279,64	-8,8	-3,489
2281,8	-8,82	-3,494
2283,935	-8,82	-3,495
2286,083	-8,8	-3,495
2288,231	-8,8	-3,496
2290,385	-8,78	-3,497
2292,533	-8,78	-3,498
2294,681	-8,76	-3,498
2296,835	-8,74	-3,499
2298,983	-8,72	-3,499
2301,136	-8,7	-3,499
2303,29	-8,7	-3,499
2305,432	-8,66	-3,499
2307,58	-8,64	-3,499
2309,734	-8,64	-3,499
2311,894	-8,62	-3,491
2314,042	-8,58	-3,455
2316,196	-8,58	-3,363
2318,343	-8,58	-3,345
2320,491	-8,26	-3,176
2322,639	-7,4	-3,095
2324,793	-7,12	-2,93
2326,935	-6,04	-2,895
2329,089	-6,14	-2,854
2331,243	-5,38	-2,775
2333,397	-4,46	-2,66
2335,538	-4,28	-2,619
2337,698	-3,24	-2,404
2339,846	-3,3	-2,383
2341,988	-3,22	-2,358
2344,136	-2,78	-2,203
2346,284	-2,34	-2,155
2348,432	-2,18	-2,068
2350,586	-1,78	-1,964
2352,739	-1,42	-1,864
2354,893	-1,12	-1,764
2357,035	-1,16	-1,784
2359,189	-0,98	-1,631
2361,337	-0,62	-1,514
2363,479	-0,58	-1,483
2365,621	-0,52	-1,443
2367,781	-0,32	-1,328
2369,922	-0,26	-1,295
2372,076	-0,06	-1,207
2374,23	0,02	-1,074
2376,378	0,24	-1,008
2378,526	0,38	-0,871
2380,68	0,7	-0,718
2382,84	0,88	-0,608
2384,988	0,86	-0,583
2387,142	1,22	-0,428
2389,295	1,42	-0,361
2391,455	1,56	-0,31
2393,597	1,32	-0,399
2395,751	1,4	-0,389
2397,905	1,36	-0,337
2400,047	1,4	-0,314
2402,201	1,44	-0,325
2404,349	1,36	-0,318
2406,49	1,6	-0,311
2408,65	1,92	-0,214
2410,798	2,04	-0,169
2412,946	2,1	-0,16
2415,1	2,12	-0,151
2417,248	1,94	-0,16
2419,402	2,1	-0,148
2421,544	2,16	-0,134
2423,697	2,44	-0,107
2425,857	2,56	-0,095
2428,005	2,12	-0,136
2430,159	2,28	-0,125
2432,307	1,92	-0,13
2434,455	2	-0,143
2436,609	2,36	-0,106
2438,763	2,52	-0,072
2440,91	3	-0,052
2443,064	2,74	-0,058
2445,212	2,76	-0,068
2447,36	2,78	-0,058
2449,508	2,94	-0,057
2451,662	2,8	-0,055
2453,804	2,7	-0,06
2455,952	2,82	-0,064
2458,105	3,16	-0,042
2460,253	3,16	-0,038
2462,401	3,16	-0,035
2464,555	3,22	-0,033
2466,709	3,28	-0,031
2468,851	3,12	-0,042
2471,005	3,24	-0,036
2473,153	3,14	-0,039
2475,306	3,2	-0,038
2477,46	3,08	-0,04
2479,62	3,14	-0,035
2481,768	3,06	-0,048
2483,922	2,96	-0,046
2486,088	3,16	-0,041
2488,236	3,04	-0,046
2490,396	3,02	-0,046
2492,555	3	-0,05
2494,697	2,78	-0,064
2496,851	2,78	-0,07
2499,005	2,82	-0,074
2501,147	2,76	-0,078
2503,301	2,44	-0,086
2505,467	2,74	-0,078
2507,609	2,68	-0,081
2509,763	2,52	-0,105
2511,928	2,44	-0,101
2514,082	2,66	-0,088
2516,224	2,48	-0,106
2518,384	2,8	-0,073
2520,544	2,86	-0,069
2522,686	2,74	-0,074
2524,852	3,08	-0,044
2526,999	3	-0,044
2529,141	2,84	-0,072
2531,295	2,56	-0,08
2533,443	2,44	-0,107
2535,591	2,2	-0,126
2537,739	1,96	-0,118
2539,893	2,32	-0,085
2542,047	2,38	-0,088
2544,189	2	-0,137
2546,342	2,26	-0,108
2548,496	2,12	-0,106
2550,644	2,12	-0,129
2552,798	2,18	-0,094
2554,952	2,24	-0,1
2557,1	2,72	-0,07
2559,248	2,38	-0,093
2561,402	2,44	-0,094
2563,549	2,38	-0,088
2565,709	2,78	-0,058
2567,869	2,96	-0,044
2570,017	2,88	-0,046
2572,171	2,94	-0,046
2574,331	3,02	-0,041
2576,497	2,96	-0,042
2578,639	3	-0,05
2580,792	2,7	-0,062
2582,946	2,86	-0,056
2585,094	2,66	-0,064
2587,248	2,68	-0,069
2589,396	2,28	-0,09
2591,55	2,34	-0,094
2593,704	2,34	-0,103
2595,846	2,2	-0,118
2597,993	1,88	-0,153
2600,153	2,12	-0,115
2602,295	1,64	-0,2
2604,449	1,76	-0,187
2606,603	1,92	-0,174
2608,751	1,6	-0,222
2610,905	1,46	-0,302
2613,065	1,36	-0,342
2615,224	1,32	-0,346
2617,372	1,14	-0,408
2619,52	1,12	-0,493
2621,668	1,04	-0,497
2623,816	1,02	-0,555
2625,97	0,74	-0,678
2628,13	0,54	-0,739
2630,278	0,58	-0,781
2632,431	0,42	-0,83
2634,591	0,44	-0,813
2636,733	0,28	-0,91
2638,887	0,32	-0,927
2641,047	0,16	-1,049
2643,189	0,1	-1,041
2645,343	0,04	-1,158
2647,491	-0,1	-1,22
2649,65	-0,3	-1,368
2651,792	-0,54	-1,498
2653,952	-0,42	-1,442
2656,1	-0,3	-1,425
2658,242	-0,34	-1,438
2660,402	-0,44	-1,505
2662,556	-0,4	-1,512
2664,698	-0,48	-1,563
2666,846	-0,58	-1,582
2669,005	-0,54	-1,564
2671,159	-0,28	-1,422
2673,295	-0,44	-1,546
2675,449	-0,6	-1,573
2677,603	-0,62	-1,633
2679,745	-0,82	-1,725
2681,887	-0,84	-1,729
2684,041	-0,74	-1,698
2686,182	-0,94	-1,807
2688,336	-0,92	-1,818
2690,496	-0,58	-1,644
2692,638	-0,74	-1,728
2694,792	-0,66	-1,719
2696,952	-0,44	-1,599
2699,1	-0,52	-1,61
2701,248	-0,58	-1,598
2703,401	-0,46	-1,568
2705,549	-0,64	-1,64
2707,703	-0,36	-1,488
2709,857	-0,28	-1,48
2711,999	-0,24	-1,433
2714,153	0,04	-1,269
2716,301	-0,08	-1,318
2718,461	-0,04	-1,288
2720,608	0	-1,203
2722,762	0,14	-1,139
2724,922	0,2	-1,084
2727,07	0,38	-1,008
2729,218	0,36	-0,987
2731,372	0,36	-0,934
2733,514	0,4	-0,905
2735,662	0,48	-0,809
2737,803	0,46	-0,806
2739,957	0,56	-0,769
2742,111	0,66	-0,724
2744,271	0,82	-0,599
2746,419	0,88	-0,519
2748,573	1,08	-0,424
2750,715	1,14	-0,383
2752,869	1,28	-0,338
2755,016	1,34	-0,27
2757,17	1,62	-0,202
2759,318	1,66	-0,17
2761,466	1,46	-0,197
2763,608	2	-0,133
2765,756	2,04	-0,111
2767,904	2,08	-0,094
2770,046	2,52	-0,076
2772,205	2,74	-0,058
2774,365	2,76	-0,042
2776,513	3	-0,032
2778,661	3,12	-0,02
2780,821	3,14	-0,018
2782,963	3,14	-0,019
2785,117	3,24	-0,012
2787,271	3,28	-0,01
2789,419	3,28	-0,009
2791,572	3,32	-0,005
2793,732	3,32	-0,002
2795,892	3,32	-0,002
2798,034	3,32	-0,002
2800,182	3,32	-0,002
2802,33	3,32	-0,001
2804,49	3,32	-0,001
2806,65	3,3	-0,001
2808,797	3,32	-0,001
2810,945	3,3	-0,001
2813,093	3,3	-0,001
2815,235	3,3	-0,001
2817,395	3,3	-0,005
2819,561	3,28	-0,218
2821,709	3,26	-0,163
2823,857	3,28	-0,152
2826,004	2,86	-0,28
2828,158	2,9	-0,42
2830,3	3,02	-0,386
2832,448	2,26	-0,428
2834,59	2,5	-0,42
2836,75	2,52	-0,449
2838,904	1,68	-0,522
2841,046	1,66	-0,509
2843,199	1,38	-0,61
2845,353	0,54	-0,73
2847,501	-0,04	-0,865
2849,649	-0,16	-1,02
2851,803	-0,48	-1,13
2853,945	-0,54	-1,176
2856,093	-0,2	-1,096
2858,247	-0,3	-1,057
2860,394	-0,34	-1,08
2862,542	-0,36	-1,059
2864,69	-0,48	-1,299
2866,838	-0,72	-1,459
2869,004	-0,86	-1,54
2871,158	-0,96	-1,65
2873,306	-0,96	-1,709
2875,454	-1,08	-1,854
2877,607	-1,22	-1,905
2879,755	-1,08	-1,858
2881,909	-1,22	-1,911
2884,051	-1,44	-2,086
2886,211	-1,58	-2,16
2888,371	-1,76	-2,317
2890,525	-2,1	-2,486
2892,667	-2,12	-2,594
2894,821	-2,5	-2,732
2896,98	-2,58	-2,775
2899,122	-2,46	-2,72
2901,282	-3,16	-3
2903,436	-3,62	-3,21
2905,59	-4,4	-3,332
2907,744	-4,9	-3,38
2909,886	-5,2	-3,41
2912,039	-5,48	-3,422
2914,199	-5,9	-3,456
2916,341	-6,04	-3,466
2918,489	-6,12	-3,477
2920,649	-6,22	-3,486
2922,797	-6,3	-3,492
2924,945	-6,3	-3,493
2927,099	-6,3	-3,495
2929,247	-6,3	-3,496
2931,406	-6,3	-3,498
2933,56	-6,28	-3,499
2935,714	-6,26	-3,499
2937,856	-6,24	-3,5
2940,004	-6,2	-3,438
2942,146	-5,92	-3,211
2944,306	-4,94	-3,028
2946,466	-3,82	-2,88
2948,607	-3,8	-2,846
2950,755	-3,3	-2,824
2952,915	-2,86	-2,709
2955,057	-2,8	-2,692
2957,211	-2,7	-2,603
2959,365	-2,64	-2,603
2961,513	-2,48	-2,534
2963,667	-2,08	-2,428
2965,808	-1,8	-2,319
2967,962	-1,3	-2,149
2970,116	-1,02	-2,039
2972,258	-0,94	-1,973
2974,412	-0,88	-1,803
2976,566	-0,72	-1,737
2978,714	-0,5	-1,661
2980,856	-0,32	-1,532
2983,009	-0,18	-1,346
2985,157	0,08	-1,169
2987,299	0,22	-1,028
2989,459	0,4	-0,878
2991,601	0,38	-0,779
2993,749	0,6	-0,652
2995,909	0,88	-0,436
2998,051	0,96	-0,358
3000,204	1,24	-0,231
3002,37	1,56	-0,131
3004,518	2,12	-0,08
3006,666	2,26	-0,06
3008,814	2,62	-0,043
3010,962	2,7	-0,034
3013,116	2,92	-0,021
3015,264	2,96	-0,018
3017,405	3,02	-0,012
3019,553	3,08	-0,01
3021,713	3,06	-0,012
3023,855	3,06	-0,011
3026,003	3,06	-0,009
3028,151	3,04	-0,011
3030,311	3,08	-0,01
3032,471	3,12	-0,006
3034,619	3,14	-0,004
3036,778	3,12	-0,004
3038,932	3,12	-0,006
3041,074	3,1	-0,006
3043,228	3,1	-0,006
3045,376	3,12	-0,006
3047,53	3,12	-0,004
3049,672	3,12	-0,003
3051,826	3,12	-0,002
3053,967	3,12	-0,002
3056,127	3,12	-0,001
3058,275	3,12	-0,001
3060,423	3,12	-0,001
3062,583	3,1	0
3064,737	3,1	0
3066,885	3,1	0
3069,033	3,1	0
3071,192	3,08	-0,174
3073,34	3,08	-0,086
3075,494	3,08	-0,155
3077,636	3,08	-0,192
3079,79	2,36	-0,409
3081,95	1,84	-0,47
3084,098	1,18	-0,604
3086,252	0,46	-0,741
3088,405	0,4	-0,782
3090,547	0,44	-0,785
3092,695	0,2	-0,924
3094,855	-0,1	-1,08
3097,003	-0,2	-1,145
3099,151	-0,38	-1,294
3101,311	-0,5	-1,44
3103,453	-0,68	-1,651
3105,606	-1,08	-1,894
3107,754	-0,96	-1,961
3109,908	-1,16	-2,069
3112,068	-1,42	-2,268
3114,216	-1,42	-2,306
3116,37	-1,52	-2,31
3118,53	-1,8	-2,514
3120,672	-1,9	-2,574
3122,831	-2	-2,636
3124,991	-2,34	-2,798
3127,133	-2,38	-2,827
3129,293	-2,66	-2,946
3131,441	-2,84	-3,058
3133,589	-3,3	-3,144
3135,749	-4,04	-3,315
3137,903	-4,46	-3,358
3140,05	-4,24	-3,343
3142,198	-3,64	-3,279
3144,358	-4,16	-3,352
3146,506	-4,54	-3,375
3148,66	-4,72	-3,416
3150,808	-4,58	-3,398
3152,962	-5,08	-3,424
3155,116	-4,6	-3,426
3157,264	-5,1	-3,428
3159,417	-4,98	-3,45
3161,571	-5,38	-3,462
3163,713	-5,02	-3,448
3165,867	-5,08	-3,446
3168,015	-5,02	-3,45
3170,169	-5,4	-3,47
3172,317	-5,4	-3,474
3174,477	-5,48	-3,479
3176,618	-5,42	-3,477
3178,772	-5,5	-3,482
3180,926	-5,52	-3,482
3183,074	-5,6	-3,49
3185,228	-5,6	-3,491
3187,37	-5,52	-3,485
3189,524	-5,5	-3,482
3191,672	-5,44	-3,479
3193,819	-5,4	-3,47
3195,973	-5,34	-3,472
3198,133	-5,44	-3,481
3200,275	-5,3	-3,472
3201,625	3	0