File: ensaios_Ciclicos/com_TC/entrada/_2.txt
Time (s)	Load (N)	Displacement (mm)
0	0	-0,036
2,172	0	-0,346
4,284	0,5	-0,321
6,402	1	-0,194
8,513	1,5	-0,054
10,625	1,5	0
12,737	1,5	0
14,849	1,5	0
16,961	1,5	0
19,073	1,5	0
21,197	1,5	0
23,309	1,5	0
25,426	1,5	0
27,544	2	-0,005
29,662	2	0
31,774	2	0
33,892	2	0
36,016	2	0
38,14	2	0
40,258	2	0
42,375	2	0
44,487	2	0
46,599	2	-0,001
48,711	2	-0,001
50,823	2,5	0
52,935	2	0
55,059	2	-0,027
57,171	2	-0,189
59,282	2	-0,289
61,406	0,5	-0,464
63,524	-1,5	-0,66
65,654	-3,5	-0,875
67,766	-3,5	-0,876
69,884	-5,5	-1,025
72,008	-6,5	-1,208
74,126	-7,5	-1,288
76,238	-8	-1,31
78,349	-7,5	-1,317
80,473	-8,5	-1,469
82,585	-9	-1,53
84,709	-10	-1,617
86,827	-11	-1,744
88,957	-13	-1,889
91,075	-13	-1,905
93,193	-13	-2,011
95,316	-15,5	-2,211
97,434	-17,5	-2,338
99,564	-18,5	-2,466
101,682	-19	-2,492
103,812	-19,5	-2,621
105,93	-20,5	-2,711
108,048	-21	-2,769
110,171	-22,5	-2,938
112,289	-23,5	-3,017
114,401	-23,5	-2,97
116,513	-24	-2,982
118,625	-22,5	-2,898
120,737	-23	-2,937
122,849	-21,5	-2,917
124,967	-22,5	-2,934
127,09	-22,5	-2,958
129,214	-23	-2,923
131,338	-22,5	-2,867
133,462	-23	-2,967
135,586	-23	-2,99
137,71	-22	-2,908
139,834	-23,5	-3,023
141,952	-23	-2,959
144,07	-22	-2,932
146,187	-22,5	-2,954
148,305	-22,5	-2,947
150,417	-22	-2,842
152,535	-19	-2,666
154,647	-17,5	-2,499
156,765	-17,5	-2,482
158,889	-16,5	-2,406
161,001	-15,5	-2,321
163,125	-15,5	-2,303
165,242	-14,5	-2,18
167,372	-15	-2,208
169,496	-15	-2,206
171,614	-15	-2,2
173,738	-15	-2,23
175,856	-15	-2,235
177,974	-15	-2,298
180,109	-18	-2,473
182,227	-18,5	-2,632
184,339	-19	-2,596
186,457	-19	-2,712
188,575	-16	-2,648
190,687	-16,5	-2,656
192,805	-19	-2,661
194,935	-19	-2,63
197,046	-19	-2,647
199,158	-20	-2,734
201,27	-17,5	-2,667
203,382	-16	-2,626
205,494	-19	-2,637
207,606	-18	-2,58
209,724	-18,5	-2,628
211,848	-17,5	-2,652
213,972	-15,5	-2,625
216,102	-20	-2,784
218,22	-21	-2,852
220,337	-21	-2,847
222,449	-21	-2,843
224,561	-19,5	-2,818
226,679	-21	-2,877
228,803	-22	-2,986
230,921	-21	-2,98
233,033	-23	-3,045
235,15	-22,5	-3,025
237,274	-22	-3,155
239,392	-25	-3,252
241,51	-25,5	-3,287
243,634	-25,5	-3,344
245,758	-26	-3,375
247,87	-24	-3,365
249,987	-28	-3,38
252,105	-28	-3,38
254,217	-27	-3,37
256,335	-27	-3,369
258,459	-26	-3,378
260,583	-26	-3,418
262,701	-29	-3,441
264,813	-29	-3,446
266,936	-29,5	-3,45
269,06	-29	-3,458
271,178	-29,5	-3,47
273,302	-30	-3,474
275,426	-30,5	-3,482
277,556	-30	-3,487
279,686	-30,5	-3,491
281,816	-31	-3,494
283,94	-31	-3,496
286,063	-30,5	-3,497
288,181	-30,5	-3,497
290,305	-30,5	-3,497
292,435	-30,5	-3,497
294,559	-30,5	-3,498
296,677	-30,5	-3,498
298,789	-30,5	-3,498
300,913	-30,5	-3,498
303,03	-30,5	-3,498
305,148	-30,5	-3,499
307,266	-30,5	-3,499
309,39	-30,5	-3,499
311,514	-30,5	-3,5
313,644	-30,5	-3,497
315,768	-30	-3,499
317,898	-30	-3,491
320,021	-30	-3,466
322,145	-30,5	-3,4
324,263	-30	-3,36
326,387	-30	-3,207
328,517	-29,5	-3,07
330,641	-28	-3,068
332,765	-26,5	-2,936
334,895	-25,5	-2,824
337,018	-24,5	-2,713
339,148	-23	-2,644
341,272	-22,5	-2,534
343,39	-21,5	-2,461
345,508	-21	-2,413
347,626	-20	-2,343
349,75	-19,5	-2,283
351,88	-18	-2,203
353,992	-18,5	-2,184
356,115	-18,5	-2,165
358,239	-15,5	-2,003
360,363	-14,5	-1,91
362,487	-14	-1,816
364,605	-13,5	-1,779
366,723	-13	-1,748
368,847	-12	-1,639
370,965	-11,5	-1,623
373,094	-10	-1,424
375,218	-8	-1,338
377,342	-6,5	-1,138
379,46	-6	-1,138
381,584	-5,5	-1,049
383,708	-5,5	-0,994
385,832	-5	-0,943
387,95	-4	-0,825
390,061	-4	-0,841
392,185	-3,5	-0,764
394,315	-2	-0,602
396,445	-2	-0,543
398,569	-2	-0,519
400,693	-2	-0,499
402,805	-1,5	-0,466
404,923	-1	-0,423
407,047	-0,5	-0,335
409,158	-0,5	-0,345
411,27	-1	-0,348
413,394	0	-0,308
415,518	0	-0,241
417,636	0	-0,253
419,748	-0,5	-0,315
421,872	0	-0,229
424,002	0,5	-0,149
426,131	0,5	-0,146
428,255	2	-0,082
430,373	3	-0,054
432,503	3	-0,04
434,621	3	-0,038
436,751	2,5	-0,033
438,875	3	-0,035
440,993	3	-0,034
443,116	3	-0,028
445,24	3,5	-0,02
447,364	3,5	-0,016
449,488	3,5	-0,017
451,606	3,5	-0,018
453,724	3,5	-0,016
455,836	3,5	-0,016
457,954	3,5	-0,012
460,077	3,5	-0,01
462,201	3,5	-0,007
464,325	3,5	-0,006
466,449	3,5	-0,006
468,579	3,5	-0,006
470,703	3,5	-0,004
472,827	3,5	-0,004
474,945	3,5	-0,004
477,068	3,5	-0,004
479,186	3,5	-0,004
481,31	3,5	-0,003
483,428	3,5	-0,003
485,54	3,5	-0,004
487,664	3,5	-0,003
489,794	3,5	-0,002
491,918	3,5	-0,002
494,048	3,5	-0,002
496,183	3,5	-0,001
498,307	3,5	-0,001
500,431	3,5	-0,001
502,555	3	-0,001
504,679	3,5	-0,001
506,809	3,5	-0,001
508,933	3,5	-0,001
511,057	3,5	0
513,168	3,5	-0,001
515,292	3,5	0
517,422	3,5	0
519,546	3,5	0
521,682	3,5	-0,032
523,8	3,5	-0,066
525,924	3,5	-0,168
528,042	3,5	-0,114
530,159	3,5	-0,173
532,283	3,5	-0,226
534,413	3	-0,276
536,543	3	-0,358
538,661	3	-0,374
540,791	2	-0,413
542,927	0,5	-0,534
545,051	0	-0,639
547,174	-1,5	-0,752
549,292	-1	-0,753
551,422	-0,5	-0,738
553,546	-1	-0,677
555,67	-2	-0,802
557,794	-2,5	-0,896
559,918	-3	-0,947
562,042	-3,5	-1,04
564,171	-4	-1,068
566,289	-3,5	-1,025
568,419	-4	-1,148
570,537	-4	-1,105
572,655	-3,5	-1,068
574,779	-4	-1,145
576,897	-4	-1,112
579,015	-4,5	-1,112
581,139	-3,5	-1,057
583,262	-4	-1,135
585,386	-4,5	-1,153
587,498	-4,5	-1,166
589,61	-4	-1,082
591,734	-4	-1,139
593,858	-4	-1,126
595,976	-4,5	-1,197
598,094	-4,5	-1,2
600,223	-5	-1,249
602,347	-4,5	-1,241
604,471	-4,5	-1,234
606,595	-4,5	-1,226
608,719	-4,5	-1,207
610,843	-4,5	-1,205
612,967	-4,5	-1,192
615,085	-4,5	-1,207
617,197	-4	-1,114
619,32	-3,5	-1,074
621,438	-2,5	-0,951
623,556	-2,5	-0,892
625,674	-2,5	-0,882
627,798	-2	-0,874
629,91	-2	-0,816
632,034	-2	-0,867
634,152	-2,5	-0,862
636,275	-2,5	-0,886
638,393	-3	-0,912
640,517	-3	-1,011
642,641	-4	-1,067
644,771	-4,5	-1,142
646,889	-4,5	-1,231
649,019	-4,5	-1,292
651,137	-4,5	-1,244
653,26	-5	-1,274
655,372	-5	-1,316
657,496	-5	-1,342
659,614	-5	-1,379
661,732	-5	-1,346
663,856	-5	-1,313
665,974	-4,5	-1,312
668,092	-4,5	-1,275
670,209	-5	-1,295
672,333	-5	-1,33
674,451	-5	-1,33
676,569	-5	-1,34
678,693	-5	-1,375
680,811	-5,5	-1,445
682,929	-5,5	-1,432
685,059	-6	-1,504
687,176	-5,5	-1,454
689,294	-5,5	-1,491
691,418	-6	-1,506
693,536	-5,5	-1,521
695,66	-6,5	-1,561
697,784	-6	-1,543
699,914	-6	-1,63
702,032	-6,5	-1,666
704,162	-7,5	-1,716
706,285	-7,5	-1,749
708,415	-8,5	-1,82
710,533	-8	-1,857
712,657	-9	-1,881
714,775	-9	-1,907
716,899	-8,5	-1,842
719,017	-9	-1,874
721,147	-8,5	-1,88
723,27	-9,5	-2,016
725,382	-9	-1,953
727,5	-8,5	-1,862
729,624	-8,5	-1,892
731,754	-9,5	-1,946
733,872	-9	-1,989
735,996	-9,5	-1,954
738,12	-9	-1,931
740,237	-9	-1,882
742,361	-8,5	-1,891
744,479	-9,5	-1,95
746,603	-9,5	-1,984
748,721	-8,5	-1,882
750,839	-9	-1,866
752,957	-8,5	-1,86
755,075	-9	-1,909
757,199	-10	-2,034
759,31	-8	-1,892
761,428	-8	-1,844
763,552	-8	-1,878
765,676	-9	-1,908
767,794	-9	-1,896
769,912	-8,5	-1,832
772,03	-7,5	-1,826
774,154	-8	-1,808
776,271	-8	-1,739
778,395	-7,5	-1,763
780,525	-8	-1,817
782,643	-8	-1,839
784,767	-8	-1,884
786,885	-7,5	-1,862
789,021	-9	-2,011
791,133	-8	-1,894
793,262	-8	-1,928
795,392	-8,5	-1,913
797,51	-8,5	-1,902
799,634	-8,5	-1,937
801,758	-7,5	-1,876
803,888	-8	-1,984
806	-8,5	-1,996
808,124	-8,5	-2,02
810,241	-9	-2,025
812,365	-9,5	-2,107
814,489	-10,5	-2,169
816,613	-10,5	-2,194
818,743	-10,5	-2,275
820,873	-12	-2,354
822,997	-12	-2,364
825,115	-13,5	-2,48
827,232	-14	-2,565
829,35	-14,5	-2,565
831,468	-13,5	-2,475
833,592	-13,5	-2,482
835,71	-13	-2,45
837,834	-14,5	-2,629
839,964	-15	-2,689
842,082	-15	-2,721
844,206	-15	-2,77
846,323	-15,5	-2,791
848,453	-17	-2,835
850,577	-17	-2,87
852,701	-17,5	-2,936
854,819	-18	-2,979
856,943	-19	-3,082
859,067	-20,5	-3,113
861,179	-19,5	-3,108
863,296	-20	-3,129
865,42	-20	-3,154
867,532	-20	-3,113
869,656	-20	-3,148
871,78	-20,5	-3,189
873,898	-22	-3,299
876,028	-24,5	-3,38
878,152	-24,5	-3,408
880,269	-24,5	-3,406
882,399	-25	-3,43
884,517	-25,5	-3,435
886,641	-26	-3,456
888,759	-26	-3,457
890,877	-26	-3,452
893,001	-26	-3,457
895,119	-26,5	-3,465
897,236	-26,5	-3,466
899,36	-26,5	-3,468
901,478	-26,5	-3,468
903,596	-26,5	-3,463
905,726	-27	-3,477
907,848	-27	-3,479
909,968	-27	-3,481
912,086	-27	-3,481
914,204	-27	-3,474
916,327	-27	-3,472
918,445	-26,5	-3,472
920,569	-26,5	-3,463
922,687	-26,5	-3,465
924,811	-26,5	-3,465
926,929	-26,5	-3,468
929,053	-27	-3,481
931,171	-27	-3,482
933,288	-27	-3,482
935,406	-27	-3,479
937,524	-26,5	-3,469
939,648	-26,5	-3,468
941,772	-26,5	-3,469
943,89	-26,5	-3,462
946,014	-26,5	-3,471
948,138	-26,5	-3,476
950,255	-27	-3,48
952,373	-27	-3,476
954,491	-26,5	-3,48
956,609	-27	-3,482
958,733	-27	-3,486
960,857	-27	-3,486
962,975	-27	-3,486
965,093	-27	-3,485
967,21	-27	-3,486
969,334	-27	-3,486
971,446	-27	-3,486
973,57	-27	-3,488
975,688	-27	-3,488
977,812	-27	-3,489
979,93	-27	-3,491
982,048	-27	-3,49
984,165	-27	-3,487
986,277	-27	-3,486
988,407	-27	-3,486
990,531	-27	-3,488
992,643	-27	-3,488
994,773	-27	-3,49
996,897	-27	-3,493
999,015	-27	-3,492
1001,133	-27	-3,493
1003,256	-27	-3,493
1005,38	-27	-3,491
1007,504	-27	-3,492
1009,628	-27	-3,493
1011,746	-27	-3,491
1013,87	-27	-3,492
1015,988	-27	-3,493
1018,112	-27	-3,494
1020,235	-27	-3,495
1022,353	-27	-3,494
1024,477	-27	-3,494
1026,595	-27	-3,495
1028,719	-27	-3,494
1030,843	-27	-3,495
1032,967	-27	-3,496
1035,085	-27	-3,497
1037,196	-27	-3,498
1039,314	-27	-3,498
1041,444	-27	-3,498
1043,562	-27	-3,498
1045,686	-27	-3,498
1047,804	-27	-3,498
1049,922	-27	-3,499
1052,034	-27	-3,499
1054,151	-27	-3,499
1056,281	-27	-3,499
1058,399	-27	-3,499
1060,523	-27	-3,499
1062,641	-27	-3,499
1064,765	-27	-3,499
1066,889	-27	-3,499
1069,013	-27	-3,499
1071,137	-26,5	-3,499
1073,26	-27	-3,499
1075,384	-26,5	-3,499
1077,502	-26,5	-3,499
1079,626	-27	-3,499
1081,744	-27	-3,499
1083,868	-27	-3,499
1085,986	-26,5	-3,499
1088,11	-26,5	-3,499
1090,233	-27	-3,499
1092,351	-27	-3,499
1094,481	-26,5	-3,5
1096,599	-26,5	-3,479
1098,723	-26,5	-3,413
1100,841	-26,5	-3,45
1102,965	-26,5	-3,418
1105,083	-26,5	-3,407
1107,206	-26,5	-3,36
1109,336	-26	-3,212
1111,454	-25	-3,11
1113,578	-24,5	-3,059
1115,696	-24	-3,005
1117,814	-22	-2,894
1119,932	-22	-2,894
1122,05	-22	-2,89
1124,168	-22,5	-2,848
1126,291	-21	-2,775
1128,409	-22	-2,861
1130,527	-22,5	-2,856
1132,645	-22	-2,836
1134,763	-22,5	-2,863
1136,881	-22	-2,836
1139,011	-21	-2,808
1141,129	-22	-2,834
1143,258	-21,5	-2,808
1145,388	-20,5	-2,738
1147,506	-21	-2,726
1149,63	-20	-2,714
1151,748	-19,5	-2,708
1153,872	-19,5	-2,692
1155,99	-20	-2,716
1158,12	-19,5	-2,619
1160,237	-20	-2,674
1162,361	-21	-2,644
1164,479	-19	-2,601
1166,603	-19	-2,55
1168,715	-18,5	-2,56
1170,833	-19	-2,534
1172,951	-21	-2,496
1175,075	-17	-2,446
1177,192	-16,5	-2,446
1179,316	-16,5	-2,427
1181,434	-18	-2,427
1183,546	-19	-2,453
1185,664	-20	-2,437
1187,788	-16	-2,423
1189,906	-16,5	-2,482
1192,03	-16	-2,42
1194,147	-20,5	-2,58
1196,271	-16,5	-2,46
1198,389	-17,5	-2,503
1200,507	-16,5	-2,461
1202,631	-18	-2,48
1204,743	-19,5	-2,525
1206,867	-17	-2,512
1208,985	-15,5	-2,405
1211,109	-15,5	-2,381
1213,232	-14,5	-2,272
1215,35	-17	-2,284
1217,468	-14	-2,263
1219,592	-13,5	-2,179
1221,716	-13	-2,114
1223,84	-12,5	-2,046
1225,958	-11,5	-1,957
1228,082	-10,5	-1,879
1230,199	-10,5	-1,874
1232,323	-9	-1,807
1234,441	-9	-1,728
1236,559	-9	-1,69
1238,677	-8	-1,61
1240,807	-7	-1,563
1242,931	-7	-1,512
1245,049	-6,5	-1,507
1247,166	-6	-1,465
1249,284	-6	-1,486
1251,408	-7	-1,574
1253,526	-8	-1,707
1255,65	-9	-1,741
1257,768	-9	-1,769
1259,886	-9	-1,779
1262,004	-8,5	-1,73
1264,134	-8,5	-1,661
1266,257	-8,5	-1,659
1268,381	-8	-1,682
1270,499	-10	-1,815
1272,629	-9,5	-1,809
1274,747	-9	-1,799
1276,865	-10,5	-1,868
1278,983	-12	-1,985
1281,107	-12	-1,988
1283,224	-11,5	-1,959
1285,354	-12,5	-1,998
1287,472	-13,5	-2,088
1289,59	-13,5	-2,115
1291,708	-14,5	-2,19
1293,832	-13,5	-2,118
1295,95	-12,5	-2,033
1298,068	-12,5	-2,028
1300,192	-12	-1,961
1302,315	-11	-1,858
1304,433	-12	-1,938
1306,557	-10,5	-1,892
1308,681	-10	-1,82
1310,805	-10,5	-1,864
1312,923	-11,5	-1,939
1315,047	-10,5	-1,835
1317,171	-11,5	-1,923
1319,294	-11	-1,883
1321,412	-11,5	-1,909
1323,536	-12	-1,97
1325,654	-12	-1,964
1327,784	-12	-2,006
1329,902	-13	-2,011
1332,026	-12	-1,998
1334,143	-12	-2,036
1336,267	-13,5	-2,108
1338,385	-13,5	-2,15
1340,503	-14	-2,209
1342,627	-14,5	-2,239
1344,757	-13	-2,141
1346,875	-13	-2,163
1348,999	-13	-2,112
1351,111	-14	-2,158
1353,228	-14,5	-2,216
1355,352	-14,5	-2,188
1357,482	-13	-2,122
1359,6	-12,5	-2,108
1361,718	-12,5	-2,09
1363,842	-12	-2,019
1365,96	-11	-1,95
1368,09	-10,5	-1,833
1370,207	-9,5	-1,763
1372,325	-9	-1,709
1374,449	-9	-1,681
1376,561	-9	-1,739
1378,685	-9	-1,725
1380,797	-7,5	-1,633
1382,921	-7,5	-1,577
1385,039	-6,5	-1,47
1387,157	-5,5	-1,375
1389,274	-5,5	-1,37
1391,398	-5	-1,299
1393,522	-5	-1,242
1395,64	-5	-1,269
1397,764	-5	-1,224
1399,882	-4,5	-1,219
1402,006	-4,5	-1,146
1404,117	-4,5	-1,182
1406,241	-4,5	-1,217
1408,365	-4,5	-1,177
1410,483	-4,5	-1,193
1412,601	-4,5	-1,151
1414,725	-3,5	-1,025
1416,837	-4,5	-1,082
1418,961	-3,5	-1,015
1421,079	-3	-0,93
1423,196	-2,5	-0,862
1425,314	-2	-0,778
1427,432	-2	-0,789
1429,556	-2,5	-0,807
1431,674	-2,5	-0,823
1433,798	-1,5	-0,655
1435,916	-1	-0,586
1438,034	-0,5	-0,523
1440,157	-0,5	-0,435
1442,275	0	-0,371
1444,399	0	-0,315
1446,511	0	-0,284
1448,635	0,5	-0,204
1450,759	1	-0,14
1452,883	1	-0,103
1455,001	1,5	-0,096
1457,124	2	-0,079
1459,242	3	-0,057
1461,366	2,5	-0,043
1463,484	3	-0,037
1465,602	3,5	-0,03
1467,726	3,5	-0,02
1469,844	3,5	-0,018
1471,968	3,5	-0,012
1474,086	3,5	-0,011
1476,209	3,5	-0,01
1478,327	3,5	-0,008
1480,445	4	-0,008
1482,569	3,5	-0,007
1484,687	3,5	-0,006
1486,811	3,5	-0,004
1488,935	3,5	-0,003
1491,059	4	-0,004
1493,176	4	-0,004
1495,3	4	-0,004
1497,418	4	-0,003
1499,536	3,5	-0,003
1501,666	3,5	-0,003
1503,784	4	-0,003
1505,908	3,5	-0,003
1508,026	4	-0,004
1510,149	3,5	-0,004
1512,267	3,5	-0,004
1514,385	3,5	-0,004
1516,503	3,5	-0,003
1518,621	4	-0,004
1520,745	3,5	-0,004
1522,857	4	-0,004
1524,987	4	-0,004
1527,098	4	-0,006
1529,222	4	-0,005
1531,34	4	-0,004
1533,464	4	-0,003
1535,582	3,5	-0,002
1537,7	4	-0,002
1539,818	3,5	-0,002
1541,936	4	-0,002
1544,06	3,5	-0,002
1546,183	4	-0,002
1548,307	4	-0,002
1550,431	3,5	-0,002
1552,549	3,5	-0,002
1554,667	4	-0,001
1556,785	4	-0,001
1558,903	3,5	-0,001
1561,021	4	-0,001
1563,139	3,5	-0,001
1565,256	4	-0,001
1567,374	4	-0,001
1569,504	3,5	0
1571,622	3,5	-0,005
1573,746	3,5	-0,137
1575,864	4	-0,232
1577,982	3	-0,308
1580,105	3	-0,316
1582,223	3	-0,375
1584,347	2	-0,463
1586,459	2,5	-0,47
1588,577	2	-0,465
1590,695	2,5	-0,469
1592,819	1,5	-0,574
1594,937	0,5	-0,642
1597,054	-0,5	-0,743
1599,178	-0,5	-0,784
1601,302	-2	-0,893
1603,414	-1,5	-0,884
1605,538	-2	-0,95
1607,656	-2	-0,982
1609,78	-2,5	-0,996
1611,898	-2	-0,99
1614,022	-2,5	-1,052
1616,139	-3	-1,094
1618,263	-3	-1,086
1620,381	-3	-1,081
1622,499	-3	-1,128
1624,617	-3	-1,17
1626,735	-3	-1,18
1628,853	-3	-1,186
1630,977	-3	-1,177
1633,094	-3	-1,204
1635,218	-3	-1,196
1637,336	-3	-1,201
1639,46	-3,5	-1,295
1641,578	-3,5	-1,326
1643,696	-4	-1,44
1645,82	-4,5	-1,436
1647,938	-4,5	-1,451
1650,061	-4,5	-1,501
1652,179	-4,5	-1,485
1654,303	-4,5	-1,522
1656,427	-4	-1,46
1658,545	-4,5	-1,521
1660,663	-4	-1,411
1662,781	-4	-1,396
1664,911	-4	-1,401
1667,023	-3,5	-1,302
1669,14	-4	-1,334
1671,258	-4	-1,423
1673,388	-4,5	-1,482
1675,506	-4	-1,482
1677,624	-4,5	-1,514
1679,742	-5	-1,566
1681,86	-4,5	-1,55
1683,972	-4,5	-1,61
1686,095	-5	-1,63
1688,207	-5	-1,68
1690,331	-5	-1,671
1692,455	-5,5	-1,69
1694,573	-5	-1,599
1696,697	-4,5	-1,549
1698,815	-5	-1,555
1700,939	-5	-1,605
1703,056	-5,5	-1,679
1705,186	-5,5	-1,754
1707,304	-5,5	-1,717
1709,428	-5,5	-1,8
1711,546	-6	-1,821
1713,67	-6	-1,914
1715,8	-6,5	-1,941
1717,918	-7,5	-2,006
1720,035	-8	-2,095
1722,159	-7,5	-2,109
1724,277	-9	-2,185
1726,401	-9	-2,254
1728,525	-10	-2,364
1730,643	-10,5	-2,416
1732,767	-10,5	-2,441
1734,885	-11	-2,531
1737,008	-12	-2,598
1739,126	-12	-2,624
1741,25	-13,5	-2,694
1743,374	-14	-2,742
1745,492	-14,5	-2,785
1747,616	-15	-2,842
1749,734	-15	-2,894
1751,858	-16	-2,97
1753,982	-16,5	-3,037
1756,093	-17,5	-3,06
1758,217	-15,5	-3,042
1760,341	-15	-3,099
1762,459	-17,5	-3,109
1764,589	-18,5	-3,229
1766,707	-18	-3,267
1768,831	-19,5	-3,314
1770,949	-21,5	-3,375
1773,066	-21	-3,397
1775,19	-22	-3,411
1777,308	-22,5	-3,412
1779,432	-22	-3,418
1781,556	-22	-3,422
1783,674	-22,5	-3,437
1785,798	-23	-3,456
1787,922	-23,5	-3,472
1790,045	-24	-3,478
1792,163	-24	-3,479
1794,281	-24	-3,484
1796,405	-24	-3,488
1798,523	-24	-3,49
1800,647	-24	-3,492
1802,759	-24	-3,491
1804,877	-24	-3,492
1807	-24	-3,495
1809,118	-24	-3,495
1811,242	-24	-3,496
1813,36	-24	-3,497
1815,478	-24	-3,497
1817,596	-24	-3,497
1819,714	-24	-3,498
1821,832	-24	-3,498
1823,956	-24	-3,498
1826,073	-24	-3,499
1828,197	-24	-3,499
1830,315	-24	-3,499
1832,433	-24	-3,499
1834,557	-24	-3,498
1836,681	-24	-3,389
1838,805	-24	-3,343
1840,929	-24	-3,255
1843,046	-23,5	-3,218
1845,17	-23	-3,112
1847,282	-23	-3,057
1849,406	-20	-2,889
1851,524	-19	-2,819
1853,642	-20	-2,814
1855,772	-18	-2,708
1857,89	-17	-2,628
1860,007	-16,5	-2,628
1862,131	-15	-2,498
1864,249	-15	-2,46
1866,367	-14	-2,398
1868,485	-14	-2,393
1870,603	-13	-2,345
1872,733	-12,5	-2,265
1874,851	-11,5	-2,174
1876,974	-11	-1,995
1879,092	-9	-1,901
1881,21	-7,5	-1,795
1883,328	-7,5	-1,742
1885,446	-7	-1,715
1887,57	-6,5	-1,659
1889,694	-6,5	-1,64
1891,818	-6	-1,596
1893,936	-5,5	-1,5
1896,059	-5	-1,385
1898,171	-4,5	-1,363
1900,301	-3,5	-1,245
1902,419	-4	-1,224
1904,537	-3,5	-1,171
1906,655	-3	-1,155
1908,779	-2,5	-1,029
1910,903	-2	-0,941
1913,02	-1,5	-0,936
1915,138	-2	-0,936
1917,262	-1,5	-0,891
1919,38	-1	-0,829
1921,51	-1	-0,714
1923,628	-0,5	-0,615
1925,752	0	-0,548
1927,876	0	-0,45
1929,993	0	-0,339
1932,111	0,5	-0,267
1934,235	0,5	-0,232
1936,347	1,5	-0,147
1938,465	2	-0,123
1940,589	2,5	-0,086
1942,707	3	-0,083
1944,831	3	-0,062
1946,955	3,5	-0,041
1949,078	3,5	-0,032
1951,196	3,5	-0,025
1953,314	3,5	-0,021
1955,432	3,5	-0,018
1957,556	3,5	-0,012
1959,674	4	-0,009
1961,792	4	-0,008
1963,916	4	-0,008
1966,033	4	-0,006
1968,151	4	-0,006
1970,269	4	-0,006
1972,387	4	-0,004
1974,511	4	-0,004
1976,629	4	-0,004
1978,747	4	-0,004
1980,865	3,5	-0,003
1982,982	4	-0,003
1985,112	4	-0,002
1987,23	4	-0,002
1989,348	4	-0,002
1991,466	3,5	-0,002
1993,578	4	-0,002
1995,702	3,5	-0,002
1997,826	4	-0,002
1999,943	3,5	-0,002
2002,067	4	-0,002
2004,191	4	-0,002
2006,309	4	-0,002
2008,433	4	-0,001
2010,551	4	-0,001
2012,675	4	-0,001
2014,793	4	0
2016,916	4	0
2019,04	4	-0,036
2021,158	4	-0,09
2023,276	4	-0,121
2025,4	4	-0,173
2027,518	3,5	-0,282
2029,642	3	-0,361
2031,76	3,5	-0,284
2033,878	3	-0,381
2035,989	2,5	-0,521
2038,113	0,5	-0,594
2040,231	0	-0,646
2042,349	0,5	-0,694
2044,473	-0,5	-0,782
2046,591	-0,5	-0,786
2048,709	-0,5	-0,84
2050,827	-1	-0,914
2052,944	-1,5	-1,047
2055,068	-2	-1,145
2057,18	-2	-1,146
2059,298	-2,5	-1,349
2061,422	-3	-1,42
2063,54	-2,5	-1,361
2065,658	-3	-1,398
2067,782	-3	-1,486
2069,9	-3	-1,539
2072,023	-3	-1,627
2074,141	-3,5	-1,68
2076,259	-3,5	-1,701
2078,377	-4	-1,733
2080,489	-4	-1,74
2082,607	-3,5	-1,771
2084,725	-4	-1,872
2086,842	-4,5	-1,909
2088,96	-4,5	-1,951
2091,084	-5	-2,061
2093,208	-6	-2,244
2095,326	-6	-2,361
2097,45	-6,5	-2,411
2099,568	-7	-2,444
2101,686	-7	-2,554
2103,804	-8	-2,692
2105,921	-9	-2,825
2108,045	-10	-2,956
2110,163	-10,5	-3,056
2112,281	-10,5	-3,092
2114,405	-11,5	-3,117
2116,529	-12	-3,136
2118,653	-12	-3,166
2120,771	-13,5	-3,245
2122,888	-15	-3,337
2125,018	-15,5	-3,413
2127,136	-16	-3,428
2129,26	-17	-3,449
2131,384	-17	-3,458
2133,502	-17	-3,465
2135,626	-17	-3,475
2137,744	-17,5	-3,483
2139,868	-17,5	-3,484
2141,991	-17,5	-3,486
2144,109	-17,5	-3,489
2146,221	-17,5	-3,489
2148,351	-17,5	-3,492
2150,475	-17,5	-3,493
2152,599	-17,5	-3,494
2154,711	-17,5	-3,493
2156,834	-17,5	-3,496
2158,958	-17,5	-3,496
2161,076	-17,5	-3,496
2163,194	-17,5	-3,497
2165,324	-17,5	-3,498
2167,442	-17	-3,498
2169,56	-17,5	-3,498
2171,684	-17,5	-3,499
2173,832	-17	-3,497
2175,955	-17	-3,432
2178,073	-17	-3,36
2180,191	-17	-3,268
2182,315	-17	-3,168
2184,433	-17	-3,056
2186,551	-14	-2,979
2188,669	-12	-2,891
2190,787	-11,5	-2,823
2192,904	-10,5	-2,733
2195,022	-9	-2,611
2197,146	-8,5	-2,528
2199,27	-6,5	-2,354
2201,388	-6	-2,254
2203,5	-5,5	-2,157
2205,624	-4,5	-1,988
2207,742	-3	-1,814
2209,853	-3	-1,759
2211,977	-3	-1,67
2214,095	-2	-1,538
2216,213	-2	-1,549
2218,337	-2,5	-1,604
2220,455	-2	-1,524
2222,573	-1,5	-1,473
2224,691	-1,5	-1,414
2226,809	-1	-1,378
2228,932	-1	-1,311
2231,05	-1	-1,279
2233,174	-1	-1,202
2235,298	-0,5	-1,103
2237,422	0	-1,116
2239,54	-0,5	-1,176
2241,664	0	-1,06
2243,788	0	-0,946
2245,911	0	-0,922
2248,035	0	-0,769
2250,153	0	-0,764
2252,277	0,5	-0,539
2254,395	1	-0,427
2256,519	1,5	-0,355
2258,643	1,5	-0,256
2260,767	1,5	-0,201
2262,884	1,5	-0,23
2265,008	2,5	-0,121
2267,126	1,5	-0,224
2269,256	2,5	-0,145
2271,374	2	-0,145
2273,498	2,5	-0,124
2275,622	3	-0,104
2277,74	3	-0,086
2279,863	2,5	-0,097
2281,987	3	-0,061
2284,111	3	-0,071
2286,235	3,5	-0,055
2288,347	3	-0,057
2290,465	3	-0,067
2292,595	3,5	-0,056
2294,713	3	-0,068
2296,831	3	-0,064
2298,948	3,5	-0,054
2301,066	3	-0,057
2303,184	3	-0,078
2305,302	3	-0,062
2307,42	3,5	-0,063
2309,544	3,5	-0,06
2311,668	3,5	-0,051
2313,792	3,5	-0,041
2315,921	3,5	-0,032
2318,045	4	-0,028
2320,163	3,5	-0,032
2322,287	4	-0,023
2324,405	4	-0,024
2326,523	4	-0,02
2328,647	4	-0,017
2330,765	4	-0,015
2332,882	4	-0,014
2335,006	4	-0,014
2337,124	4	-0,012
2339,242	4	-0,007
2341,366	4	-0,006
2343,484	4	-0,008
2345,602	4	-0,007
2347,72	4	-0,008
2349,837	4	-0,013
2351,955	4	-0,012
2354,073	4	-0,012
2356,191	4	-0,01
2358,309	4	-0,007
2360,427	4	-0,006
2362,551	4	-0,006
2364,675	4	-0,006
2366,792	4	-0,007
2368,91	4	-0,005
2371,034	4	-0,005
2373,146	4	-0,004
2375,27	4	-0,003
2377,388	4	-0,003
2379,506	4	-0,003
2381,624	4	-0,003
2383,742	4	-0,003
2385,859	4	-0,003
2387,977	4	-0,002
2390,095	4	-0,002
2392,219	4	-0,001
2394,337	4	-0,001
2396,455	4	-0,001
2398,579	4	-0,001
2400,703	4	-0,001
2402,828	4	-0,001
2404,944	4	-0,001
2407,062	4	-0,001
2409,186	4	-0,001
2411,304	4	-0,001
2413,428	4	-0,001
2415,546	4	-0,001
2417,664	4	-0,001
2419,782	4	-0,002
2421,905	4	-0,004
2424,029	4	-0,004
2426,153	4,5	-0,004
2428,271	4	-0,003
2430,389	4,5	-0,003
2432,513	4	-0,005
2434,631	4	-0,01
2436,754	4	-0,013
2438,878	4	-0,015
2441,002	4	-0,015
2443,126	4	-0,025
2445,244	4	-0,033
2447,362	3,5	-0,036
2449,486	3,5	-0,038
2451,604	3,5	-0,046
2453,722	3,5	-0,064
2455,845	3	-0,108
2457,963	2	-0,176
2460,081	2	-0,221
2462,205	2,5	-0,218
2464,329	1,5	-0,398
2466,447	1,5	-0,427
2468,571	1,5	-0,599
2470,689	1	-0,738
2472,812	0,5	-0,868
2474,936	0,5	-0,895
2477,054	0,5	-1,094
2479,178	0	-1,164
2481,296	0	-1,25
2483,414	0	-1,32
2485,538	0	-1,358
2487,656	0	-1,539
2489,773	-0,5	-1,629
2491,903	-0,5	-1,741
2494,021	-1,5	-1,928
2496,145	-1,5	-1,924
2498,269	-1,5	-1,923
2500,387	-1,5	-1,985
2502,511	-1,5	-1,983
2504,629	-2,5	-2,18
2506,741	-3,5	-2,318
2508,864	-3	-2,346
2510,982	-3	-2,394
2513,1	-4,5	-2,489
2515,224	-4,5	-2,545
2517,342	-4	-2,54
2519,46	-5,5	-2,694
2521,584	-6	-2,798
2523,702	-7,5	-2,974
2525,819	-10,5	-3,059
2527,937	-10,5	-3,076
2530,055	-11	-3,191
2532,173	-11,5	-3,256
2534,297	-11,5	-3,232
2536,409	-11,5	-3,273
2538,527	-11	-3,354
2540,651	-11,5	-3,354
2542,768	-11,5	-3,338
2544,898	-11,5	-3,371
2547,016	-11,5	-3,45
2549,134	-11,5	-3,497
2551,258	-11	-3,5
2553,376	-11,5	-3,5
2555,494	-11,5	-3,499
2557,624	-11	-3,499
2559,742	-11	-3,499
2561,859	-11	-3,499
2563,983	-11	-3,499
2566,101	-11	-3,499
2568,231	-11	-3,499
2570,349	-11	-3,499
2572,467	-11,5	-3,499
2574,585	-11,5	-3,499
2576,703	-11	-3,499
2578,82	-11,5	-3,499
2580,944	-11,5	-3,5
2583,062	-11	-3,5
2585,18	-11	-3,499
2587,304	-11	-3,5
2589,416	-11,5	-3,5
2591,534	-11	-3,499
2593,664	-11	-3,5
2595,781	-11	-3,5
2597,899	-11	-3,5
2600,023	-11	-3,489
2602,141	-11	-3,425
2604,259	-11	-3,285
2606,383	-11	-3,247
2608,501	-11	-3,242
2610,619	-11	-3,269
2612,742	-10,5	-3,212
2614,86	-10,5	-3,226
2616,984	-10,5	-3,16
2619,102	-10,5	-3,221
2621,226	-10,5	-3,19
2623,344	-10,5	-3,147
2625,462	-9,5	-3,094
2627,586	-9	-3,021
2629,704	-7,5	-2,938
2631,827	-7	-2,88
2633,945	-5,5	-2,774
2636,063	-4,5	-2,648
2638,181	-4	-2,578
2640,311	-4	-2,498
2642,423	-3	-2,463
2644,541	-3	-2,428
2646,665	-3	-2,377
2648,782	-2,5	-2,254
2650,894	-2	-2,269
2653,024	-2	-2,14
2655,142	-1,5	-2,083
2657,26	-1,5	-2,124
2659,378	-1,5	-2,099
2661,496	-1	-2,035
2663,614	-1	-1,978
2665,737	-1	-1,906
2667,855	-1	-1,853
2669,979	-0,5	-1,733
2672,097	-0,5	-1,728
2674,209	-1	-1,769
2676,339	-0,5	-1,688
2678,457	0	-1,629
2680,581	0	-1,568
2682,698	0	-1,489
2684,816	0	-1,474
2686,934	0	-1,42
2689,058	0	-1,36
2691,176	0	-1,359
2693,294	0	-1,319
2695,418	0	-1,368
2697,536	0	-1,374
2699,653	0	-1,399
2701,777	0	-1,354
2703,895	0	-1,274
2706,019	0	-1,233
2708,137	0	-1,172
2710,255	0,5	-1,087
2712,385	0,5	-0,981
2714,497	0,5	-0,978
2716,615	1	-0,952
2718,738	0,5	-0,928
2720,856	1	-0,917
2722,974	1	-0,79
2725,104	1	-0,794
2727,222	1	-0,747
2729,34	1	-0,689
2731,464	1	-0,568
2733,588	1,5	-0,513
2735,711	1,5	-0,45
2737,835	1,5	-0,378
2739,947	1,5	-0,43
2742,065	1,5	-0,321
2744,183	1,5	-0,315
2746,307	1,5	-0,28
2748,425	1,5	-0,238
2750,549	2	-0,169
2752,666	2,5	-0,119
2754,784	2	-0,105
2756,908	2,5	-0,104
2759,026	3	-0,089
2761,15	3	-0,068
2763,274	3	-0,056
2765,386	3	-0,064
2767,504	3	-0,058
2769,628	3,5	-0,049
2771,751	3,5	-0,046
2773,869	3,5	-0,036
2775,993	3,5	-0,024
2778,111	4	-0,02
2780,229	3,5	-0,019
2782,347	3,5	-0,012
2784,465	4	-0,009
2786,583	4	-0,007
2788,706	4	-0,006
2790,83	4	-0,005
2792,948	4	-0,004
2795,072	4	-0,003
2797,19	4	-0,002
2799,308	4	-0,002
2801,426	4	-0,002
2803,544	4	-0,002
2805,661	4	-0,002
2807,779	4	-0,001
2809,897	4	-0,001
2812,015	4	-0,001
2814,139	4	-0,001
2816,257	3,5	-0,001
2818,375	4	-0,001
2820,499	4	-0,001
2822,616	4	-0,001
2824,74	4	-0,001
2826,864	4	-0,001
2828,982	4	-0,001
2831,1	4	-0,001
2833,224	4	-0,001
2835,342	4	-0,001
2837,46	4	0
2839,584	4	0
2841,701	4	0
2843,819	4	-0,01
2845,937	4	-0,073
2848,055	4	-0,178
2850,173	4	-0,168
2852,297	4	-0,282
2854,415	3,5	-0,378
2856,533	3,5	-0,442
2858,656	3	-0,52
2860,774	3,5	-0,461
2862,892	4	-0,349
2865,016	3,5	-0,351
2867,134	4	-0,297
2869,252	4	-0,191
2871,376	4	-0,218
2873,5	3,5	-0,33
2875,617	4	-0,314
2877,741	3,5	-0,4
2879,871	4	-0,296
2881,989	4	-0,269
2884,107	4	-0,253
2886,231	4	-0,232
2888,349	4	-0,237
2890,467	4	-0,254
2892,59	4	-0,246
2894,708	4	-0,252
2896,838	3,5	-0,345
2898,956	4	-0,248
2901,074	4	-0,158
2903,198	4	-0,073
2905,316	4	-0,048
2907,434	4	-0,099
2909,551	4	-0,037
2911,675	4	0
2913,793	4	-0,001
2915,911	4	0
2918,035	4	0
2920,153	4	0
2922,277	4	-0,001
2924,395	4	0
2926,513	4	0
2928,63	4	-0,001
2930,754	4	0
2932,872	4	0
2934,996	4	0
2937,114	4	0
2939,232	4	-0,037
2941,362	4	-0,103
2943,48	4	-0,121
2945,597	4	-0,085
2947,721	4	-0,164
2949,839	4	-0,191
2951,957	4	-0,242
2954,081	4	-0,217
2956,199	4	-0,19
2958,317	4	-0,254
2960,435	3,5	-0,29
2962,558	3,5	-0,295
2964,682	3,5	-0,304
2966,8	3,5	-0,314
2968,93	3,5	-0,386
2971,048	3,5	-0,32
2973,166	3,5	-0,31
2975,29	4	-0,356
2977,414	3	-0,38
2979,531	3	-0,386
2981,655	3	-0,326
2983,773	3	-0,334
2985,885	4	-0,319
2988,009	3,5	-0,354
2990,127	4	-0,326
2992,245	3,5	-0,333
2994,375	3	-0,338
2996,493	3,5	-0,305
2998,61	3,5	-0,229
3000,74	3,5	-0,279
3002,852	4	-0,205
3004,97	3,5	-0,232
3007,088	4	-0,258
3009,206	3,5	-0,258
3011,324	4	-0,247
3013,442	4	-0,028
3015,559	4	-0,02
3017,677	4	-0,001
3019,801	4	0
3021,919	4	-0,007
3024,037	4	0
3026,155	4	0
3028,279	4	0
3030,391	4	0
3032,508	4	-0,037
3034,632	4	-0,072
3036,75	4	0
3038,868	4	0
3040,986	4	-0,001
3043,104	4	-0,001
3045,222	4	-0,001
3047,346	4	-0,001
3049,463	4	-0,002
3051,581	4	-0,002
3053,699	4	-0,002
3055,829	4	-0,003
3057,947	4	-0,004
3060,065	4	-0,006
3062,189	4	-0,007
3064,307	4	-0,008
3066,425	3,5	-0,012
3068,548	4	-0,013
3070,66	3,5	-0,017
3072,778	4	-0,018
3074,896	3,5	-0,022
3077,02	3,5	-0,028
3079,138	3,5	-0,035
3081,262	3,5	-0,042
3083,38	3	-0,058
3085,497	3	-0,072
3087,609	2	-0,128
3089,739	2	-0,132
3091,857	1,5	-0,184
3093,975	1,5	-0,232
3096,099	1	-0,291
3098,217	1,5	-0,361
3100,335	1,5	-0,419
3102,452	1	-0,432
3104,576	1	-0,418
3106,694	1	-0,407
3108,812	0,5	-0,514
3110,93	1	-0,487
3113,048	1	-0,524
3115,166	1	-0,542
3117,29	1	-0,442
3119,408	1	-0,464
3121,525	1	-0,474
3123,649	1,5	-0,381
3125,767	1,5	-0,377
3127,891	1,5	-0,358
3130,009	1	-0,443
3132,133	1	-0,382
3134,251	1	-0,341
3136,375	1	-0,373
3138,492	1	-0,364
3140,61	1	-0,29
3142,734	1,5	-0,256
3144,852	1	-0,284
3146,964	1,5	-0,302
3149,088	1,5	-0,284
3151,206	1,5	-0,244
3153,324	1,5	-0,241
3155,441	1,5	-0,225
3157,571	1,5	-0,181
3159,689	1,5	-0,164
3161,807	2	-0,131
3163,931	2,5	-0,111
3166,049	2,5	-0,094
3168,167	2,5	-0,103
3170,291	2,5	-0,089
3172,408	2,5	-0,089
3172,744	3,5	0