File: ensaios_Ciclicos/com_TC/entrada/_4.txt
Time (s)	Load (N)	Displacement (mm)
0	0	-0,036
2,123	1	-0,202
4,331	-2,5	-0,672
6,443	-2	-0,721
8,561	-3	-0,78
10,672	-4,5	-0,876
12,784	-5,5	-0,937
14,896	-4,5	-0,943
17,008	-6,5	-1,062
19,12	-6,5	-1,132
21,232	-6,5	-1,102
23,344	-5,5	-1,083
25,462	-4,5	-1,082
27,573	-6,5	-1,147
29,691	-7,5	-1,184
31,803	-7,5	-1,271
33,921	-8	-1,354
36,039	-9	-1,408
38,151	-9	-1,496
40,281	-11	-1,698
42,405	-13	-1,813
44,517	-13,5	-1,9
46,634	-15	-2,032
48,752	-15	-2,07
50,864	-15,5	-2,075
52,994	-16,5	-2,216
55,112	-17	-2,257
57,224	-18,5	-2,365
59,342	-19,5	-2,467
61,46	-19	-2,476
63,577	-20,5	-2,641
65,701	-22	-2,692
67,82	-22	-2,77
69,943	-24	-2,876
72,073	-25,5	-3,105
74,185	-26,5	-3,138
76,309	-27	-3,224
78,427	-27	-3,237
80,544	-28,5	-3,328
82,662	-29	-3,343
84,786	-30	-3,388
86,91	-31,5	-3,437
89,034	-31,5	-3,44
91,158	-32	-3,457
93,276	-32	-3,467
95,394	-32,5	-3,471
97,511	-33	-3,48
99,623	-33	-3,482
101,741	-33	-3,483
103,865	-33	-3,487
105,989	-33	-3,489
108,107	-33	-3,492
110,219	-33	-3,49
112,337	-32,5	-3,489
114,449	-32,5	-3,492
116,56	-32,5	-3,493
118,678	-32,5	-3,494
120,796	-32,5	-3,492
122,914	-32,5	-3,492
125,026	-32,5	-3,492
127,138	-32,5	-3,494
129,262	-32,5	-3,494
131,451	-32,5	-3,498
133,575	-32,5	-3,498
135,693	-32,5	-3,498
137,823	-32,5	-3,498
139,947	-32,5	-3,499
142,077	-32,5	-3,499
144,201	-32,5	-3,499
146,319	-32,5	-3,499
148,436	-32,5	-3,5
150,554	-32	-3,5
152,678	-32	-3,5
154,796	-32	-3,46
156,92	-32	-3,344
159,044	-32	-3,334
161,168	-32	-3,308
163,292	-32	-3,238
165,404	-32	-3,315
167,527	-32	-3,262
169,639	-32	-3,259
171,757	-31,5	-3,211
173,881	-31,5	-3,207
175,993	-31,5	-3,178
178,111	-31	-3,126
180,223	-29,5	-3,043
182,335	-31,5	-3,048
184,464	-30	-2,886
186,582	-26	-2,818
188,7	-24,5	-2,717
190,812	-25	-2,667
192,936	-23	-2,574
195,06	-26	-2,539
197,19	-22	-2,38
199,32	-20,5	-2,298
201,455	-20,5	-2,118
203,585	-17	-1,979
205,709	-16,5	-1,912
207,833	-15,5	-1,813
209,963	-14	-1,716
212,081	-12,5	-1,62
214,205	-11	-1,479
216,329	-11,5	-1,465
218,446	-10,5	-1,413
220,57	-10	-1,368
222,694	-8	-1,225
224,812	-7	-1,163
226,936	-6	-1,074
229,066	-6	-1,02
231,184	-6	-1,004
233,314	-4,5	-0,838
235,438	-4	-0,714
237,567	-3,5	-0,654
239,685	-3,5	-0,664
241,803	-2	-0,505
243,927	-1,5	-0,391
246,057	-1,5	-0,485
248,187	-1,5	-0,437
250,311	-1	-0,423
252,441	-0,5	-0,285
254,564	-0,5	-0,302
256,688	-1,5	-0,416
258,806	-1,5	-0,427
260,924	-1,5	-0,427
263,042	-1,5	-0,449
265,172	-3,5	-0,639
267,302	-2,5	-0,574
269,414	-2,5	-0,632
271,537	-2,5	-0,58
273,661	-2	-0,523
275,785	-1	-0,372
277,903	-1	-0,319
280,027	-0,5	-0,3
282,157	0	-0,233
284,275	0,5	-0,178
286,399	0,5	-0,157
288,523	0	-0,159
290,64	0,5	-0,136
292,764	0	-0,123
294,882	0,5	-0,115
297,012	2	-0,077
299,136	2	-0,063
301,266	2,5	-0,048
303,39	2,5	-0,044
305,514	3	-0,042
307,637	2,5	-0,047
309,765	3	-0,038
311,891	2,5	-0,05
314,021	2,5	-0,04
316,157	3	-0,028
318,275	3	-0,026
320,393	3	-0,019
322,523	3,5	-0,015
324,652	3,5	-0,012
326,77	3,5	-0,011
328,9	3,5	-0,008
331,024	3,5	-0,005
333,148	3,5	-0,004
335,266	3,5	-0,004
337,39	3,5	-0,004
339,514	3,5	-0,004
341,637	3,5	-0,003
343,755	3,5	-0,004
345,873	3,5	-0,005
348,003	3,5	-0,004
350,127	3,5	-0,004
352,257	3,5	-0,003
354,393	3,5	-0,002
356,517	3,5	-0,002
358,64	3,5	-0,002
360,77	3,5	-0,002
362,9	3,5	-0,001
365,03	3,5	-0,001
367,16	3,5	0
369,29	3,5	-0,003
371,408	3,5	-0,054
373,544	3,5	-0,236
375,667	3,5	-0,24
377,785	3	-0,337
379,909	3	-0,372
382,033	2,5	-0,424
384,157	2	-0,511
386,281	0	-0,6
388,411	0	-0,632
390,535	1	-0,583
392,665	0	-0,642
394,776	1,5	-0,553
396,906	0	-0,662
399,036	0	-0,672
401,166	0	-0,658
403,284	-0,5	-0,663
405,42	-1,5	-0,747
407,538	0	-0,705
409,674	-1,5	-0,81
411,791	-2	-0,873
413,915	-2	-0,861
416,039	-4	-0,996
418,163	-3,5	-1,047
420,293	-4,5	-1,134
422,417	-4	-1,122
424,553	-4	-1,104
426,677	-4,5	-1,133
428,812	-4,5	-1,192
430,936	-4,5	-1,194
433,066	-5	-1,179
435,19	-4,5	-1,108
437,326	-5	-1,202
439,456	-5	-1,267
441,586	-5,5	-1,344
443,716	-5	-1,232
445,851	-5	-1,264
447,987	-5,5	-1,312
450,111	-5	-1,276
452,229	-5	-1,255
454,365	-5,5	-1,335
456,495	-5,5	-1,362
458,619	-5,5	-1,333
460,749	-6	-1,481
462,879	-7	-1,543
465,002	-8	-1,673
467,126	-8	-1,719
469,262	-8,5	-1,755
471,392	-9	-1,884
473,516	-11	-2,003
475,647	-11	-2,063
477,776	-12,5	-2,146
479,911	-13	-2,26
482,035	-13	-2,211
484,159	-13,5	-2,273
486,283	-14	-2,375
488,419	-15,5	-2,504
490,543	-15	-2,432
492,667	-16	-2,583
494,791	-16,5	-2,618
496,921	-19	-2,795
499,044	-19,5	-2,899
501,174	-20,5	-2,916
503,304	-20	-2,939
505,428	-21	-3,005
507,552	-20,5	-3,008
509,688	-22,5	-3,21
511,812	-24	-3,302
513,942	-26	-3,382
516,071	-26,5	-3,413
518,195	-27	-3,42
520,325	-27	-3,432
522,449	-27,5	-3,441
524,567	-28	-3,457
526,691	-28,5	-3,474
528,815	-29	-3,48
530,945	-29	-3,485
533,062	-29	-3,486
535,186	-29	-3,492
537,316	-29	-3,493
539,446	-29	-3,496
541,57	-29	-3,497
543,7	-29	-3,498
545,83	-29,5	-3,498
547,96	-29,5	-3,498
550,084	-29	-3,499
552,213	-29	-3,5
554,337	-29	-3,438
556,467	-29	-3,372
558,597	-29	-3,258
560,715	-29	-3,258
562,833	-28,5	-3,182
564,951	-29	-3,248
567,069	-29	-3,264
569,192	-29	-3,279
571,316	-28,5	-3,215
573,44	-29	-3,238
575,564	-29	-3,237
577,688	-29	-3,201
579,818	-28	-3,124
581,942	-27,5	-3,1
584,066	-28	-3,117
586,183	-28	-3,086
588,308	-26,5	-3,003
590,431	-24,5	-2,947
592,561	-25	-2,924
594,691	-23,5	-2,79
596,821	-23	-2,74
598,945	-23	-2,7
601,069	-22	-2,703
603,193	-21,5	-2,624
605,316	-21,5	-2,58
607,44	-21	-2,508
609,558	-20	-2,45
611,682	-19,5	-2,361
613,812	-18,5	-2,249
615,936	-18	-2,272
618,066	-17	-2,174
620,19	-15,5	-2,13
622,313	-15	-2,074
624,437	-15,5	-2,103
626,561	-15	-1,999
628,679	-14,5	-1,983
630,797	-14,5	-1,963
632,921	-13,5	-1,894
635,045	-13,5	-1,875
637,175	-13	-1,789
639,304	-12	-1,736
641,428	-10,5	-1,68
643,558	-9	-1,492
645,682	-8	-1,383
647,806	-6	-1,278
649,924	-6,5	-1,231
652,048	-6	-1,213
654,166	-5	-1,128
656,289	-5	-1,055
658,413	-4,5	-0,968
660,537	-4,5	-0,996
662,655	-4,5	-0,961
664,791	-3,5	-0,859
666,909	-3	-0,811
669,039	-3	-0,73
671,163	-3	-0,69
673,286	-2	-0,624
675,41	-1,5	-0,583
677,54	-1,5	-0,492
679,664	-1	-0,473
681,788	0	-0,364
683,906	0	-0,375
686,03	0	-0,314
688,154	0	-0,237
690,278	1	-0,135
692,407	2,5	-0,075
694,531	3	-0,049
696,661	3,5	-0,026
698,785	3,5	-0,018
700,903	3,5	-0,016
703,027	3,5	-0,011
705,157	3,5	-0,007
707,281	3,5	-0,005
709,404	3,5	-0,004
711,528	3,5	-0,002
713,658	3,5	-0,002
715,782	3,5	-0,001
717,906	3,5	-0,001
720,024	3,5	-0,001
722,148	4	0
724,272	3,5	-0,052
726,395	3,5	-0,174
728,525	3	-0,28
730,715	0,5	-0,598
732,839	-2	-0,761
734,957	-1,5	-0,824
737,081	-3	-0,918
739,205	-4	-1,07
741,335	-4	-1,198
743,458	-5,5	-1,35
745,582	-6	-1,55
747,7	-7,5	-1,731
749,83	-9	-1,944
751,954	-9,5	-2,006
754,072	-9,5	-2,022
756,196	-10	-2,066
758,314	-11	-2,173
760,438	-12,5	-2,228
762,561	-13	-2,28
764,685	-13,5	-2,395
766,809	-15	-2,52
768,927	-14,5	-2,562
771,051	-15,5	-2,634
773,181	-15,5	-2,682
775,305	-19	-2,878
777,423	-19,5	-3
779,54	-22	-3,18
781,664	-22	-3,233
783,8	-23	-3,303
785,924	-23,5	-3,339
788,042	-23,5	-3,349
790,166	-24	-3,365
792,29	-24	-3,382
794,414	-24,5	-3,406
796,543	-26	-3,44
798,667	-26,5	-3,452
800,785	-26,5	-3,454
802,909	-27	-3,466
805,033	-27	-3,48
807,157	-27,5	-3,487
809,281	-28	-3,491
811,405	-28	-3,494
813,528	-28	-3,494
815,652	-28	-3,496
817,77	-28	-3,497
819,894	-28	-3,498
822,018	-28	-3,5
824,142	-28	-3,275
826,26	-25	-2,934
828,384	-22,5	-2,706
830,507	-21	-2,492
832,637	-16	-2,183
834,767	-13	-1,903
836,885	-10,5	-1,654
839,015	-6	-1,311
841,133	-5,5	-1,232
843,263	-4,5	-0,976
845,387	-3	-0,793
847,511	-2	-0,624
849,628	-1	-0,466
851,752	0	-0,283
853,876	0,5	-0,179
856	1,5	-0,096
858,118	3	-0,062
860,242	3	-0,056
862,36	3	-0,063
864,484	3	-0,045
866,601	3	-0,046
868,725	3,5	-0,025
870,843	4	-0,012
872,967	4	-0,007
875,091	3,5	-0,006
877,215	3,5	-0,004
879,339	3,5	-0,003
881,463	4	-0,002
883,586	4	-0,002
885,71	4	-0,001
887,828	4	-0,001
889,952	4	0
892,076	4	0
894,206	4	-0,254
896,33	3,5	-0,359
898,454	1	-0,566
900,572	-1	-0,767
902,695	-2,5	-0,946
904,825	-3,5	-1,212
906,949	-5	-1,487
909,067	-6	-1,662
911,191	-7,5	-1,867
913,321	-9,5	-2,102
915,439	-11,5	-2,31
917,569	-15,5	-2,687
919,686	-18	-2,981
921,804	-22	-3,277
923,934	-25,5	-3,425
926,064	-26,5	-3,464
928,188	-27	-3,482
930,312	-27,5	-3,492
932,43	-27,5	-3,496
934,56	-27	-3,498
936,683	-27,5	-3,47
938,801	-27	-3,153
940,925	-23	-2,804
943,055	-18,5	-2,44
945,179	-15	-2,14
947,297	-11,5	-1,832
949,427	-7,5	-1,48
951,551	-5	-1,158
953,668	-3	-0,812
955,792	-0,5	-0,448
957,916	0,5	-0,178
960,034	2,5	-0,073
962,158	3,5	-0,032
964,282	4	-0,012
966,406	4	-0,005
968,524	4	-0,001
970,659	3,5	-0,072
972,777	3,5	-0,334
974,901	0,5	-0,63
977,037	-1,5	-0,87
979,155	-3	-1,056
981,285	-4	-1,184
983,409	-4,5	-1,384
985,527	-6	-1,602
987,651	-7	-1,775
989,78	-8	-1,962
991,898	-9,5	-2,115
994,022	-11,5	-2,347
996,14	-12,5	-2,485
998,264	-16,5	-2,766
1000,4	-18	-2,993
1002,518	-19	-3,04
1004,642	-20	-3,16
1006,765	-22,5	-3,28
1008,883	-23	-3,307
1011,001	-22,5	-3,347
1013,125	-24	-3,38
1015,243	-24	-3,372
1017,367	-25	-3,414
1019,491	-25,5	-3,442
1021,609	-26,5	-3,46
1023,732	-26,5	-3,471
1025,85	-27	-3,482
1027,974	-27	-3,488
1030,098	-27	-3,491
1032,216	-27	-3,493
1034,334	-27	-3,495
1036,446	-27	-3,495
1038,57	-27	-3,497
1040,7	-27	-3,498
1042,811	-27	-3,498
1044,941	-27	-3,499
1047,065	-27	-3,499
1049,183	-27	-3,499
1051,301	-27	-3,5
1053,419	-27	-3,5
1055,543	-27	-3,5
1057,673	-27	-3,5
1059,79	-27	-3,499
1061,908	-27	-3,5
1064,026	-27	-3,5
1066,15	-27	-3,491
1068,274	-27	-3,444
1070,392	-27	-3,455
1072,522	-27	-3,305
1074,646	-27	-3,285
1076,763	-27	-3,338
1078,887	-27	-3,34
1081,005	-27	-3,289
1083,129	-27	-3,247
1085,247	-26	-3,155
1087,371	-25,5	-3,088
1089,501	-23,5	-2,954
1091,619	-23	-2,948
1093,748	-22,5	-2,84
1095,872	-22,5	-2,806
1097,99	-22	-2,769
1100,108	-22,5	-2,86
1102,226	-23	-2,903
1104,344	-23	-2,914
1106,468	-24,5	-3,012
1108,598	-23,5	-2,98
1110,721	-22,5	-2,854
1112,839	-22	-2,821
1114,969	-21	-2,709
1117,093	-20	-2,578
1119,211	-19,5	-2,525
1121,341	-19,5	-2,583
1123,459	-18,5	-2,54
1125,583	-18	-2,468
1127,707	-17	-2,38
1129,824	-16,5	-2,343
1131,948	-17	-2,358
1134,066	-16	-2,294
1136,19	-14,5	-2,142
1138,308	-14,5	-2,137
1140,432	-13,5	-2,033
1142,55	-12,5	-1,979
1144,674	-11,5	-1,977
1146,791	-12	-1,908
1148,915	-10,5	-1,878
1151,033	-10	-1,858
1153,157	-9,5	-1,764
1155,281	-9	-1,729
1157,399	-9,5	-1,744
1159,529	-10	-1,749
1161,647	-10,5	-1,835
1163,776	-10	-1,803
1165,894	-9	-1,744
1168,024	-9,5	-1,732
1170,148	-9,5	-1,687
1172,272	-7,5	-1,583
1174,396	-8	-1,6
1176,514	-8	-1,639
1178,638	-8	-1,613
1180,762	-8,5	-1,6
1182,885	-8,5	-1,64
1185,009	-8,5	-1,588
1187,133	-7	-1,559
1189,251	-8,5	-1,693
1191,369	-9,5	-1,714
1193,487	-9	-1,662
1195,611	-7,5	-1,595
1197,729	-7,5	-1,474
1199,846	-8	-1,548
1201,982	-6,5	-1,394
1204,106	-6	-1,317
1206,23	-5	-1,266
1208,354	-4,5	-1,14
1210,478	-4,5	-1,153
1212,596	-4,5	-1,185
1214,72	-4,5	-1,167
1216,837	-4,5	-1,124
1218,961	-4	-1,094
1221,079	-3,5	-0,951
1223,203	-3,5	-0,944
1225,321	-3,5	-0,992
1227,445	-3	-0,935
1229,563	-4	-1,037
1231,687	-4,5	-1,07
1233,804	-4	-1,114
1235,934	-3	-0,993
1238,052	-2,5	-0,884
1240,17	-3	-0,964
1242,288	-2,5	-0,848
1244,412	-2	-0,824
1246,53	-2,5	-0,888
1248,66	-3	-0,924
1250,777	-2	-0,766
1252,901	-2	-0,725
1255,025	-2	-0,695
1257,149	-1,5	-0,698
1259,279	-1	-0,579
1261,397	-1	-0,59
1263,521	-1,5	-0,598
1265,645	-1	-0,564
1267,762	-0,5	-0,508
1269,886	-0,5	-0,53
1272,016	-1	-0,539
1274,134	-0,5	-0,47
1276,252	-0,5	-0,449
1278,382	-0,5	-0,41
1280,5	-0,5	-0,389
1282,624	0	-0,255
1284,742	-0,5	-0,371
1286,883	-0,5	-0,331
1289,001	0	-0,257
1291,125	0,5	-0,212
1293,243	0,5	-0,16
1295,373	0,5	-0,178
1297,491	1,5	-0,124
1299,615	0,5	-0,178
1301,739	0	-0,254
1303,862	0	-0,35
1305,98	-0,5	-0,357
1308,104	0,5	-0,17
1310,222	0	-0,215
1312,346	0,5	-0,224
1314,464	0,5	-0,224
1316,588	1	-0,167
1318,706	2	-0,105
1320,829	2,5	-0,085
1322,947	3	-0,061
1325,077	3	-0,05
1327,195	3,5	-0,035
1329,319	3,5	-0,025
1331,503	4	-0,006
1333,627	4	-0,003
1335,745	4	-0,002
1337,862	4	-0,001
1339,98	4	0
1342,098	4	-0,027
1344,222	4	-0,133
1346,34	4	-0,196
1348,47	4	-0,237
1350,588	4	-0,274
1352,712	4	-0,25
1354,83	4	-0,278
1356,953	3	-0,393
1359,071	2,5	-0,467
1361,189	3	-0,508
1363,313	3	-0,448
1365,431	2	-0,523
1367,555	2,5	-0,483
1369,673	1,5	-0,557
1371,803	0	-0,627
1373,92	1	-0,553
1376,044	2,5	-0,46
1378,162	1,5	-0,507
1380,286	1,5	-0,558
1382,404	0	-0,681
1384,522	-0,5	-0,75
1386,64	-2,5	-0,951
1388,764	-3	-1,108
1390,887	-4	-1,324
1393,011	-5	-1,551
1395,129	-5	-1,625
1397,247	-5,5	-1,639
1399,365	-5	-1,602
1401,483	-5,5	-1,634
1403,601	-5	-1,592
1405,719	-5,5	-1,595
1407,843	-6	-1,727
1409,96	-5	-1,545
1412,084	-6	-1,782
1414,202	-6,5	-1,83
1416,326	-6,5	-1,837
1418,444	-7	-1,922
1420,574	-9	-2,185
1422,698	-11	-2,347
1424,822	-11,5	-2,398
1426,939	-14,5	-2,681
1429,069	-16	-2,892
1431,187	-19	-3,111
1433,305	-20	-3,205
1435,429	-18,5	-3,114
1437,553	-18	-3,074
1439,677	-22	-3,289
1441,795	-22,5	-3,324
1443,93	-22,5	-3,374
1446,048	-24	-3,413
1448,166	-24,5	-3,439
1450,284	-25	-3,446
1452,402	-24,5	-3,444
1454,526	-25	-3,453
1456,656	-25,5	-3,466
1458,78	-25,5	-3,462
1460,897	-25,5	-3,465
1463,027	-25,5	-3,479
1465,145	-26	-3,488
1467,269	-26	-3,493
1469,387	-26	-3,496
1471,511	-26,5	-3,497
1473,635	-26	-3,497
1475,759	-26	-3,498
1477,876	-26	-3,499
1480	-26,5	-3,499
1482,118	-26	-3,462
1484,242	-26	-3,248
1486,366	-25	-3,086
1488,484	-23	-2,93
1490,608	-19,5	-2,636
1492,738	-18,5	-2,469
1494,856	-15	-2,289
1496,973	-13,5	-2,171
1499,091	-12,5	-1,985
1501,215	-10,5	-1,876
1503,339	-9,5	-1,805
1505,463	-8,5	-1,658
1507,581	-8,5	-1,659
1509,699	-7,5	-1,538
1511,829	-8	-1,546
1513,946	-8	-1,531
1516,076	-6,5	-1,455
1518,194	-5,5	-1,305
1520,318	-5,5	-1,298
1522,436	-4	-1,118
1524,56	-4	-1,088
1526,678	-4	-1,083
1528,808	-3,5	-0,975
1530,931	-2	-0,808
1533,049	-1	-0,632
1535,173	-0,5	-0,481
1537,297	-0,5	-0,429
1539,415	-1,5	-0,706
1541,533	-0,5	-0,531
1543,651	0	-0,452
1545,769	0	-0,399
1547,887	0	-0,369
1550,01	0	-0,258
1552,134	0,5	-0,205
1554,252	0,5	-0,217
1556,37	1,5	-0,158
1558,494	0,5	-0,204
1560,606	0	-0,221
1562,724	1	-0,175
1564,848	2	-0,136
1566,965	1,5	-0,11
1569,089	2,5	-0,094
1571,207	2	-0,116
1573,331	2	-0,109
1575,449	2,5	-0,092
1577,567	3	-0,074
1579,685	2	-0,081
1581,809	3	-0,07
1583,926	3	-0,067
1586,044	2,5	-0,071
1588,168	3,5	-0,048
1590,286	3,5	-0,028
1592,416	3,5	-0,015
1594,534	4	-0,013
1596,652	4	-0,014
1598,776	4	-0,011
1600,905	4	-0,007
1603,023	4	-0,006
1605,141	4	-0,007
1607,259	4	-0,004
1609,377	4	-0,003
1611,495	4	-0,005
1613,625	4	-0,008
1615,743	4	-0,011
1617,866	3,5	-0,017
1619,984	3,5	-0,03
1622,114	3,5	-0,031
1624,238	2,5	-0,076
1626,356	2	-0,108
1628,48	1,5	-0,154
1630,598	0,5	-0,215
1632,722	0,5	-0,181
1634,84	0,5	-0,224
1636,963	0	-0,334
1639,081	-0,5	-0,404
1641,193	-1	-0,589
1643,317	-1	-0,654
1645,435	-1	-0,659
1647,559	-0,5	-0,571
1649,683	0	-0,478
1651,801	-0,5	-0,479
1653,925	-0,5	-0,507
1656,042	0	-0,332
1658,16	0	-0,348
1660,278	0,5	-0,264
1662,396	0,5	-0,211
1664,52	1,5	-0,128
1666,638	2,5	-0,072
1668,762	3	-0,069
1670,879	0,5	-0,215
1673,003	2	-0,115
1675,121	3	-0,083
1677,245	2,5	-0,097
1679,369	2,5	-0,09
1681,493	3	-0,076
1683,623	3,5	-0,052
1685,741	3,5	-0,046
1687,865	3,5	-0,034
1689,988	3,5	-0,031
1692,106	3,5	-0,025
1694,23	4	-0,014
1696,354	4	-0,01
1698,478	4	-0,006
1700,596	4	-0,006
1702,72	4	-0,004
1704,838	4	-0,003
1706,967	4	-0,003
1709,085	4	-0,002
1711,203	4	-0,002
1713,327	4	-0,001
1715,445	4	-0,001
1717,563	4	-0,001
1719,687	4	-0,001
1721,799	4	0
1723,922	4	0
1726,04	4	-0,003
1728,158	4	0
1730,276	4	0
1732,4	4	-0,001
1734,524	4	-0,001
1736,642	4	-0,001
1738,76	4	-0,001
1740,883	4	-0,001
1743,001	4	0
1745,131	4	-0,091
1747,255	4	-0,137
1749,373	4	-0,079
1751,497	4	-0,127
1753,615	4	-0,158
1755,739	3,5	-0,314
1757,857	1,5	-0,442
1759,974	2	-0,495
1762,098	1,5	-0,551
1764,222	0	-0,766
1766,346	-1,5	-0,908
1768,464	-1,5	-0,908
1770,582	-2,5	-1,111
1772,706	-2,5	-1,172
1774,824	-2,5	-1,161
1776,947	-2,5	-1,163
1779,065	-2,5	-1,195
1781,189	-3	-1,256
1783,313	-3	-1,296
1785,431	-3	-1,323
1787,549	-3,5	-1,401
1789,679	-4	-1,478
1791,797	-4	-1,472
1793,92	-4	-1,491
1796,038	-4,5	-1,533
1798,162	-4	-1,515
1800,274	-4	-1,458
1802,392	-3,5	-1,378
1804,522	-3,5	-1,581
1806,646	-4	-1,626
1808,77	-4,5	-1,65
1810,887	-4,5	-1,65
1813,005	-4,5	-1,634
1815,129	-4,5	-1,686
1817,253	-4,5	-1,646
1819,377	-5	-1,696
1821,495	-4,5	-1,611
1823,613	-4,5	-1,686
1825,737	-5	-1,826
1827,855	-5	-1,805
1829,978	-5,5	-1,92
1832,102	-5,5	-1,938
1834,22	-5,5	-1,927
1836,344	-5	-1,819
1838,462	-6	-1,962
1840,586	-5	-1,89
1842,71	-6	-1,952
1844,828	-5,5	-1,941
1846,951	-6	-2,056
1849,075	-7	-2,16
1851,199	-7,5	-2,28
1853,317	-9	-2,502
1855,435	-10	-2,576
1857,559	-11	-2,736
1859,677	-11,5	-2,807
1861,801	-12	-2,916
1863,924	-13,5	-3,085
1866,048	-14,5	-3,093
1868,178	-13,5	-3,036
1870,296	-13,5	-3,052
1872,414	-14	-3,083
1874,538	-14,5	-3,15
1876,656	-15	-3,176
1878,78	-15	-3,275
1880,897	-15,5	-3,279
1883,027	-18	-3,362
1885,145	-15,5	-3,314
1887,263	-15,5	-3,307
1889,393	-18	-3,375
1891,505	-17	-3,371
1893,623	-17,5	-3,391
1895,747	-19	-3,423
1897,865	-19	-3,429
1899,988	-19,5	-3,431
1902,112	-20	-3,457
1904,23	-19,5	-3,457
1906,354	-20	-3,467
1908,472	-20	-3,476
1910,602	-19,5	-3,475
1912,72	-19,5	-3,48
1914,838	-19,5	-3,485
1916,961	-19,5	-3,486
1919,079	-20	-3,489
1921,197	-19,5	-3,484
1923,321	-19,5	-3,488
1925,445	-19,5	-3,492
1927,569	-19,5	-3,491
1929,681	-19,5	-3,491
1931,871	-19,5	-3,497
1933,994	-19	-3,498
1936,118	-19	-3,498
1938,242	-19,5	-3,499
1940,36	-19	-3,499
1942,478	-19	-3,5
1944,602	-19	-3,486
1946,72	-19	-3,376
1948,844	-19	-3,456
1950,967	-18,5	-3,426
1953,085	-18	-3,408
1955,209	-18	-3,252
1957,327	-17	-3,15
1959,451	-15	-3,008
1961,569	-13,5	-2,875
1963,687	-12	-2,764
1965,817	-10,5	-2,619
1967,934	-11,5	-2,694
1970,058	-11,5	-2,706
1972,176	-12	-2,739
1974,3	-13,5	-2,82
1976,418	-12	-2,736
1978,536	-11,5	-2,684
1980,654	-12	-2,758
1982,778	-12	-2,718
1984,896	-11	-2,691
1987,019	-10	-2,556
1989,137	-10	-2,55
1991,255	-10	-2,578
1993,379	-10	-2,532
1995,497	-9	-2,484
1997,621	-8,5	-2,487
1999,739	-12	-2,53
2001,863	-9	-2,527
2003,98	-10	-2,639
2006,098	-10	-2,564
2008,222	-9	-2,508
2010,34	-8,5	-2,51
2012,458	-10	-2,558
2014,582	-8,5	-2,48
2016,7	-8	-2,464
2018,818	-8	-2,48
2020,935	-10,5	-2,619
2023,053	-10,5	-2,745
2025,177	-11,5	-2,824
2027,295	-13	-2,867
2029,419	-11,5	-2,805
2031,537	-12,5	-2,896
2033,661	-14,5	-3,016
2035,779	-12	-2,861
2037,897	-16,5	-3,123
2040,02	-14,5	-3,045
2042,138	-14	-3,009
2044,256	-12,5	-2,924
2046,38	-13,5	-2,941
2048,498	-15	-3,07
2050,622	-16,5	-3,239
2052,74	-17	-3,37
2054,858	-16,5	-3,483
2056,981	-17	-3,499
2059,099	-16,5	-3,494
2061,217	-16,5	-3,499
2063,341	-17	-3,499
2065,459	-17	-3,498
2067,589	-17	-3,498
2069,707	-17	-3,498
2071,831	-17	-3,497
2073,948	-17	-3,496
2076,072	-17	-3,494
2078,19	-17	-3,489
2080,308	-16,5	-3,482
2082,432	-16,5	-3,479
2084,55	-16,5	-3,48
2086,668	-16,5	-3,484
2088,792	-16,5	-3,484
2090,909	-16,5	-3,48
2093,033	-16,5	-3,479
2095,151	-16	-3,466
2097,269	-15,5	-3,461
2099,393	-16	-3,46
2101,511	-15	-3,453
2103,635	-15	-3,434
2105,753	-14,5	-3,392
2107,87	-14	-3,424
2109,994	-16	-3,458
2112,112	-16	-3,449
2114,23	-15	-3,432
2116,354	-15,5	-3,445
2118,472	-15	-3,421
2120,596	-15	-3,449
2122,714	-15	-3,434
2124,832	-14,5	-3,422
2126,955	-15	-3,435
2129,073	-15	-3,419
2131,197	-15	-3,414
2133,315	-14,5	-3,398
2135,433	-14,5	-3,38
2137,557	-14	-3,376
2139,675	-12,5	-3,306
2141,799	-12	-3,302
2143,922	-12	-3,306
2146,04	-11,5	-3,258
2148,164	-12	-3,311
2150,282	-12	-3,272
2152,4	-12	-3,268
2154,518	-11,5	-3,252
2156,636	-11,5	-3,215
2158,76	-10,5	-3,14
2160,883	-8,5	-2,956
2163,001	-8,5	-2,913
2165,125	-8	-2,858
2167,243	-7,5	-2,777
2169,367	-6	-2,546
2171,485	-5,5	-2,498
2173,615	-5	-2,27
2175,733	-5	-2,249
2177,851	-4,5	-2,143
2179,974	-4,5	-2,146
2182,092	-4	-1,996
2184,228	-4,5	-2,092
2186,346	-3,5	-1,97
2188,464	-3,5	-1,931
2190,582	-3	-1,835
2192,7	-3	-1,746
2194,812	-2,5	-1,528
2196,935	-2,5	-1,547
2199,053	-1,5	-1,328
2201,177	-1,5	-1,188
2203,295	-1	-1,107
2205,413	-1	-1,018
2207,537	-1	-1,02
2209,655	-0,5	-0,898
2211,779	0	-0,811
2213,896	0,5	-0,692
2216,014	1	-0,586
2218,138	2,5	-0,526
2220,256	3	-0,376
2222,374	4	-0,115
2224,498	4,5	-0,003
2226,616	4	0
2228,74	4	0
2230,857	4	-0,001
2232,975	4	-0,002
2235,099	4,5	-0,002
2237,217	4	-0,003
2239,335	4	-0,003
2241,459	4,5	-0,004
2243,577	4	-0,005
2245,695	4,5	-0,004
2247,813	4,5	-0,003
2249,93	4,5	-0,005
2252,054	4,5	-0,005
2254,172	4	-0,005
2256,29	4	-0,004
2258,414	4	-0,002
2260,532	4,5	-0,002
2262,656	4	-0,002
2264,774	4	-0,002
2266,891	4	-0,002
2269,015	4	-0,001
2271,145	4,5	-0,002
2273,269	4,5	-0,002
2275,387	4,5	-0,001
2277,505	4,5	-0,001
2279,629	4	-0,001
2281,747	4,5	-0,001
2283,87	4	-0,001
2285,988	4,5	-0,001
2288,106	4	-0,001
2290,23	4	-0,001
2292,348	4,5	-0,001
2294,466	4	-0,001
2296,584	4,5	-0,001
2298,702	4	-0,001
2300,825	4	-0,001
2302,943	4	-0,001
2305,061	4	-0,001
2307,185	4	-0,001
2309,303	4	-0,001
2311,421	4	-0,001
2313,545	4	-0,001
2315,663	4	-0,002
2317,787	4	-0,002
2319,904	4	-0,003
2322,022	4	-0,004
2324,146	4	-0,006
2326,264	4	-0,008
2328,388	4	-0,011
2330,506	4	-0,013
2332,624	4	-0,015
2334,748	4	-0,023
2336,865	4	-0,017
2338,983	4	-0,021
2341,107	4	-0,025
2343,225	4	-0,028
2345,343	3,5	-0,057
2347,467	3	-0,084
2349,585	3,5	-0,063
2351,703	2,5	-0,172
2353,82	2	-0,173
2355,944	2,5	-0,146
2358,068	3	-0,126
2360,186	1,5	-0,331
2362,31	1,5	-0,281
2364,428	2	-0,202
2366,546	1,5	-0,208
2368,676	2,5	-0,142
2370,793	1,5	-0,219
2372,911	1,5	-0,247
2375,035	1,5	-0,464
2377,153	1	-0,501
2379,271	1	-0,498
2381,395	1	-0,695
2383,507	0,5	-0,804
2385,631	0,5	-0,706
2387,748	0,5	-0,734
2389,872	0,5	-0,714
2392,002	0	-0,943
2394,12	0	-0,938
2396,244	0	-0,918
2398,362	0	-1,004
2400,48	-0,5	-1,19
2402,604	-0,5	-1,33
2404,722	-1	-1,518
2406,839	-1,5	-1,684
2408,963	-2	-1,764
2411,081	-1,5	-1,711
2413,205	-3	-2,076
2415,323	-3,5	-2,154
2417,441	-5,5	-2,454
2419,565	-6	-2,599
2421,683	-8	-2,819
2423,8	-10	-2,978
2425,924	-9	-2,864
2428,042	-11,5	-3,083
2430,166	-12,5	-3,154
2432,284	-12	-3,128
2434,402	-12,5	-3,466
2436,532	-12,5	-3,5
2438,65	-13	-3,499
2440,78	-12,5	-3,498
2442,897	-13	-3,496
2445,015	-13	-3,496
2447,139	-12,5	-3,496
2449,251	-13	-3,493
2451,369	-13	-3,492
2453,499	-12,5	-3,494
2455,617	-13	-3,492
2457,735	-12,5	-3,486
2459,858	-12,5	-3,481
2461,976	-12,5	-3,476
2464,106	-12,5	-3,475
2466,224	-12	-3,468
2468,342	-12	-3,473
2470,466	-12	-3,47
2472,59	-11,5	-3,432
2474,714	-10,5	-3,406
2476,837	-10	-3,393
2478,955	-10,5	-3,405
2481,079	-10	-3,394
2483,197	-9	-3,348
2485,315	-9	-3,314
2487,439	-8,5	-3,296
2489,563	-7,5	-3,227
2491,687	-6	-2,978
2493,81	-6	-2,943
2495,928	-5,5	-2,773
2498,052	-4,5	-2,723
2500,17	-4,5	-2,526
2502,294	-4	-2,417
2504,412	-4	-2,353
2506,53	-4	-2,38
2508,654	-4	-2,351
2510,771	-3,5	-2,334
2512,895	-3	-2,103
2515,019	-2,5	-1,936
2517,143	-2,5	-1,966
2519,261	-2	-1,815
2521,391	-2	-1,754
2523,509	-2	-1,77
2525,633	-1,5	-1,586
2527,751	-1,5	-1,661
2529,868	-1,5	-1,532
2532,052	-2,5	-1,931
2534,17	-2	-1,845
2536,288	-2,5	-1,846
2538,412	-2	-1,748
2540,53	-2,5	-1,811
2542,654	-2	-1,797
2544,772	-2	-1,803
2546,889	-1	-1,323
2549,019	-1	-1,256
2551,137	-0,5	-1,166
2553,255	-0,5	-1,144
2555,373	-0,5	-1,117
2557,485	-0,5	-1,091
2559,609	-0,5	-1,148
2561,727	-0,5	-1,067
2563,844	-1	-1,174
2565,968	-1	-1,129
2568,086	-0,5	-0,948
2570,21	-0,5	-1,084
2572,322	0	-0,877
2574,44	1	-0,802
2576,564	0	-0,816
2578,682	0	-0,922
2580,805	0,5	-0,671
2582,923	0,5	-0,648
2585,041	3	-0,505
2587,165	3	-0,411
2589,289	3	-0,468
2591,407	3	-0,371
2593,531	2	-0,524
2595,649	1	-0,625
2597,767	1	-0,646
2599,89	0	-0,756
2602,008	0	-0,893
2604,132	0	-0,917
2606,25	0	-0,874
2608,368	0	-0,858
2610,492	3	-0,425
2612,61	4	-0,202
2614,734	4	-0,114
2616,851	4	-0,002
2618,969	4	-0,001
2621,093	4	0
2623,211	4	-0,001
2625,329	4	-0,002
2627,453	4	-0,006
2629,571	4	-0,007
2631,689	4	-0,016
2633,812	4	-0,027
2635,93	4	-0,024
2638,054	4	-0,023
2640,172	4	-0,025
2642,29	3,5	-0,049
2644,414	3,5	-0,043
2646,532	3,5	-0,039
2648,656	3	-0,061
2650,773	3,5	-0,057
2652,891	3,5	-0,054
2655,015	3,5	-0,049
2657,127	4	-0,037
2659,245	4	-0,038
2661,369	3,5	-0,044
2663,487	3,5	-0,042
2665,605	3	-0,119
2667,729	2,5	-0,118
2669,84	2,5	-0,139
2671,964	3	-0,105
2674,082	3,5	-0,076
2676,2	3	-0,081
2678,324	3,5	-0,071
2680,448	3,5	-0,058
2682,566	3,5	-0,055
2684,69	3,5	-0,04
2686,807	3,5	-0,032
2688,931	4	-0,026
2691,049	3,5	-0,03
2693,167	3,5	-0,033
2695,291	4	-0,026
2697,409	4	-0,031
2699,527	4	-0,029
2701,651	4	-0,022
2703,768	4	-0,016
2705,886	4	-0,016
2708,01	4	-0,011
2710,128	4	-0,01
2712,246	4	-0,008
2714,37	4	-0,006
2716,488	4	-0,005
2718,612	4	-0,004
2720,73	4,5	-0,004
2722,841	4	-0,005
2724,959	4	-0,004
2727,077	4	-0,008
2729,207	4	-0,016
2731,331	4	-0,026
2733,449	4	-0,021
2735,573	4	-0,016
2737,691	4	-0,012
2739,808	4	-0,009
2741,932	4	-0,007
2744,05	4	-0,006
2746,168	4	-0,005
2748,292	4	-0,002
2750,41	4	-0,003
2752,528	4	-0,004
2754,658	4	-0,004
2756,775	4	-0,004
2758,899	4	-0,006
2761,017	4	-0,008
2763,135	4	-0,01
2765,259	4	-0,01
2767,377	4	-0,016
2769,495	4	-0,013
2771,619	3,5	-0,023
2773,736	3,5	-0,029
2775,86	3,5	-0,039
2777,978	3	-0,062
2780,096	1,5	-0,226
2782,214	1,5	-0,28
2784,326	1	-0,523
2786,444	1	-0,66
2788,568	0,5	-0,679
2790,685	0,5	-0,643
2792,803	0,5	-0,653
2794,927	0,5	-0,714
2797,045	0,5	-0,74
2799,163	0,5	-0,736
2801,287	0	-1,014
2803,405	0	-1,265
2805,523	0	-1,218
2807,659	0	-1,102
2809,776	0	-1,033
2811,9	0,5	-0,982
2814,018	0,5	-0,956
2816,142	0	-0,974
2818,266	0,5	-0,992
2820,384	0	-1,26
2822,502	0	-1,184
2824,626	0	-1,443
2826,743	-0,5	-1,709
2828,867	-0,5	-1,758
2830,985	-2	-2,052
2833,109	-2,5	-2,288
2835,227	-4,5	-2,671
2837,345	-9	-2,952
2839,463	-10	-3,044
2841,587	-8,5	-3,04
2843,704	-11	-3,331
2845,822	-11	-3,5
2847,946	-11	-3,5
2850,064	-11	-3,499
2852,182	-11	-3,494
2854,306	-10,5	-3,487
2856,424	-9,5	-3,439
2858,542	-7	-3,34
2860,665	-8	-3,376
2862,777	-6	-3,234
2864,901	-6,5	-3,315
2867,019	-7,5	-3,343
2869,137	-8	-3,394
2871,261	-8	-3,402
2873,379	-8,5	-3,41
2875,503	-9,5	-3,438
2877,627	-9	-3,413
2879,744	-9,5	-3,432
2881,862	-9,5	-3,444
2883,986	-10	-3,449
2886,104	-7,5	-3,326
2888,228	-6	-3,239
2890,346	-6	-3,225
2892,464	-6,5	-3,247
2894,576	-6	-3,23
2896,699	-6	-3,258
2898,817	-6,5	-3,289
2900,941	-6	-3,235
2903,059	-6	-3,29
2905,177	-7	-3,339
2907,295	-8	-3,376
2909,419	-8	-3,376
2911,537	-7	-3,321
2913,66	-6,5	-3,334
2915,778	-5,5	-3,225
2917,896	-6	-3,276
2920,02	-6,5	-3,324
2922,138	-7,5	-3,364
2924,256	-7	-3,343
2926,38	-8	-3,398
2928,498	-6,5	-3,325
2930,615	-8	-3,389
2932,739	-6,5	-3,331
2934,857	-6,5	-3,329
2936,981	-7,5	-3,325
2939,099	-6	-3,293
2941,217	-5,5	-3,267
2943,335	-6	-3,296
2945,453	-5,5	-3,219
2947,571	-5	-3,112
2949,694	-4,5	-2,946
2951,812	-3,5	-2,802
2953,93	-3,5	-2,802
2956,054	-4	-2,906
2958,172	-4	-2,883
2960,29	-4	-2,91
2962,414	-4,5	-2,976
2964,532	-4,5	-2,992
2966,649	-4,5	-2,981
2968,773	-4,5	-2,957
2970,891	-4,5	-2,973
2973,003	-4,5	-3,002
2975,127	-5	-3,042
2977,245	-4,5	-2,993
2979,363	-3	-2,572
2981,487	-3	-2,608
2983,604	-3	-2,576
2985,728	-3	-2,558
2987,846	-3	-2,584
2989,964	-2,5	-2,328
2992,082	-2,5	-2,206
2994,206	-2	-2,112
2996,33	-1,5	-1,861
2998,448	-1	-1,61
3000,577	-1	-1,542
3002,695	-1	-1,611
3004,813	-1	-1,516
3006,937	-1	-1,251
3009,055	0	-0,922
3011,179	0	-0,872
3013,297	0	-0,798
3015,415	1	-0,569
3017,532	1	-0,71
3019,656	2	-0,47
3021,774	3	-0,501
3023,898	3	-0,398
3026,016	3	-0,392
3028,134	3,5	-0,267
3030,258	3,5	-0,282
3032,382	4	-0,022
3034,5	4	-0,001
3036,617	4	-0,003
3038,741	4	-0,027
3040,859	4	-0,005
3042,983	4	-0,002
3045,101	4	0
3047,219	4	-0,001
3049,343	4	-0,001
3051,461	4	-0,001
3053,578	4	-0,001
3055,702	4	-0,001
3057,82	4	-0,001
3059,944	4	-0,001
3062,068	4	-0,002
3064,186	4	-0,002
3066,304	4	-0,002
3068,428	4	-0,002
3070,545	4	-0,002
3072,663	4	-0,002
3074,787	4	-0,002
3076,911	4	-0,002
3079,023	4	-0,002
3081,147	4	-0,003
3083,265	4	-0,005
3085,383	4	-0,01
3087,507	3,5	-0,018
3089,624	3,5	-0,025
3091,742	3,5	-0,027
3093,866	3,5	-0,029
3095,984	2	-0,135
3098,102	1,5	-0,338
3100,226	1	-0,42
3102,344	1	-0,714
3104,468	0	-1,23
3106,579	0	-1,416
3108,703	-0,5	-1,7
3110,821	-1	-1,982
3112,939	-2,5	-2,36
3115,063	-2,5	-2,378
3117,181	-3	-2,522
3119,311	-3	-2,537
3121,429	-3	-2,532
3123,546	-4,5	-2,676
3125,67	-4	-2,674
3127,788	-6	-2,865
3129,906	-7	-2,924
3132,114	-2,5	-2,373
3134,238	-2	-2,306
3136,362	-2,5	-2,378
3138,48	-3	-2,43
3140,604	-3,5	-2,576
3142,721	-3,5	-2,583
3144,839	-3,5	-2,625
3146,963	-4	-2,628
3149,081	-4,5	-2,698
3151,217	-6,5	-2,938
3153,335	-10	-3,232
3155,453	-10,5	-3,5
3157,571	-10,5	-3,5
3159,694	-10,5	-3,499
3161,812	-10,5	-3,498
3163,93	-10,5	-3,497
3166,048	-10,5	-3,496
3168,166	-10,5	-3,493
3170,284	-10,5	-3,486
3172,414	-10	-3,47
3174,532	-9	-3,428
3175,929	4	0