File: Cycling_tests/_40perc/_1gap/entrada/_1.txt
Time (s)	Load (N)	Displacement (mm)
0	0	-0,035
2,147	0,5	-0,006
4,36	0,5	-0,27
6,496	1	-0,047
8,632	1,5	0
10,768	1,5	0
12,91	1,5	-0,001
15,046	1	-0,001
17,182	1,5	-0,001
19,318	1,5	-0,001
21,454	1,5	-0,001
23,589	1,5	-0,001
25,732	1,5	-0,001
27,867	1,5	-0,001
30,003	1,5	-0,002
32,139	1,5	-0,002
34,281	1,5	-0,002
36,417	1,5	-0,003
38,559	1,5	-0,002
40,694	1,5	-0,003
42,83	1,5	-0,003
44,972	1,5	-0,003
47,114	2	-0,004
49,25	1,5	-0,004
51,386	2	-0,004
53,522	1,5	-0,004
55,658	2	-0,005
57,799	1,5	-0,005
59,947	2	-0,004
62,095	2	-0,004
64,231	2	-0,004
66,367	2	-0,005
68,509	2	-0,005
70,657	2	-0,003
72,799	2	-0,003
74,934	2	-0,004
77,082	2	-0,003
79,218	2	-0,002
81,354	2	-0,002
83,502	2	-0,002
85,644	2	-0,002
87,786	2	-0,001
89,928	2	-0,002
92,063	2	-0,004
94,211	2	-0,003
96,347	2	-0,003
98,489	2	-0,002
100,631	2	-0,002
102,767	2	-0,002
104,915	2	-0,001
107,051	2	-0,001
109,187	2,5	-0,001
111,322	2,5	-0,001
113,47	2,5	-0,001
115,618	2	-0,001
117,754	2,5	-0,001
119,896	2,5	0
122,038	2	0
124,18	2	-0,002
126,315	2	-0,027
128,457	2	-0,065
130,605	2	-0,12
132,759	2,5	-0,226
134,901	2	-0,261
137,037	1,5	-0,309
139,185	1,5	-0,347
141,327	1,5	-0,472
143,463	1	-0,515
145,604	0,5	-0,542
147,752	0	-0,598
149,9	0	-0,758
152,037	0	-0,801
154,19	-1,5	-0,878
156,332	-1,5	-0,951
158,486	-1,5	-1,018
160,622	-1,5	-0,955
162,758	-1,5	-0,981
164,893	-2	-1
167,035	-2,5	-1,083
169,177	-2,5	-1,086
171,313	-2,5	-1,149
173,461	-3	-1,225
175,603	-3	-1,322
177,739	-3	-1,278
179,875	-2,5	-1,071
182,016	-0,5	-0,818
184,164	-0,5	-0,808
186,306	-0,5	-0,864
188,442	0	-0,709
190,59	-1	-0,837
192,726	-0,5	-0,811
194,874	-1	-0,853
197,015	-1	-0,883
199,157	-1,5	-0,944
201,311	-2	-1,076
203,453	-1,5	-0,999
205,608	-2	-1,025
207,749	-2	-1,038
209,891	-2	-1,018
212,039	-2	-1,062
214,174	-2	-1,045
216,31	-2	-0,97
218,452	-1,5	-0,946
220,588	-1	-0,828
222,73	-1	-0,885
224,872	-1	-0,908
227,02	-1,5	-0,968
229,168	-2	-1,043
231,313	-2	-1,121
233,451	-2,5	-1,155
235,587	-2,5	-1,122
237,729	-2,5	-1,188
239,878	-2	-1,109
242,019	-2	-1,144
244,167	-2,5	-1,23
246,309	-3	-1,36
248,462	-2,5	-1,422
250,604	-3	-1,356
252,764	-3	-1,411
254,906	-3	-1,297
257,048	-3	-1,311
259,196	-3	-1,375
261,338	-3	-1,431
263,486	-3	-1,394
265,634	-3	-1,47
267,775	-3	-1,452
269,929	-3	-1,391
272,071	-3	-1,326
274,225	-3	-1,419
276,367	-2,5	-1,311
278,509	-2,5	-1,34
280,657	-3	-1,356
282,805	-3,5	-1,554
284,947	-3,5	-1,61
287,094	-4	-1,717
289,242	-4,5	-1,828
291,39	-4,5	-1,85
293,538	-5	-2,064
295,686	-6	-2,225
297,84	-7	-2,5
299,988	-8	-2,575
302,135	-9	-2,746
304,283	-10	-2,853
306,437	-10,5	-2,974
308,585	-12	-3,14
310,727	-13	-3,264
312,881	-13,5	-3,306
315,023	-13,5	-3,334
317,171	-14,5	-3,383
319,318	-15	-3,428
321,46	-15,5	-3,44
323,602	-15,5	-3,425
325,744	-15,5	-3,444
327,892	-16	-3,464
330,034	-16	-3,471
332,17	-16,5	-3,474
334,324	-16,5	-3,485
336,459	-16,5	-3,49
338,607	-16,5	-3,493
340,749	-17	-3,496
342,885	-17	-3,496
345,033	-16,5	-3,497
347,175	-16,5	-3,496
349,335	-16,5	-3,498
351,483	-16,5	-3,498
353,63	-16,5	-3,498
355,778	-16,5	-3,498
357,926	-16,5	-3,498
360,074	-16,5	-3,499
362,222	-16,5	-3,5
364,37	-16,5	-3,499
366,506	-16,5	-3,5
368,648	-16,5	-3,482
370,789	-16,5	-3,402
372,937	-16	-3,365
375,085	-16,5	-3,42
377,233	-16	-3,372
379,381	-16	-3,492
381,523	-16,5	-3,439
383,665	-16,5	-3,268
385,813	-16	-3,111
387,955	-14,5	-3,001
390,102	-13,5	-2,874
392,251	-12,5	-2,739
394,386	-13,5	-2,852
396,54	-12	-2,725
398,682	-10,5	-2,548
400,83	-10	-2,434
402,984	-9	-2,319
405,132	-10,5	-2,499
407,279	-10	-2,455
409,421	-8,5	-2,315
411,569	-8	-2,224
413,717	-7,5	-2,168
415,865	-6,5	-2,024
418,007	-7	-2,064
420,143	-6	-1,959
422,291	-6	-1,905
424,438	-5,5	-1,888
426,586	-5,5	-1,771
428,734	-4,5	-1,749
430,882	-4,5	-1,658
433,042	-3,5	-1,508
435,19	-3	-1,394
437,344	-1,5	-1,15
439,498	-1	-0,928
441,645	-1,5	-1,088
443,793	-1	-0,964
445,947	-1,5	-0,993
448,095	-1,5	-1,19
450,243	-2,5	-1,274
452,391	-3,5	-1,58
454,551	-2,5	-1,387
456,699	-3,5	-1,562
458,846	-4,5	-1,715
461,001	-5	-1,79
463,148	-5	-1,821
465,296	-6,5	-2,06
467,444	-8	-2,246
469,586	-9	-2,36
471,74	-10	-2,489
473,882	-13	-2,844
476,029	-13,5	-2,959
478,177	-13,5	-2,926
480,313	-15,5	-3,162
482,467	-15,5	-3,359
484,603	-15,5	-3,499
486,751	-15,5	-3,5
488,893	-15,5	-3,5
491,041	-15,5	-3,499
493,189	-16	-3,498
495,33	-15,5	-3,499
497,478	-15,5	-3,499
499,626	-15,5	-3,5
501,78	-15,5	-3,5
503,922	-15,5	-3,467
506,076	-15,5	-3,343
508,23	-15,5	-3,5
510,378	-15,5	-3,5
512,531	-15,5	-3,5
514,679	-15,5	-3,5
516,821	-15,5	-3,499
518,963	-15,5	-3,5
521,111	-15,5	-3,499
523,259	-15,5	-3,5
525,407	-15,5	-3,5
527,549	-15,5	-3,499
529,696	-15,5	-3,5
531,844	-15,5	-3,471
533,998	-15,5	-3,243
536,146	-14,5	-3,057
538,288	-13	-2,906
540,436	-15	-3,06
542,584	-15,5	-3,259
544,726	-15	-3,182
546,879	-14,5	-3,052
549,021	-15,5	-3,201
551,175	-15	-3,099
553,323	-15,5	-3,25
555,471	-15,5	-3,5
557,619	-15,5	-3,5
559,761	-15,5	-3,498
561,909	-15	-3,498
564,056	-15,5	-3,496
566,198	-15,5	-3,491
568,346	-15	-3,48
570,494	-15	-3,453
572,636	-13,5	-3,401
574,784	-15	-3,44
576,932	-15	-3,467
579,08	-14,5	-3,441
581,227	-13,5	-3,356
583,387	-12	-3,298
585,535	-13	-3,353
587,683	-13	-3,345
589,831	-13,5	-3,378
591,979	-14	-3,424
594,127	-15	-3,458
596,275	-15	-3,476
598,422	-15	-3,486
600,564	-15	-3,488
602,712	-15	-3,492
604,86	-15,5	-3,494
607,008	-15	-3,497
609,156	-15	-3,496
611,304	-15	-3,495
613,452	-15	-3,497
615,594	-15	-3,498
617,741	-15	-3,498
619,883	-15	-3,496
622,031	-15	-3,496
624,179	-15	-3,495
626,327	-15	-3,495
628,475	-15	-3,494
630,623	-15	-3,496
632,771	-15	-3,496
634,912	-15	-3,498
637,06	-15	-3,497
639,208	-15	-3,496
641,356	-15	-3,494
643,504	-15	-3,495
645,646	-15	-3,491
647,8	-15	-3,485
649,948	-15	-3,475
652,095	-15	-3,466
654,243	-14,5	-3,429
656,391	-13	-3,368
658,539	-12	-3,27
660,681	-12	-3,3
662,835	-12,5	-3,356
664,989	-11,5	-3,266
667,131	-9	-2,941
669,278	-8,5	-2,83
671,421	-6,5	-2,53
673,562	-5,5	-2,336
675,71	-4,5	-2,15
677,864	-4,5	-2,101
680,006	-3,5	-1,844
682,154	-3	-1,722
684,296	-2	-1,475
686,443	-3	-1,64
688,591	-2	-1,46
690,733	-1,5	-1,261
692,881	-1,5	-1,017
695,029	-1	-0,992
697,183	-0,5	-0,858
699,331	-0,5	-0,885
701,473	0	-0,851
703,614	-0,5	-0,954
705,762	-1,5	-1,114
707,91	-1,5	-1,212
710,058	-2	-1,217
712,2	-1	-0,948
714,354	0	-0,771
716,496	-1	-0,955
718,644	-1	-1,024
720,791	-1,5	-1,19
722,945	-0,5	-0,886
725,099	-1,5	-1,071
727,241	-1,5	-1,09
729,389	-1,5	-1,256
731,538	-2	-1,41
733,679	-2	-1,339
735,827	-2	-1,43
737,969	-2	-1,474
740,116	-2,5	-1,551
742,258	-2	-1,436
744,4	-2,5	-1,55
746,548	-1,5	-1,291
748,696	-2	-1,408
750,838	-1,5	-1,176
752,986	-2	-1,368
755,133	-2,5	-1,476
757,275	-2,5	-1,511
759,429	-3	-1,653
761,577	-3	-1,76
763,725	-3	-1,841
765,867	-4	-1,971
768,015	-4	-2,003
770,163	-4,5	-2,17
772,311	-5	-2,296
774,452	-5,5	-2,443
776,6	-6	-2,534
778,748	-6	-2,541
780,896	-5,5	-2,446
783,038	-6	-2,565
785,18	-5	-2,302
787,334	-6	-2,472
789,482	-6	-2,616
791,623	-4,5	-2,411
793,771	-6	-2,481
795,919	-6,5	-2,646
798,067	-6,5	-2,678
800,209	-7	-2,649
802,357	-5,5	-2,506
804,499	-5,5	-2,546
806,641	-4,5	-2,266
808,788	-5	-2,3
810,936	-4	-2,099
813,084	-4,5	-2,248
815,226	-3,5	-2,076
817,374	-3,5	-1,965
819,522	-3,5	-2,066
821,67	-4,5	-2,196
823,812	-5	-2,383
825,959	-5,5	-2,49
828,107	-6	-2,582
830,249	-6	-2,595
832,397	-7	-2,766
834,551	-8,5	-2,946
836,699	-8,5	-3,004
838,841	-9	-3,072
840,989	-8	-2,866
843,137	-8,5	-2,966
845,279	-9	-3,076
847,426	-10,5	-3,198
849,574	-11	-3,3
851,722	-12	-3,376
853,858	-12,5	-3,389
856,012	-13,5	-3,43
858,16	-14	-3,454
860,302	-13,5	-3,449
862,449	-14	-3,461
864,591	-14,5	-3,471
866,739	-14,5	-3,477
868,887	-14	-3,456
871,029	-13	-3,409
873,171	-13,5	-3,443
875,325	-14	-3,454
877,473	-14	-3,465
879,621	-14,5	-3,476
881,768	-14,5	-3,484
883,914	-14,5	-3,488
886,058	-14,5	-3,491
888,206	-14,5	-3,495
890,354	-14,5	-3,496
892,496	-14,5	-3,497
894,644	-14,5	-3,498
896,785	-14,5	-3,498
898,927	-14,5	-3,498
901,075	-14,5	-3,499
903,229	-14,5	-3,5
905,371	-14,5	-3,496
907,525	-14,5	-3,343
909,661	-14,5	-3,195
911,803	-13,5	-3,074
913,944	-13	-3,029
916,092	-12	-2,916
918,234	-11	-2,801
920,382	-11	-2,838
922,53	-10,5	-2,752
924,666	-9,5	-2,684
926,808	-11	-2,82
928,95	-10,5	-2,737
931,091	-10	-2,696
933,245	-9	-2,581
935,387	-8,5	-2,525
937,541	-7,5	-2,393
939,689	-7	-2,324
941,831	-6,5	-2,268
943,973	-6,5	-2,228
946,127	-5	-2,027
948,268	-4,5	-1,895
950,41	-6	-2,192
952,558	-5	-2,005
954,7	-4,5	-1,939
956,842	-4	-1,839
958,99	-4	-1,796
961,132	-3,5	-1,71
963,286	-2,5	-1,514
965,427	-2	-1,404
967,581	-1,5	-1,304
969,729	-1	-1,139
971,871	-0,5	-1,008
974,019	0	-0,886
976,167	0	-0,79
978,309	0	-0,701
980,457	0	-0,589
982,605	0,5	-0,488
984,746	0,5	-0,405
986,894	0,5	-0,355
989,036	1	-0,281
991,178	1	-0,252
993,326	1,5	-0,168
995,462	1,5	-0,125
997,61	1,5	-0,091
999,752	2,5	-0,061
1001,899	3	-0,044
1004,047	3	-0,03
1006,183	3	-0,018
1008,331	3	-0,012
1010,479	3	-0,01
1012,627	3	-0,006
1014,775	3	-0,006
1016,917	3	-0,004
1019,07	3	-0,002
1021,212	3	-0,002
1023,366	3,5	-0,001
1025,514	3	-0,001
1027,656	3	-0,001
1029,804	3	0
1031,946	3	0
1034,094	3	-0,026
1036,235	3	-0,2
1038,377	3	-0,235
1040,525	2,5	-0,328
1042,667	2,5	-0,395
1044,815	2	-0,46
1046,963	1,5	-0,54
1049,105	0,5	-0,628
1051,253	0,5	-0,714
1053,4	0	-0,869
1055,543	-0,5	-0,925
1057,684	0	-0,757
1059,826	0	-0,776
1061,968	2,5	-0,47
1064,116	2,5	-0,348
1066,258	2,5	-0,307
1068,4	1,5	-0,508
1070,548	1	-0,605
1072,689	0,5	-0,713
1074,837	2,5	-0,357
1076,979	3	-0,224
1079,127	3	-0,274
1081,269	3	-0,212
1083,417	3	-0,185
1085,559	3	-0,232
1087,713	2,5	-0,285
1089,854	2	-0,39
1091,996	3	-0,015
1094,144	3	-0,176
1096,286	3	-0,256
1098,434	2	-0,354
1100,576	2	-0,405
1102,718	2	-0,423
1104,86	2	-0,378
1107,007	2,5	-0,369
1109,156	1,5	-0,476
1111,297	0,5	-0,655
1113,445	0	-0,841
1115,587	0	-0,886
1117,741	-0,5	-0,996
1119,883	-0,5	-1,026
1122,025	-1	-1,167
1124,166	-1	-1,185
1126,32	-1	-1,19
1128,462	-1,5	-1,325
1130,61	-1,5	-1,326
1132,758	-1,5	-1,396
1134,9	-1,5	-1,382
1137,048	-1,5	-1,33
1139,19	-1,5	-1,348
1141,337	-1	-1,158
1143,479	-0,5	-1,054
1145,627	-1	-1,071
1147,769	-1	-1,031
1149,917	-1	-1,096
1152,065	-0,5	-1,092
1154,207	-1	-1,093
1156,355	-1	-1,073
1158,491	-0,5	-1,036
1160,638	-1	-1,105
1162,786	-1,5	-1,191
1164,934	-1	-1,256
1167,076	-1	-1,301
1169,224	-1,5	-1,291
1171,36	-1	-1,147
1173,508	-1	-1,104
1175,65	-1	-1,049
1177,797	-0,5	-0,991
1179,939	-0,5	-1,004
1182,087	-1	-1,069
1184,229	-1	-1,098
1186,377	-1	-1,162
1188,513	-1	-1,162
1190,661	-1	-1,2
1192,803	-1	-1,171
1194,95	-1	-1,145
1197,092	-1	-1,158
1199,24	-1	-1,239
1201,388	-1	-1,218
1203,536	-1	-1,208
1205,678	-1	-1,259
1207,826	-1,5	-1,206
1209,968	-1,5	-1,379
1212,115	-2	-1,497
1214,257	-2	-1,504
1216,405	-2	-1,498
1218,547	-2	-1,556
1220,689	-2,5	-1,67
1222,843	-3	-1,818
1224,985	-3	-1,806
1227,133	-3	-1,881
1229,274	-3	-1,835
1231,428	-3	-1,872
1233,57	-3	-1,832
1235,718	-2,5	-1,847
1237,86	-2,5	-1,855
1240,008	-3	-1,916
1242,15	-3	-1,939
1244,298	-3,5	-2,046
1246,439	-3	-1,996
1248,587	-3,5	-2,071
1250,729	-3,5	-2,057
1252,877	-3,5	-2,07
1255,019	-3,5	-2,066
1257,167	-3,5	-2,04
1259,309	-3	-1,98
1261,451	-3	-1,965
1263,592	-3	-1,916
1265,74	-3	-1,906
1267,882	-3	-1,935
1270,03	-3	-1,898
1272,172	-3	-1,87
1274,314	-3	-1,872
1276,456	-2,5	-1,822
1278,598	-2,5	-1,797
1280,745	-2,5	-1,808
1282,887	-2,5	-1,832
1285,035	-2,5	-1,844
1287,177	-2,5	-1,824
1289,325	-2,5	-1,826
1291,467	-2,5	-1,792
1293,615	-2	-1,76
1295,763	-2,5	-1,852
1297,911	-3	-1,98
1300,052	-3	-2,104
1302,2	-4	-2,186
1304,342	-4	-2,198
1306,49	-4,5	-2,38
1308,644	-4,5	-2,373
1310,792	-5	-2,454
1312,934	-5	-2,52
1315,082	-5,5	-2,542
1317,223	-5,5	-2,546
1319,371	-5	-2,519
1321,513	-5,5	-2,576
1323,661	-5,5	-2,544
1325,803	-5	-2,493
1327,951	-5,5	-2,558
1330,093	-5,5	-2,598
1332,241	-5,5	-2,593
1334,382	-6	-2,638
1336,524	-6	-2,694
1338,672	-6	-2,871
1340,808	-7	-2,896
1342,956	-8	-3,004
1345,092	-7,5	-2,965
1347,24	-8	-2,997
1349,382	-8	-3,022
1351,529	-7,5	-3,054
1353,671	-8	-3,089
1355,813	-8	-3,076
1357,962	-8	-3,061
1360,103	-9	-3,143
1362,251	-9	-3,24
1364,393	-10	-3,331
1366,541	-11	-3,368
1368,682	-12	-3,426
1370,818	-12,5	-3,428
1372,966	-12,5	-3,442
1375,108	-13	-3,454
1377,262	-13	-3,454
1379,41	-13,5	-3,472
1381,552	-13,5	-3,473
1383,688	-13	-3,476
1385,835	-13,5	-3,481
1387,977	-13,5	-3,482
1390,125	-13,5	-3,486
1392,267	-13,5	-3,488
1394,409	-14	-3,49
1396,557	-14	-3,492
1398,699	-13,5	-3,492
1400,841	-14	-3,495
1402,983	-14	-3,495
1405,13	-14	-3,496
1407,266	-13,5	-3,496
1409,414	-14	-3,498
1411,556	-14	-3,498
1413,704	-13,5	-3,498
1415,84	-13,5	-3,498
1417,988	-13,5	-3,499
1420,124	-13,5	-3,499
1422,265	-14	-3,499
1424,413	-14	-3,499
1426,555	-14	-3,499
1428,703	-13,5	-3,5
1430,845	-13,5	-3,5
1432,987	-13,5	-3,427
1435,129	-13,5	-3,338
1437,265	-13,5	-3,361
1439,412	-13	-3,156
1441,554	-13	-3,148
1443,696	-12,5	-3,102
1445,838	-13	-3,1
1447,986	-13	-3,071
1450,128	-12	-3,032
1452,27	-12	-3,039
1454,418	-11	-2,933
1456,559	-11	-2,915
1458,707	-10	-2,854
1460,849	-10	-2,815
1462,991	-10	-2,796
1465,139	-9,5	-2,704
1467,281	-9	-2,622
1469,429	-7,5	-2,547
1471,571	-8	-2,555
1473,712	-7,5	-2,531
1475,854	-7	-2,412
1477,996	-6	-2,304
1480,144	-6	-2,138
1482,286	-4,5	-2,075
1484,434	-4,5	-1,979
1486,576	-4	-1,929
1488,724	-3,5	-1,827
1490,859	-3,5	-1,886
1493,001	-3,5	-1,825
1495,143	-3	-1,764
1497,285	-2,5	-1,714
1499,427	-2	-1,605
1501,575	-2	-1,579
1503,717	-1,5	-1,484
1505,865	-1	-1,328
1508,007	-0,5	-1,22
1510,142	-0,5	-1,141
1512,29	-0,5	-1,13
1514,432	0	-1,01
1516,568	-0,5	-1,064
1518,71	0	-1,014
1520,852	0	-0,942
1522,994	0	-0,886
1525,136	0	-0,777
1527,277	0	-0,647
1529,419	0	-0,628
1531,561	0	-0,61
1533,709	0	-0,584
1535,851	0,5	-0,537
1537,987	1	-0,415
1540,135	1	-0,368
1542,277	1	-0,344
1544,418	1	-0,278
1546,554	0,5	-0,309
1548,696	1	-0,339
1550,844	1	-0,36
1552,986	1	-0,368
1555,122	1	-0,405
1557,27	1	-0,351
1559,406	1	-0,351
1561,553	0,5	-0,356
1563,695	1	-0,39
1565,843	1,5	-0,316
1567,985	1,5	-0,268
1570,127	1	-0,255
1572,275	1,5	-0,203
1574,417	1,5	-0,192
1576,559	1,5	-0,184
1578,7	1,5	-0,159
1580,836	1,5	-0,141
1582,984	1,5	-0,14
1585,126	1,5	-0,164
1587,274	1,5	-0,132
1589,416	1,5	-0,117
1591,558	2	-0,086
1593,706	2	-0,078
1595,847	2	-0,08
1597,989	2,5	-0,07
1600,131	2,5	-0,066
1602,273	2,5	-0,055
1604,421	3	-0,042
1606,563	3	-0,036
1608,705	3	-0,03
1610,853	3	-0,026
1612,995	3	-0,021
1615,142	3	-0,017
1617,284	3	-0,014
1619,426	3	-0,013
1621,574	3	-0,013
1623,716	3	-0,016
1625,858	3	-0,017
1628,006	3	-0,014
1630,148	3	-0,014
1632,295	3	-0,014
1634,437	3	-0,015
1636,579	3	-0,013
1638,721	3	-0,011
1640,863	3	-0,012
1643,011	3	-0,01
1645,147	3	-0,008
1647,289	3	-0,007
1649,436	3	-0,004
1651,578	3,5	-0,005
1653,72	3	-0,006
1655,868	3	-0,006
1658,01	3	-0,006
1660,152	3	-0,007
1662,3	3	-0,006
1664,442	3	-0,006
1666,589	3	-0,007
1668,731	3	-0,006
1670,879	3	-0,005
1673,021	3	-0,005
1675,163	3,5	-0,005
1677,311	3	-0,005
1679,453	3	-0,005
1681,595	3	-0,004
1683,743	3	-0,005
1685,884	3	-0,007
1688,026	3	-0,008
1690,174	3	-0,005
1692,316	3	-0,006
1694,452	3	-0,006
1696,6	3	-0,006
1698,742	3,5	-0,006
1700,883	3,5	-0,007
1703,025	3	-0,007
1705,173	3,5	-0,005
1707,315	3,5	-0,004
1709,457	3	-0,004
1711,605	3	-0,002
1713,747	3	-0,002
1715,889	3	-0,003
1718,036	3	-0,002
1720,178	3	-0,002
1722,32	3	-0,002
1724,462	3	-0,002
1726,604	3	-0,002
1728,746	3	-0,001
1730,894	3	-0,001
1733,036	3	-0,001
1735,178	3	-0,001
1737,325	3	-0,001
1739,467	3	-0,001
1741,615	3	0
1743,757	3	-0,001
1745,899	3	-0,001
1748,053	3	-0,001
1750,189	3	-0,001
1752,337	3	0
1754,478	3	-0,001
1756,62	3	0
1758,768	3	-0,003
1760,91	3	-0,018
1763,052	3	0
1765,2	3	-0,003
1767,336	3	0
1769,478	3	-0,004
1771,625	3	-0,002
1773,767	3	0
1775,915	3	-0,001
1778,057	3	0
1780,205	3	0
1782,347	3	-0,001
1784,489	3	0
1786,631	3	-0,001
1788,772	3	0
1790,914	3	0
1793,062	3	-0,001
1795,204	3	0
1797,346	3	0
1799,488	3	-0,018
1801,636	3	-0,07
1803,778	3	-0,125
1805,919	3	-0,207
1808,067	3	-0,219
1810,209	3	-0,171
1812,351	3	-0,279
1814,499	3	-0,264
1816,641	3	-0,272
1818,789	2,5	-0,37
1820,931	3	-0,325
1823,072	3	-0,284
1825,22	3	-0,328
1827,362	3	-0,282
1829,504	3	-0,279
1831,652	3	-0,334
1833,794	2,5	-0,369
1835,936	3	-0,312
1838,078	3	-0,31
1840,226	2,5	-0,316
1842,367	3	-0,303
1844,509	3	-0,273
1846,657	3	-0,278
1848,793	3	-0,19
1850,935	3	-0,275
1853,077	3,5	-0,278
1855,219	3	-0,248
1857,367	3	-0,233
1859,502	3,5	-0,164
1861,644	3	-0,108
1863,786	3	-0,164
1865,934	3	-0,216
1868,076	3	-0,174
1870,218	3	-0,14
1872,366	3	-0,212
1874,508	3	-0,231
1876,649	3	-0,189
1878,797	3	-0,179
1880,939	3	-0,243
1883,081	2,5	-0,31
1885,229	3	-0,333
1887,371	3	-0,314
1889,513	2,5	-0,36
1891,661	2,5	-0,43
1893,802	2	-0,47
1895,944	2	-0,435
1898,086	3	-0,298
1900,228	3	-0,258
1902,37	3,5	-0,154
1904,512	3	-0,263
1906,654	3	-0,277
1908,796	3	-0,355
1910,937	3	-0,384
1913,085	1,5	-0,572
1915,227	1	-0,666
1917,369	1	-0,672
1919,511	2	-0,477
1921,653	2,5	-0,396
1923,801	3	-0,244
1925,937	3	-0,201
1928,079	3	-0,065
1930,22	3	-0,031
1932,362	3	-0,083
1934,504	3	-0,184
1936,646	3	-0,004
1938,8	3	-0,004
1940,942	3	0
1943,084	3	-0,001
1945,226	3	-0,001
1947,373	3	-0,001
1949,515	3	-0,001
1951,657	3	0
1953,799	3	-0,001
1955,941	3	-0,001
1958,083	3	-0,001
1960,231	3	-0,001
1962,373	3	-0,001
1964,514	3,5	-0,001
1966,662	3	-0,001
1968,798	3	-0,001
1970,94	3	-0,001
1973,082	3,5	-0,001
1975,218	3	-0,002
1977,36	3	-0,002
1979,502	3	-0,002
1981,643	3,5	-0,002
1983,785	3	-0,002
1985,927	3	-0,002
1988,075	3	-0,001
1990,217	3	-0,002
1992,359	3,5	-0,001
1994,507	3	-0,001
1996,649	3	-0,002
1998,79	3	-0,002
2000,938	3	-0,003
2003,074	3,5	-0,004
2005,216	3	-0,004
2007,358	3	-0,004
2009,5	3	-0,004
2011,636	3	-0,005
2013,784	3	-0,005
2015,925	3	-0,008
2018,061	3	-0,009
2020,203	3	-0,014
2022,351	3	-0,018
2024,493	3	-0,016
2026,635	3	-0,02
2028,783	3	-0,017
2030,925	3	-0,019
2033,073	3	-0,015
2035,214	3	-0,017
2037,356	3	-0,015
2039,498	3	-0,014
2041,64	3	-0,012
2043,788	3	-0,01
2045,936	3	-0,01
2048,072	3	-0,01
2050,22	3	-0,008
2052,361	3	-0,008
2054,497	3	-0,008
2056,639	3	-0,007
2058,787	3	-0,005
2060,929	3	-0,004
2063,071	3	-0,004
2065,219	3	-0,003
2067,361	3	-0,004
2069,502	3	-0,006
2071,65	3	-0,006
2073,792	3	-0,005
2075,934	3	-0,008
2078,076	3	-0,016
2080,218	3	-0,018
2082,36	3	-0,02
2084,508	3	-0,021
2086,649	3	-0,026
2088,791	3	-0,023
2090,933	3	-0,017
2093,075	3	-0,012
2095,217	3	-0,013
2097,359	3	-0,014
2099,507	3	-0,018
2101,649	3	-0,023
2103,784	3	-0,025
2105,932	3	-0,029
2108,074	3	-0,034
2110,216	3	-0,032
2112,364	3	-0,026
2114,506	3	-0,04
2116,648	3	-0,032
2118,79	3	-0,026
2120,931	3	-0,024
2123,073	3	-0,031
2125,215	3	-0,029
2127,363	3	-0,026
2129,505	3	-0,03
2131,647	3	-0,026
2133,789	3	-0,038
2135,931	3	-0,038
2138,067	3	-0,053
2140,208	3	-0,042
2142,356	3	-0,043
2144,492	2,5	-0,056
2146,628	3	-0,057
2148,77	2,5	-0,088
2150,912	2	-0,105
2153,054	2	-0,114
2155,196	2	-0,097
2157,343	2	-0,094
2159,479	2	-0,096
2161,621	2	-0,104
2163,769	2	-0,097
2165,911	2	-0,087
2168,047	2	-0,103
2170,189	1,5	-0,212
2172,337	1	-0,222
2174,478	1,5	-0,224
2176,626	1,5	-0,195
2178,774	1,5	-0,182
2180,916	1,5	-0,159
2183,058	2	-0,119
2185,194	1,5	-0,143
2187,336	1,5	-0,124
2189,478	1,5	-0,117
2191,619	2	-0,124
2193,761	2,5	-0,091
2195,903	2,5	-0,096
2198,045	2	-0,118
2200,187	2	-0,103
2202,335	2,5	-0,077
2204,477	2,5	-0,077
2206,619	1,5	-0,135
2208,76	1,5	-0,214
2210,902	1,5	-0,202
2213,044	1,5	-0,183
2215,186	1,5	-0,175
2217,328	1,5	-0,188
2219,47	1,5	-0,159
2221,612	1,5	-0,202
2223,754	1,5	-0,207
2225,907	1,5	-0,204
2228,049	1	-0,293
2230,191	1,5	-0,191
2232,339	2	-0,164
2234,475	1,5	-0,249
2236,617	1	-0,341
2238,765	0,5	-0,425
2240,907	0,5	-0,523
2243,043	0	-0,646
2245,184	0	-0,878
2247,332	0	-0,936
2249,474	-0,5	-1,109
2251,616	-0,5	-1,19
2253,758	-0,5	-1,283
2255,906	-0,5	-1,26
2258,048	-1	-1,354
2260,19	-0,5	-1,325
2262,331	-1,5	-1,477
2264,479	-1,5	-1,598
2266,621	-2	-1,75
2268,763	-2,5	-1,86
2270,905	-3,5	-2,015
2273,047	-3,5	-2,045
2275,189	-4	-2,122
2277,331	-4,5	-2,23
2279,478	-4	-2,183
2281,62	-5	-2,285
2283,762	-6	-2,465
2285,904	-7	-2,564
2288,051	-8	-2,621
2290,194	-9	-2,703
2292,336	-10	-2,876
2294,472	-11	-2,956
2296,619	-12	-3,095
2298,761	-12,5	-3,166
2300,903	-12,5	-3,36
2303,045	-12,5	-3,31
2305,193	-12,5	-3,27
2307,335	-12,5	-3,339
2309,477	-12,5	-3,423
2311,613	-12,5	-3,494
2313,76	-12,5	-3,471
2315,902	-12,5	-3,492
2318,038	-12,5	-3,494
2320,18	-12,5	-3,5
2322,322	-12,5	-3,5
2324,464	-12,5	-3,5
2326,606	-12,5	-3,5
2328,754	-12,5	-3,5
2330,895	-12,5	-3,488
2333,037	-12,5	-3,486
2335,179	-12,5	-3,5
2337,327	-13	-3,5
2339,469	-12,5	-3,5
2341,611	-12,5	-3,5
2343,753	-12,5	-3,5
2345,901	-12,5	-3,5
2348,043	-12,5	-3,499
2350,178	-12,5	-3,499
2352,326	-12	-3,499
2354,468	-12,5	-3,499
2356,61	-12	-3,498
2358,752	-12,5	-3,496
2360,894	-12,5	-3,493
2363,042	-12	-3,489
2365,184	-11,5	-3,469
2367,325	-11,5	-3,461
2369,473	-11,5	-3,447
2371,615	-10,5	-3,431
2373,757	-9	-3,356
2375,899	-7	-3,127
2378,041	-6	-2,945
2380,183	-5,5	-2,899
2382,325	-5	-2,854
2384,46	-5,5	-2,806
2386,608	-6	-2,86
2388,75	-5,5	-2,819
2390,892	-5,5	-2,78
2393,034	-5,5	-2,808
2395,182	-5,5	-2,895
2397,324	-5,5	-2,854
2399,466	-5	-2,788
2401,607	-6	-2,881
2403,755	-6	-2,898
2405,897	-6	-2,863
2408,039	-5,5	-2,818
2410,187	-6	-2,841
2412,329	-6	-2,858
2414,471	-5,5	-2,733
2416,613	-5,5	-2,832
2418,76	-5,5	-2,86
2420,902	-5,5	-2,878
2423,05	-6	-2,868
2425,192	-6	-2,908
2427,34	-6	-2,993
2429,482	-6	-2,954
2431,624	-5,5	-2,914
2433,766	-6	-2,943
2435,908	-7	-3,068
2438,049	-7,5	-3,209
2440,191	-8	-3,24
2442,333	-9	-3,327
2444,475	-9	-3,348
2446,617	-9,5	-3,372
2448,753	-9,5	-3,369
2450,895	-9,5	-3,376
2453,043	-10	-3,407
2455,184	-11	-3,435
2457,326	-11	-3,43
2459,48	-11	-3,451
2461,622	-11	-3,454
2463,764	-11	-3,456
2465,906	-11,5	-3,459
2468,048	-11,5	-3,464
2470,19	-11,5	-3,464
2472,325	-11,5	-3,457
2474,467	-11,5	-3,452
2476,615	-10,5	-3,438
2478,757	-11	-3,452
2480,899	-11,5	-3,461
2483,041	-11,5	-3,454
2485,189	-11,5	-3,461
2487,331	-11,5	-3,462
2489,466	-11	-3,46
2491,608	-11,5	-3,468
2493,756	-11	-3,472
2495,898	-11,5	-3,478
2498,034	-12	-3,475
2500,176	-12	-3,474
2502,324	-11,5	-3,47
2504,472	-11,5	-3,472
2506,613	-11,5	-3,463
2508,755	-11	-3,463
2510,897	-11	-3,458
2513,039	-11	-3,452
2515,181	-11	-3,448
2517,317	-11	-3,448
2519,459	-10,5	-3,438
2521,601	-11,5	-3,453
2523,748	-11	-3,457
2525,89	-10,5	-3,425
2528,038	-9,5	-3,4
2530,18	-8	-3,227
2532,322	-7,5	-3,195
2534,464	-7	-3,096
2536,612	-7,5	-3,198
2538,754	-7	-3,174
2540,895	-5,5	-2,969
2543,037	-5,5	-2,902
2545,185	-6	-2,929
2547,327	-5,5	-2,885
2549,469	-5,5	-2,824
2551,611	-5	-2,809
2553,759	-5,5	-2,842
2555,895	-5	-2,816
2558,036	-4,5	-2,738
2560,178	-5	-2,662
2562,32	-4,5	-2,653
2564,462	-4,5	-2,602
2566,604	-4	-2,5
2568,752	-3,5	-2,463
2570,894	-3,5	-2,456
2573,036	-3,5	-2,505
2575,178	-4	-2,461
2577,319	-4	-2,489
2579,467	-4	-2,479
2581,609	-3	-2,344
2583,751	-3	-2,288
2585,893	-3	-2,338
2588,035	-3	-2,31
2590,177	-3,5	-2,354
2592,319	-3,5	-2,331
2594,46	-4	-2,445
2596,608	-3,5	-2,419
2598,75	-4,5	-2,619
2600,892	-4	-2,622
2603,034	-4,5	-2,602
2605,17	-4,5	-2,714
2607,312	-5	-2,78
2609,454	-5,5	-2,895
2611,595	-6,5	-3,041
2613,743	-6,5	-3,106
2615,885	-7	-3,166
2618,027	-8	-3,29
2620,169	-8	-3,292
2622,311	-9	-3,362
2624,459	-9	-3,339
2626,595	-8,5	-3,272
2628,736	-9	-3,343
2630,878	-9,5	-3,362
2633,026	-9	-3,35
2635,168	-9,5	-3,374
2637,31	-8,5	-3,317
2639,452	-7,5	-3,267
2641,6	-8	-3,271
2643,742	-7	-3,149
2645,883	-8	-3,26
2648,025	-8,5	-3,302
2650,173	-8,5	-3,302
2652,315	-9	-3,334
2654,457	-9	-3,353
2656,599	-8,5	-3,317
2658,747	-8	-3,304
2660,883	-8	-3,304
2663,024	-9	-3,367
2665,172	-9,5	-3,382
2667,314	-9	-3,352
2669,456	-9	-3,333
2671,598	-9	-3,362
2673,74	-9,5	-3,384
2675,882	-9	-3,376
2678,024	-9,5	-3,396
2680,166	-9	-3,366
2682,307	-9	-3,372
2684,461	-9,5	-3,381
2686,603	-9,5	-3,39
2688,745	-9	-3,371
2690,887	-8	-3,322
2693,029	-7,5	-3,288
2695,177	-8	-3,27
2697,313	-7,5	-3,182
2699,454	-8	-3,26
2701,596	-7	-3,159
2703,738	-6	-3,061
2705,88	-5,5	-2,958
2708,028	-5,5	-2,868
2710,17	-5	-2,758
2712,312	-5	-2,725
2714,46	-4,5	-2,656
2716,601	-3,5	-2,483
2718,743	-4	-2,544
2720,885	-3	-2,409
2723,027	-3,5	-2,364
2725,169	-3	-2,329
2727,311	-3	-2,273
2729,453	-3	-2,191
2731,595	-2,5	-2,114
2733,737	-2,5	-2,09
2735,878	-2,5	-2,046
2738,02	-2	-2,015
2740,162	-2	-2,028
2742,304	-2	-2,005
2744,452	-2,5	-2,171
2746,594	-3	-2,21
2748,736	-2,5	-2,138
2750,877	-3	-2,258
2753,019	-1,5	-1,904
2755,161	-1,5	-1,837
2757,303	-1	-1,633
2759,445	-1	-1,556
2761,593	-1	-1,674
2763,735	-1,5	-1,73
2765,871	-1	-1,591
2768,013	-1,5	-1,695
2770,154	-1,5	-1,797
2772,302	-1,5	-1,868
2774,444	-1,5	-1,668
2776,586	-1	-1,528
2778,728	-0,5	-1,243
2780,876	-0,5	-1,068
2783,018	-0,5	-1,172
2785,16	-0,5	-1,159
2787,302	-0,5	-1,215
2789,449	0	-1,19
2791,591	0	-0,978
2793,733	0	-1,024
2795,875	0	-0,819
2798,017	1	-0,725
2800,165	0,5	-0,684
2802,307	1,5	-0,544
2804,449	2	-0,45
2806,584	1,5	-0,519
2808,732	1	-0,621
2810,874	1,5	-0,612
2813,022	0,5	-0,688
2815,164	0	-0,818
2817,306	0	-0,874
2819,454	0	-1,035
2821,595	-0,5	-1,218
2823,743	-0,5	-1,416
2825,885	-0,5	-1,413
2828,033	-0,5	-1,238
2830,175	0	-1,146
2832,317	0	-1,079
2834,459	0	-1,055
2836,597	0	-0,906
2838,736	0	-0,892
2840,878	0	-0,873
2843,02	0	-0,79
2845,162	0,5	-0,703
2847,31	1	-0,656
2849,452	2	-0,52
2851,588	2	-0,515
2853,73	2,5	-0,458
2855,877	2,5	-0,501
2858,013	2,5	-0,394
2860,149	2,5	-0,42
2862,291	3	-0,289
2864,433	3	-0,242
2866,581	3	-0,21
2868,723	3	-0,168
2870,865	3	-0,095
2873,007	3	-0,052
2875,148	3	0
2877,296	3	0
2879,438	3,5	-0,001
2881,58	3	-0,001
2883,722	3	-0,001
2885,864	3	-0,002
2888,006	3	-0,002
2890,148	3	-0,002
2892,289	3,5	-0,002
2894,431	3	-0,002
2896,579	3,5	-0,002
2898,721	3	-0,001
2900,863	3,5	-0,001
2903,005	3,5	-0,001
2905,153	3	-0,001
2907,295	3,5	-0,001
2909,436	3	-0,001
2911,578	3,5	-0,001
2913,738	3,5	-0,001
2915,886	3,5	-0,001
2918,028	3	-0,001
2920,17	3,5	-0,001
2922,312	3	-0,001
2924,454	3	-0,001
2926,601	3	0
2928,743	3	-0,002
2930,891	3	-0,121
2933,027	3,5	-0,18
2935,175	3	-0,258
2937,317	2,5	-0,278
2939,459	3	-0,296
2941,613	3	-0,381
2943,76	2	-0,446
2945,908	2	-0,531
2948,044	2	-0,53
2950,186	1,5	-0,587
2952,328	1	-0,716
2954,47	1	-0,736
2956,618	0	-0,853
2958,76	0	-0,99
2960,901	0	-1,13
2963,043	-0,5	-1,287
2965,191	-0,5	-1,405
2967,333	-0,5	-1,497
2969,475	-0,5	-1,505
2971,617	-0,5	-1,582
2973,759	-1	-1,724
2975,907	-1	-1,883
2978,049	-1,5	-1,902
2980,19	-1,5	-1,984
2982,332	-2	-2,019
2984,468	-2	-2,12
2986,616	-2,5	-2,216
2988,758	-2,5	-2,309
2990,9	-3	-2,445
2993,042	-3	-2,548
2995,19	-3,5	-2,618
2997,325	-3	-2,58
2999,473	-3,5	-2,64
3001,615	-3,5	-2,652
3003,757	-3,5	-2,744
3005,905	-4	-2,8
3008,047	-4	-2,851
3010,189	-4,5	-2,885
3012,331	-4,5	-2,925
3014,472	-5	-3,06
3016,614	-5	-3,121
3018,756	-5	-3,14
3020,898	-5,5	-3,169
3023,04	-5,5	-3,209
3025,188	-6	-3,258
3027,324	-5,5	-3,286
3029,466	-6	-3,32
3031,607	-6,5	-3,327
3033,743	-6	-3,32
3035,891	-7,5	-3,376
3038,033	-7,5	-3,415
3040,175	-8	-3,428
3042,317	-8	-3,438
3044,459	-8,5	-3,458
3046,601	-8,5	-3,457
3048,742	-8	-3,455
3050,884	-8	-3,451
3053,02	-8,5	-3,451
3055,162	-8,5	-3,456
3057,304	-8,5	-3,461
3059,446	-9	-3,466
3061,588	-9	-3,469
3063,73	-9	-3,475
3065,871	-9	-3,476
3068,013	-9	-3,477
3070,155	-9	-3,478
3072,297	-9	-3,48
3074,439	-9	-3,478
3076,587	-9	-3,477
3078,729	-9	-3,48
3080,865	-9	-3,482
3083,001	-9	-3,487
3085,142	-8,5	-3,488
3087,29	-9	-3,491
3089,432	-9	-3,494
3091,574	-9	-3,494
3093,716	-9	-3,495
3095,858	-9	-3,496
3098,006	-8,5	-3,497
3100,148	-9	-3,498
3102,289	-9	-3,498
3104,431	-9	-3,499
3106,579	-9	-3,5
3108,727	-8,5	-3,372
3110,869	-8,5	-3,214
3113,011	-7,5	-3,066
3115,153	-6	-2,92
3117,301	-5,5	-2,76
3119,442	-4	-2,635
3121,584	-3,5	-2,541
3123,726	-3	-2,427
3125,868	-3	-2,382
3128,016	-2,5	-2,249
3130,164	-1,5	-2,14
3132,306	-1,5	-2,058
3134,448	-1	-1,901
3136,589	-1	-1,941
3138,731	-1	-1,822
3140,879	-0,5	-1,667
3143,021	0	-1,569
3145,163	0	-1,486
3147,305	0	-1,398
3149,447	0	-1,347
3151,589	0	-1,254
3153,73	0	-1,199
3155,878	0	-1,124
3158,014	0	-1,114
3160,156	0	-1,037
3162,298	0	-0,912
3164,434	0,5	-0,795
3166,576	0,5	-0,719
3168,718	1	-0,653
3170,865	1	-0,572
3173,007	1	-0,548
3175,149	1	-0,518
3177,291	1	-0,409
3179,433	1	-0,328
3181,581	1,5	-0,212
3183,723	1,5	-0,154
3185,865	2	-0,083
3188,007	2,5	-0,061
3190,142	2,5	-0,05
3192,29	3	-0,032
3194,432	3	-0,02
3196,574	3	-0,014
3198,716	3	-0,012
3200,858	3,5	-0,009
3203,006	3,5	-0,006
3205,148	3	-0,003
3207,289	3	-0,003
3209,431	3	-0,003
3211,573	3	-0,003
3211,669	3,5	-0,001