File: Cycling_tests/_40perc/_1gap/entrada/_5.txt
Time (s)	Load (N)	Displacement (mm)
36,19	-1,5	-0,553
38,115	-9,5	-1,748
40,042	-17,5	-2,734
41,961	-22,5	-3,499
43,887	-22	-3,46
45,819	-15	-2,915
47,745	-7,5	-1,801
49,665	-1	-0,677
51,585	1,5	-0,001
53,505	1,5	-0,062
55,437	-3	-0,834
57,362	-9,5	-1,852
59,288	-20	-2,904
61,214	-22	-3,498
63,146	-21	-3,444
65,078	-12,5	-2,662
67,01	-5,5	-1,557
68,93	1	-0,374
70,868	2	-0,003
72,8	1	-0,091
74,727	-3,5	-1,04
76,657	-10,5	-2,094
78,583	-21,5	-3,211
80,515	-21,5	-3,496
82,453	-19,5	-3,398
84,379	-10	-2,487
86,317	-4,5	-1,422
88,249	1,5	-0,347
90,168	2	-0,004
92,088	0,5	-0,134
94,016	-3,5	-1,09
95,946	-11,5	-2,143
97,872	-21	-3,305
99,81	-21	-3,496
101,737	-17,5	-3,321
103,668	-8,5	-2,306
105,588	-3,5	-1,252
107,52	2	-0,157
109,439	2	-0,007
111,365	0	-0,208
113,298	-4,5	-1,286
115,229	-13,5	-2,407
117,167	-21	-3,482
119,093	-20,5	-3,491
121,013	-15	-3,226
122,939	-8	-2,172
124,865	-3	-1,126
126,784	2	-0,059
128,716	2	-0,008
130,654	0	-0,224
132,574	-4,5	-1,278
134,494	-12	-2,292
136,42	-20,5	-3,5
138,353	-20,5	-3,49
140,284	-15	-3,234
142,204	-6,5	-2,018
144,141	-2,5	-1,034
218,537	-1	-0,694
220,475	-6	-1,718
222,407	-16,5	-2,855
224,339	-19,5	-3,499
226,259	-19	-3,467
228,185	-11	-2,816
230,117	-5	-1,721
232,054	0,5	-0,601
233,986	2	-0,001
235,918	1,5	-0,045
237,856	-1,5	-0,812
239,778	-7,5	-1,882
241,702	-18	-3,034
243,634	-19,5	-3,497
245,566	-17,5	-3,436
247,492	-10	-2,644
249,417	-4	-1,535
251,355	0,5	-0,554
253,287	2,5	-0,002
255,225	1,5	-0,06
257,169	-1,5	-0,842
259,101	-7,5	-1,91
261,033	-16,5	-2,932
262,965	-19,5	-3,498
264,891	-18,5	-3,457
266,822	-10,5	-2,772
268,748	-5	-1,775
270,686	0	-0,694
272,624	2,5	-0,001
274,562	2	-0,035
276,488	-1	-0,762
278,414	-6,5	-1,802
280,352	-14,5	-2,76
282,284	-19	-3,499
284,209	-19	-3,479
286,142	-11	-2,986
288,079	-5,5	-1,984
289,999	-0,5	-0,834
291,937	2,5	-0,001
293,881	2	-0,019
295,819	0	-0,384
297,751	-4,5	-1,462
299,683	-13,5	-2,568
301,621	-19	-3,5
303,558	-19	-3,491
305,49	-13,5	-3,156
307,436	-6	-2,106
309,366	-2	-0,974
311,286	2,5	-0,001
313,224	2,5	-0,015
315,15	0	-0,478
317,087	-4,5	-1,564
319,025	-12	-2,554
320,958	-19	-3,499
322,883	-18,5	-3,471
324,815	-10,5	-2,788
399,235	0	-0,443
401,167	-5	-1,628
403,105	-13	-2,704
405,036	-18	-3,499
406,968	-18	-3,484
408,9	-13	-3,12
410,838	-5,5	-2,032
412,77	-1	-0,928
414,703	2,5	-0,001
416,634	2,5	-0,023
418,572	-0,5	-0,688
420,51	-6	-1,843
422,436	-15	-2,963
424,367	-18,5	-3,498
426,305	-17,5	-3,446
428,231	-8,5	-2,596
430,169	-3,5	-1,53
432,101	1,5	-0,461
434,039	2,5	-0,002
435,971	1,5	-0,086
437,909	-1,5	-0,949
439,841	-7,5	-2,107
441,772	-18	-3,286
443,704	-18,5	-3,494
445,63	-14	-3,289
447,562	-6	-2,182
449,488	-2	-0,972
451,426	2,5	-0,009
453,358	2,5	-0,011
455,284	0	-0,37
457,222	-3	-1,383
459,153	-11	-2,546
461,085	-18	-3,5
463,017	-18	-3,477
464,955	-10,5	-2,861
466,893	-4,5	-1,817
468,831	0	-0,672
470,763	2,5	-0,001
472,695	2,5	-0,036
474,627	-0,5	-0,702
476,558	-5	-1,707
478,49	-14,5	-2,808
480,422	-18	-3,499
482,36	-17	-3,457
484,292	-10,5	-2,787
486,236	-4,5	-1,757
488,174	-0,5	-0,696
490,112	2,5	-0,001
492,042	2,5	-0,037
493,975	-0,5	-0,728
495,907	-5,5	-1,829
497,833	-15	-2,959
499,771	-18	-3,498
501,697	-15	-3,451
503,629	-9	-2,69
505,561	-3,5	-1,573
507,487	1,5	-0,448
509,419	3	-0,002
511,35	2	-0,062
513,288	-1	-0,838
515,214	-6	-1,925
517,152	-14,5	-2,927
519,084	-18	-3,498
521,016	-17	-3,458
522,954	-10	-2,773
524,886	-4	-1,726
526,818	0	-0,684
528,755	3	-0,001
530,687	2,5	-0,035
532,625	-0,5	-0,657
534,557	-5	-1,774
536,489	-14	-2,869
538,427	-18	-3,499
540,359	-17	-3,464
542,285	-10	-2,854
652,876	-5,5	-1,868
654,814	-14,5	-2,894
656,746	-17,5	-3,498
658,678	-16,5	-3,467
660,61	-9,5	-2,866
662,53	-4	-1,776
664,468	0	-0,722
666,4	2,5	-0,001
668,331	2,5	-0,026
670,263	0	-0,524
672,189	-4	-1,592
674,115	-12,5	-2,675
676,041	-17	-3,499
677,967	-16,5	-3,476
679,899	-10	-2,93
681,837	-4,5	-1,934
683,769	-1	-0,934
685,706	2,5	0
687,644	2,5	-0,009
689,582	1	-0,208
691,508	-2,5	-1,257
693,44	-8,5	-2,283
695,372	-17	-3,355
697,298	-17	-3,494
699,224	-13,5	-3,324
701,15	-6	-2,318
703,081	-2,5	-1,223
705,007	2,5	-0,176
706,939	3	-0,006
708,871	1	-0,16
710,803	-2	-1,206
712,741	-8	-2,268
714,679	-17	-3,263
716,605	-17	-3,494
718,537	-14	-3,339
720,474	-5,5	-2,299
722,401	-2,5	-1,222
724,332	2,5	-0,144
726,276	2,5	-0,005
728,202	1	-0,205
730,128	-3	-1,326
732,06	-9,5	-2,432
733,992	-17	-3,5
735,924	-17	-3,491
737,849	-12,5	-3,266
739,781	-6	-2,299
741,713	-2	-1,182
743,645	2,5	-0,085
745,577	2,5	-0,008
747,515	1	-0,232
749,435	-3	-1,488
751,367	-10,5	-2,535
753,299	-17	-3,499
755,23	-16,5	-3,482
757,162	-10	-2,965
759,088	-4	-1,866
761,02	0	-0,687
762,952	2,5	-0,001
764,878	2	-0,037
766,81	-0,5	-0,793
768,742	-5,5	-1,935
770,686	-15	-2,998
772,612	-16,5	-3,498
774,543	-15	-3,428
776,481	-7	-2,556
778,413	-2,5	-1,413
780,345	2,5	-0,234
782,277	3	-0,004
784,209	1,5	-0,14
786,141	-1,5	-1,136
788,073	-7,5	-2,226
790,005	-16,5	-3,223
791,936	-16,5	-3,497
793,862	-14,5	-3,402
795,794	-7	-2,457
797,72	-2,5	-1,348
799,664	2	-0,349
801,596	3	-0,003
803,516	1,5	-0,117
805,448	-1,5	-1,094
807,38	-7,5	-2,2
809,311	-16,5	-3,313
811,243	-16,5	-3,494
813,169	-13	-3,346
815,095	-6	-2,319
817,027	-2	-1,234
818,947	3	-0,041
820,879	3	-0,009
822,811	0,5	-0,323
824,737	-3	-1,421
826,668	-10,5	-2,543
828,594	-16,5	-3,499
830,526	-16	-3,471
832,452	-9	-2,833
834,39	-3,5	-1,784
836,316	0	-0,744
838,248	2,5	-0,001
840,186	2,5	-0,03
842,111	0	-0,72
844,055	-4,5	-1,771
845,981	-13,5	-2,881
847,913	-17	-3,498
849,845	-15,5	-3,451
851,771	-8,5	-2,657
853,703	-3	-1,494
855,629	1,5	-0,437
857,561	3	-0,003
859,499	2	-0,062
861,424	-0,5	-0,878
863,356	-5	-1,873
865,282	-15,5	-3,089
867,22	-16,5	-3,498
869,146	-15	-3,42
871,084	-7	-2,542
873,016	-2,5	-1,453
874,936	2	-0,386
876,862	3	-0,003
878,781	1,5	-0,116
880,713	-1,5	-1,006
882,645	-7	-2,103
884,577	-16,5	-3,2
886,509	-16,5	-3,497
888,435	-14,5	-3,385
890,367	-6	-2,373
892,293	-2	-1,28
894,225	2,5	-0,244
896,144	3	-0,006
898,076	1	-0,192
900,008	-2	-1,229
901,934	-9	-2,433
903,866	-16,5	-3,5
978,208	3	0
980,14	3	-0,013
982,072	0	-0,49
983,997	-4	-1,636
985,929	-12	-2,731
987,849	-16,5	-3,498
989,781	-15	-3,46
991,719	-9	-2,78
993,645	-3,5	-1,651
995,589	0,5	-0,525
997,515	2,5	-0,002
999,447	2	-0,064
1001,372	-1,5	-1,041
1003,304	-6	-2,142
1005,23	-16	-3,295
1007,168	-16,5	-3,494
1009,094	-12,5	-3,286
1011,032	-5	-2,161
1012,964	-1,5	-1,002
1014,902	2,5	0
1016,828	3	-0,018
1018,759	0	-0,468
1020,685	-3,5	-1,614
1022,617	-11	-2,763
1024,549	-16	-3,499
1026,487	-15	-3,463
1028,413	-7	-2,604
1030,345	-2,5	-1,397
1032,271	2,5	-0,232
1034,197	3	-0,004
1036,122	1,5	-0,204
1038,054	-2,5	-1,369
1039,986	-9,5	-2,523
1041,918	-16	-3,499
1043,844	-15,5	-3,466
1045,776	-8	-2,66
1047,696	-2,5	-1,387
1049,622	3	-0,136
1051,554	3	-0,008
1053,485	0,5	-0,368
1055,417	-3	-1,544
1057,349	-10,5	-2,654
1059,275	-16	-3,499
1061,207	-15	-3,463
1063,139	-8	-2,709
1065,071	-2,5	-1,466
1066,998	3	-0,174
1068,929	3	-0,009
1070,854	0,5	-0,357
1072,786	-3	-1,479
1074,712	-11,5	-2,657
1076,644	-16	-3,499
1078,57	-15	-3,462
1080,502	-7,5	-2,682
1082,428	-2,5	-1,544
1084,354	2	-0,397
1086,28	3	-0,003
1088,205	1	-0,18
1090,137	-1,5	-1,218
1092,069	-9,5	-2,467
1093,995	-16	-3,499
1095,927	-15,5	-3,485
1097,847	-8,5	-2,826
1099,779	-3	-1,646
1101,705	2,5	-0,392
1103,643	3	-0,003
1105,568	1	-0,146
1107,5	-2	-1,338
1109,426	-10	-2,515
1111,358	-16	-3,499
1113,284	-15,5	-3,48
1115,216	-8,5	-2,853
1117,142	-3	-1,58
1119,074	2	-0,392
1121	3	-0,004
1122,938	1	-0,164
1124,863	-2,5	-1,282
1126,789	-9,5	-2,433
1128,721	-16	-3,5
1130,653	-15,5	-3,488
1132,585	-10,5	-3,119
1134,511	-4,5	-1,983
1136,437	0	-0,752
1138,363	3	-0,002
1140,294	2	-0,082
1142,22	-1	-1,028
1144,146	-7,5	-2,253
1146,072	-15,5	-3,433
1148,01	-15,5	-3,492
1149,936	-11,5	-3,251
1151,868	-4	-2,067
1153,794	-1	-0,878
1155,726	3	-0,001
1157,657	2,5	-0,028
1159,589	0	-0,75
1161,515	-5,5	-1,994
1163,441	-15	-3,076
1165,373	-15,5	-3,498
1167,299	-14	-3,422
1169,236	-7	-2,605
1171,169	-2,5	-1,446
1173,095	2,5	-0,367
1175,021	3	-0,004
1176,946	0,5	-0,188
1178,878	-2,5	-1,349
1180,804	-9,5	-2,499
1182,73	-15,5	-3,5
1184,662	-15,5	-3,49
1186,588	-10,5	-3,101
1188,52	-4	-2,053
1190,446	-1	-0,938
1192,378	3	0
1194,309	3	-0,02
1196,235	0	-0,567
1198,167	-3	-1,609
1200,093	-11	-2,739
1202,031	-15,5	-3,499
1203,957	-15	-3,466
1205,889	-7	-2,761
1207,815	-3	-1,646
1209,741	2,5	-0,425
1211,672	3	-0,003
1213,598	1,5	-0,122
1215,53	-1,5	-1,118
1217,456	-7,5	-2,28
1219,406	-15,5	-3,236
1221,332	-15,5	-3,495
1223,27	-13	-3,348
1225,196	-5	-2,29
1227,121	-1,5	-1,133
1229,053	2,5	-0,003
1230,979	3	-0,013
1232,911	0,5	-0,366
1234,837	-3	-1,52
1236,769	-10	-2,609
1238,707	-15,5	-3,499
1240,633	-15	-3,484
1242,565	-10	-3,008
1244,497	-3,5	-1,85
1246,422	0	-0,697
1248,348	3	-0,001
1250,286	2,5	-0,036
1252,212	0	-0,743
1254,138	-4,5	-1,885
1256,07	-14	-3,018
1257,996	-15,5	-3,498
1259,934	-15	-3,444
1261,86	-6,5	-2,639
1263,785	-2,5	-1,543
1265,717	2	-0,417
1267,649	3	-0,003
1269,581	1,5	-0,113
1271,507	-1	-1,024
1273,439	-6,5	-2,118
1275,371	-15,5	-3,216
1277,297	-15,5	-3,496
1279,229	-13	-3,35
1281,154	-5	-2,334
1283,086	-2	-1,168
1285,012	2,5	-0,019
1286,944	3	-0,009
1288,876	0,5	-0,284
1290,802	-2	-1,404
1292,734	-9,5	-2,419
1294,66	-15,5	-3,5
1296,592	-15,5	-3,492
1298,518	-11	-3,253
1300,443	-5	-2,193
1302,375	-1,5	-1,109
1304,307	3	0
1306,239	3	-0,014
1308,171	0	-0,463
1310,097	-3	-1,593
1312,035	-10,5	-2,664
1313,961	-15,5	-3,499
1315,886	-15	-3,473
1317,818	-8	-2,787
1319,756	-3	-1,822
1321,682	0	-0,738
1323,62	3	-0,001
1325,546	2,5	-0,044
1327,479	0	-0,804
1329,404	-4,5	-1,94
1331,33	-14,5	-3,086
1333,267	-15,5	-3,497
1335,199	-14,5	-3,425
1337,125	-6	-2,492
1339,057	-2	-1,371
1340,983	2,5	-0,175
1342,915	3	-0,005
1344,841	1	-0,222
1346,767	-2	-1,336
1348,705	-8	-2,413
1350,631	-15,5	-3,5
1352,556	-15	-3,485
1354,488	-10	-3,091
1356,414	-4	-1,971
1358,346	-0,5	-0,817
1360,272	3	-0,001
1362,192	2	-0,041
1364,13	0	-0,713
1366,056	-4	-1,826
1368	-12,5	-2,948
1369,925	-15,5	-3,498
1371,851	-13,5	-3,415
1373,777	-5,5	-2,367
1375,709	-2	-1,394
1377,635	3	-0,26
1379,567	3	-0,005
1381,493	1	-0,182
1383,425	-1,5	-1,241
1385,356	-7,5	-2,364
1387,288	-15	-3,456
1389,214	-15	-3,491
1391,14	-10,5	-3,192
1393,072	-4	-2,118
1395,01	-1	-1,026
1396,936	3	0
1398,868	3	-0,014
1400,8	0	-0,404
1402,725	-3	-1,524
1404,657	-9	-2,582
1406,589	-15	-3,499
1408,527	-15	-3,483
1410,459	-9	-2,964
1412,385	-3	-1,85
1414,317	0	-0,706
1416,243	3	-0,001
1418,169	2,5	-0,04
1420,1	0	-0,802
1422,026	-4,5	-1,949
1423,964	-14	-3,03
1425,89	-15	-3,498
1427,822	-14,5	-3,435
1429,748	-6	-2,532
1431,674	-2	-1,412
1433,6	3	-0,224
1435,538	3	-0,004
1437,464	1,5	-0,17
1439,395	-1	-1,193
1441,315	-7	-2,38
1443,235	-15	-3,5
1445,155	-15	-3,484
1447,087	-9	-3,005
1449,015	-3,5	-1,869
1450,939	0	-0,732
1452,865	3	-0,001
1454,797	2,5	-0,057
1456,722	-0,5	-0,903
1458,66	-5	-2,08
1460,592	-14	-3,161
1462,518	-15	-3,496
1464,444	-12	-3,339
1466,37	-5	-2,367
1468,296	-1,5	-1,221
1470,222	3	-0,121
1472,154	3	-0,009
1474,079	1	-0,283
1476,005	-2,5	-1,466
1477,937	-9	-2,598
1479,869	-15	-3,5
1481,795	-15	-3,483
1483,733	-9,5	-2,997
1485,659	-3	-1,862
1487,591	0	-0,756
1489,517	3	-0,001
1491,442	3	-0,031
1493,38	0	-0,633
1495,312	-3	-1,776
1497,238	-12	-2,928
1499,17	-15	-3,498
1501,096	-14,5	-3,45
1503,022	-6	-2,565
1504,954	-2,5	-1,55
1506,886	2	-0,466
1508,817	3	-0,002
1510,743	1,5	-0,115
1512,669	-1	-1,15
1514,601	-6,5	-2,294
1516,527	-15	-3,439
1518,459	-15	-3,491
1520,391	-10,5	-3,171
1522,323	-3,5	-2,039
1524,249	-0,5	-0,901
1526,18	3	-0,001
1528,106	3	-0,02
1530,038	0	-0,595
1531,97	-3	-1,65
1533,896	-11	-2,822
1535,828	-15	-3,498
1537,754	-14	-3,438
1539,68	-6	-2,558
1541,612	-2	-1,395
1543,543	3	-0,27
1545,469	3	-0,004
1547,401	1,5	-0,147
1549,327	-1	-1,178
1551,253	-7	-2,361
1553,191	-15	-3,466
1555,111	-15	-3,487
1557,031	-8,5	-2,98
1558,963	-3	-1,81
1560,888	0,5	-0,652
1562,814	3	-0,002
1564,746	2,5	-0,058
1566,672	-0,5	-0,973
1568,598	-6	-2,162
1570,524	-15	-3,456
1572,456	-15	-3,483
1574,376	-7,5	-2,817
1576,302	-2	-1,592
1578,239	2	-0,436
1580,165	3	-0,003
1582,097	1	-0,163
1584,023	-1,5	-1,311
1585,949	-10	-2,624
1587,875	-15	-3,499
1589,801	-13,5	-3,436
1591,727	-5	-2,361
1593,659	-1	-1,021
1595,584	3	-0,001
1597,51	3	-0,033
1599,442	0	-0,844
1601,368	-5,5	-2,101
1603,294	-15	-3,257
1605,22	-15	-3,492
1607,158	-10	-3,222
1609,084	-3,5	-1,94
1611,01	0,5	-0,666
1612,942	3	-0,001
1614,867	1,5	-0,084
1616,799	-1	-1,052
1618,731	-7	-2,296
1620,657	-15	-3,5
1622,589	-15	-3,481
1624,521	-8	-2,918
1626,447	-2	-1,607
1628,373	2,5	-0,343
1630,304	3	-0,003
1632,23	1,5	-0,2
1634,162	-2	-1,404
1636,088	-10	-2,643
1638,02	-15	-3,499
1639,946	-14,5	-3,456
1641,872	-6	-2,642
1643,804	-2,5	-1,563
1645,73	2	-0,4
1647,655	3	-0,003
1649,581	1,5	-0,169
1651,513	-1,5	-1,261
1653,451	-8,5	-2,47
1655,377	-15	-3,499
1657,303	-15	-3,477
1659,229	-7,5	-2,817
1661,155	-2,5	-1,761
1663,087	0,5	-0,639
1665,012	3	-0,002
1666,938	2,5	-0,064
1668,87	-1	-1,055
1670,802	-5,5	-2,166
1672,74	-15	-3,274
1674,666	-15	-3,493
1676,592	-10	-3,227
1678,518	-4	-2,146
1680,45	-1	-1,019
1682,382	3	0
1684,319	3	-0,012
1686,251	0,5	-0,324
1688,177	-2	-1,477
1690,103	-10	-2,724
1692,029	-15	-3,498
1693,973	-14	-3,449
1695,899	-5,5	-2,514
1697,825	-2	-1,486
1699,757	3	-0,125
1701,682	3	-0,007
1703,614	1	-0,282
1705,546	-2,5	-1,567
1707,472	-11	-2,793
1709,398	-15	-3,498
1711,324	-12,5	-3,421
1713,25	-4,5	-2,376
1715,176	-1	-1,023
1717,101	3	-0,001
1719,033	3	-0,024
1720,959	0	-0,671
1722,897	-4	-1,928
1724,823	-15	-3,298
1726,749	-15	-3,488
1728,675	-8,5	-2,934
1730,601	-2,5	-1,618
1732,533	2,5	-0,269
1734,465	3	-0,004
1736,39	0,5	-0,307
1738,322	-3	-1,711
1740,248	-14,5	-3,086
1742,174	-15	-3,494
1744,1	-9,5	-3,119
1746,032	-3	-1,769
1747,958	2	-0,409
1749,884	3	-0,004
1751,816	1	-0,216
1753,741	-3	-1,594
1755,667	-13	-2,953
1757,599	-15	-3,496
1759,519	-10,5	-3,234
1761,445	-3,5	-1,962
1763,377	0	-0,73
1765,309	3	-0,001
1767,235	1,5	-0,084
1769,161	-1,5	-1,252
1771,092	-8,5	-2,576
1773,024	-15	-3,499
1774,956	-13,5	-3,426
1776,888	-5	-2,407
1778,82	-1	-1,062
1780,746	3	0
1782,678	3	-0,025
1784,604	0	-0,82
1786,53	-5	-2,096
1788,455	-15	-3,389
1790,387	-14,5	-3,492
1792,313	-9	-3,072
1794,251	-3	-1,793
1796,177	1	-0,594
1798,109	3	-0,002
1800,035	2	-0,074
1801,961	-0,5	-1,032
1803,893	-6	-2,244
1805,818	-15	-3,5
1807,75	-14,5	-3,486
1809,676	-8	-2,982
1811,608	-2,5	-1,728
1813,54	0,5	-0,622
1815,466	3	-0,002
1817,392	2	-0,093
1819,324	-1	-1,146
1821,25	-5,5	-2,192
1823,176	-15	-3,476
1825,101	-15	-3,488
1827,033	-9,5	-3,077
1828,959	-3	-1,921
1830,885	0	-0,69
1832,811	2,5	-0,001
1834,743	2	-0,054
1836,669	-0,5	-0,953
1838,595	-5,5	-2,168
1840,526	-15	-3,312
1842,458	-15	-3,493
1844,39	-9,5	-3,219
1846,316	-3,5	-2,076
1848,248	-1	-0,871
1850,168	2,5	-0,001
1852,094	2,5	-0,029
1854,014	0	-0,817
1855,946	-4	-1,954
1857,866	-13	-3,068
1859,797	-15	-3,497
1861,723	-12,5	-3,409
1863,661	-4,5	-2,396
1865,587	-1,5	-1,195
1867,513	3	0
1869,439	2,5	-0,013
1871,371	0,5	-0,386
1873,297	-2	-1,422
1875,228	-9	-2,655
1877,166	-15	-3,499
1879,098	-15	-3,48
1881,024	-7,5	-2,87
1882,95	-2,5	-1,639
1884,882	2,5	-0,501
1886,808	3	-0,002
1888,734	1,5	-0,11
1890,66	-1	-1,049
1892,586	-5,5	-2,215
1894,517	-14,5	-3,306
1896,443	-15	-3,492
1898,375	-9,5	-3,174
1900,307	-3,5	-2,015
1902,233	0	-0,858
1904,159	3	-0,001
1906,085	2,5	-0,037
1908,011	0	-0,78
1909,936	-4,5	-2,04
1911,862	-15	-3,299
1913,788	-14,5	-3,491
1915,72	-8,5	-3,066
1917,652	-2,5	-1,794
1919,578	1,5	-0,531
1921,504	3	-0,002
1923,436	1,5	-0,121
1925,362	-1	-1,248
1927,287	-8	-2,533
1929,219	-15	-3,499
1931,151	-14,5	-3,464
1933,077	-5,5	-2,501
1935,003	-1,5	-1,201
1936,929	3	0
1938,861	3	-0,013
1940,787	0	-0,569
1942,713	-3,5	-1,816
1944,639	-14	-3,13
1946,57	-14,5	-3,496
1948,496	-10,5	-3,32
1950,422	-4	-2,125
1952,348	-1	-0,98
1954,274	3	-0,001
1956,2	3	-0,022
1958,126	0	-0,686
1960,046	-3,5	-1,863
1961,972	-13,5	-3,09
1963,897	-14,5	-3,495
1965,823	-11	-3,31
1967,755	-3,5	-2,073
1969,681	-0,5	-0,852
1971,613	3	-0,001
1973,539	2,5	-0,032
1975,465	0	-0,756
1977,397	-4,5	-2,027
1979,323	-14,5	-3,383
1981,248	-15	-3,491
1983,174	-10	-3,221
1985,1	-3,5	-2,063
1987,038	-0,5	-0,806
1988,964	3	-0,001
1990,896	2,5	-0,038
1992,822	-0,5	-0,917
1994,754	-5	-2,108
1996,68	-14,5	-3,302
1998,611	-15	-3,494
2000,543	-10,5	-3,264
2002,469	-4	-2,194
2004,395	-1	-1,004
2006,327	3	0
2008,259	3	-0,021
2010,191	0	-0,667
2012,117	-3,5	-1,898
2014,043	-13,5	-3,136
2015,968	-14,5	-3,496
2017,894	-12	-3,36
2019,82	-4	-2,221
2021,746	-1	-1,032
2023,678	3	0
2025,61	3	-0,018
2027,536	0	-0,611
2029,468	-3	-1,796
2031,394	-12	-3,023
2033,325	-14,5	-3,497
2035,257	-12,5	-3,378
2037,183	-4,5	-2,233
2039,109	-1	-0,986
2041,035	3	-0,001
2042,961	3	-0,025
2044,887	0	-0,723
2046,819	-3,5	-1,891
2048,745	-13,5	-3,034
2050,67	-14,5	-3,497
2052,596	-12	-3,382
2054,522	-4	-2,287
2056,454	-1	-1,117
2058,38	3	-0,003
2060,306	3	-0,014
2062,232	0	-0,518
2064,158	-3	-1,69
2066,084	-12	-2,923
2068,009	-14,5	-3,498
2069,935	-12	-3,391
2071,861	-4	-2,26
2073,793	-1	-1,121
2075,721	3	-0,009
2077,645	3	-0,011
2079,577	0,5	-0,376
2081,509	-2,5	-1,54
2083,435	-9	-2,602
2085,354	-14,5	-3,499
2087,286	-14	-3,476
2089,212	-7	-2,807
2091,15	-2,5	-1,631
2093,076	1,5	-0,451
2095,002	3	-0,003
2096,928	1,5	-0,113
2098,854	-1	-1,183
2100,774	-8	-2,502
2102,699	-14,5	-3,499
2104,625	-14	-3,478
2106,551	-7	-2,838
2108,477	-2	-1,538
2110,409	2,5	-0,319
2112,335	3	-0,003
2114,261	1,5	-0,163
2116,187	-1,5	-1,329
2118,119	-7,5	-2,467
2120,044	-14,5	-3,5
2121,97	-14	-3,48
2123,896	-6,5	-2,799
2125,822	-2	-1,674
2127,754	1	-0,551
2129,68	3	-0,002
2131,612	2	-0,09
2133,538	-1	-1,154
2135,464	-7,5	-2,376
2137,389	-14,5	-3,5
2139,315	-14,5	-3,48
2141,241	-6,5	-2,775
2143,167	-2	-1,581
2145,099	2,5	-0,377
2147,025	3	-0,003
2148,951	1,5	-0,137
2150,883	-0,5	-1,044
2152,809	-5,5	-2,202
2154,741	-14,5	-3,326
2156,666	-14,5	-3,494
2158,598	-10,5	-3,324
2160,524	-3,5	-2,206
2162,45	-1	-1,118
2164,382	3	-0,042
2166,308	3	-0,01
2168,234	1	-0,369
2170,16	-2	-1,52
2172,085	-8	-2,582
2174,011	-14,5	-3,499
2175,937	-13,5	-3,47
2177,863	-6	-2,78
2179,789	-2	-1,623
2181,715	1,5	-0,539
2183,647	3	-0,002
2185,573	2	-0,071
2187,499	0	-0,931
2189,425	-4,5	-2,035
2191,35	-14	-3,189
2193,276	-14,5	-3,495
2195,208	-11	-3,348
2197,134	-4	-2,306
2199,06	-1	-1,175
2200,986	3	-0,102
2202,924	3	-0,006
2204,85	1,5	-0,195
2206,776	-1	-1,215
2208,701	-7,5	-2,351
2210,639	-14,5	-3,462
2212,559	-14	-3,49
2214,485	-9	-3,167
2216,411	-3	-2,047
2218,337	-0,5	-0,922
2220,269	3	-0,001
2222,195	3	-0,02
2224,115	0	-0,584
2226,046	-2,5	-1,648
2227,972	-10	-2,767
2229,904	-14,5	-3,499
2231,83	-13,5	-3,472
2233,756	-6,5	-2,832
2235,682	-2,5	-1,649
2237,614	2	-0,536
2239,54	3	-0,002
2241,466	2	-0,111
2243,391	-1	-1,149
2245,311	-6,5	-2,354
2247,243	-14,5	-3,445
2249,169	-14	-3,491
2251,101	-10,5	-3,298
2253,027	-3,5	-2,192
2254,953	-0,5	-1,073
2256,879	3	-0,001
2258,811	3	-0,014
2260,736	0	-0,531
2262,668	-3	-1,668
2264,594	-10,5	-2,784
2266,52	-14	-3,499
2268,446	-13,5	-3,464
2270,384	-6	-2,702
2272,31	-1,5	-1,497
2274,236	2,5	-0,392
2276,174	3	-0,002
2278,099	2	-0,097
2280,031	-0,5	-0,996
2281,957	-5,5	-2,159
2283,889	-14,5	-3,208
2285,815	-14	-3,495
2287,735	-10,5	-3,36
2289,667	-4,5	-2,326
2291,599	-1	-1,193
2293,525	3	-0,027
2295,45	3	-0,011
2297,376	1	-0,399
2299,314	-1,5	-1,443
2301,24	-8	-2,605
2303,172	-14	-3,499
2305,098	-14	-3,478
2307,024	-7	-2,871
2308,95	-2,5	-1,842
2310,888	0,5	-0,671
2312,813	3	-0,002
2314,739	2	-0,108
2316,659	-1	-1,19
2318,585	-7,5	-2,47
2320,511	-14	-3,5
2322,443	-14	-3,476
2324,363	-7	-2,856
2326,289	-2	-1,672
2328,215	2,5	-0,343
2330,134	3	-0,004
2332,06	1,5	-0,185
2333,992	-1	-1,253
2335,918	-7,5	-2,537
2337,844	-14	-3,499
2339,77	-13,5	-3,471
2341,696	-6	-2,74
2343,622	-1,5	-1,54
2345,554	2	-0,369
2347,486	3	-0,003
2349,411	1,5	-0,176
2351,337	-1	-1,339
2353,269	-8	-2,542
2355,195	-14,5	-3,499
2357,121	-14	-3,474
2359,053	-7	-2,871
2360,979	-2	-1,629
2362,911	2,5	-0,41
2364,836	3	-0,002
2366,762	2	-0,108
2368,688	-1	-1,144
2370,614	-5,5	-2,284
2372,546	-14	-3,5
2374,472	-14	-3,485
2376,398	-7,5	-2,969
2378,324	-2	-1,749
2380,25	1,5	-0,538
2382,176	3	-0,002
2384,107	2	-0,1
2386,033	-0,5	-1,162
2387,959	-5,5	-2,293
2389,885	-14	-3,5
2391,817	-14	-3,486
2393,743	-7,5	-2,956
2395,675	-3	-1,861
2397,601	0	-0,672
2399,527	3	-0,002
2401,452	2,5	-0,063
2403,384	0	-0,88
2405,31	-3,5	-2,047
2407,242	-14	-3,236
2409,168	-14	-3,494
2411,094	-10	-3,269
2413,02	-3,5	-2,081
2414,952	-0,5	-0,949
2416,878	3	0
2418,809	3	-0,017
2420,735	0,5	-0,475
2422,661	-2,5	-1,648
2424,587	-10,5	-2,864
2426,519	-14	-3,498
2428,445	-12	-3,424
2430,371	-4,5	-2,422
2432,297	-1	-1,201
2434,223	3	-0,053
2436,154	3	-0,008
2438,086	1	-0,33
2440,012	-1,5	-1,519
2441,938	-8	-2,59
2443,864	-14	-3,499
2445,79	-13	-3,431
2447,716	-4,5	-2,468
2449,648	-1	-1,266
2451,574	3	-0,002
2453,499	3	-0,012
2455,425	0	-0,5
2457,351	-3	-1,764
2459,277	-11	-2,916
2461,203	-14	-3,498
2463,135	-12	-3,388
2465,061	-4	-2,337
2466,981	-0,5	-1,06
2468,907	3	0
2470,832	3	-0,018
2472,764	0	-0,609
2474,696	-3	-1,777
2476,622	-12	-2,988
2478,548	-14	-3,497
2480,474	-12,5	-3,427
2482,4	-5	-2,526
2484,332	-1,5	-1,38
2486,264	3	-0,2
2488,189	3	-0,005
2490,115	1	-0,248
2492,047	-1,5	-1,431
2493,973	-8,5	-2,674
2495,899	-14	-3,499
2497,825	-13,5	-3,457
2499,757	-5	-2,575
2501,683	-1,5	-1,317
2503,609	3	-0,121
2505,54	3	-0,007
2507,466	1	-0,303
2509,398	-1	-1,298
2511,33	-7	-2,478
2513,256	-14	-3,5
2515,188	-13,5	-3,478
2517,12	-6,5	-2,843
2519,046	-2	-1,611
2520,972	2	-0,406
2522,897	3	-0,003
2524,823	2	-0,106
2526,749	-0,5	-1,116
2528,675	-6	-2,369
2530,607	-14	-3,5
2532,533	-14	-3,485
2534,459	-7,5	-3,012
2536,385	-2	-1,732
2538,323	0	-0,63
2540,248	3	-0,001
2542,174	2,5	-0,059
2544,1	-0,5	-1,069
2546,026	-5,5	-2,342
2547,958	-14	-3,5
2549,884	-13,5	-3,471
2551,81	-5,5	-2,642
2553,736	-1	-1,307
2555,662	3	-0,042
2557,587	3	-0,01
2559,513	0,5	-0,49
2561,439	-2,5	-1,684
2563,371	-11,5	-2,945
2565,297	-13,5	-3,496
2567,229	-9	-3,303
2569,155	-3	-2,128
2571,081	0	-0,869
2573,007	3	-0,001
2574,939	2,5	-0,046
2576,864	0	-1,033
2578,79	-6	-2,301
2580,716	-13,5	-3,5
2582,636	-12,5	-3,466
2584,568	-5,5	-2,731
2586,488	-1	-1,432
2588,408	3	-0,153
2590,334	3	-0,007
2592,253	0	-0,57
2594,179	-2,5	-1,802
2596,117	-11,5	-3,027
2598,043	-13,5	-3,494
2599,969	-8,5	-3,21
2601,895	-2,5	-1,9
2603,821	1	-0,566
2605,753	3	-0,002
2607,679	2,5	-0,062
2609,605	0	-1,038
2611,536	-5,5	-2,212
2613,462	-13,5	-3,438
2615,388	-13	-3,488
2617,314	-7	-3,042
2619,252	-2	-1,798
2621,178	1	-0,577
2623,11	3	-0,002
2625,036	1,5	-0,142
2626,968	-1,5	-1,39
2628,893	-9	-2,675
2630,825	-13,5	-3,499
2632,751	-12	-3,446
2634,683	-5	-2,629
2636,615	-1,5	-1,512
2638,547	2,5	-0,352
2640,473	3	-0,003
2642,399	1	-0,228
2644,325	-2	-1,524
2646,256	-10	-2,896
2648,182	-13,5	-3,497
2650,108	-9,5	-3,288
2652,04	-3	-1,952
2653,966	1	-0,63
2655,892	3	-0,002
2657,824	1,5	-0,107
2659,756	-1	-1,263
2661,676	-7	-2,554
2663,607	-13,5	-3,499
2665,533	-12,5	-3,462
2667,459	-4,5	-2,549
2669,385	-1	-1,482
2671,317	2,5	-0,327
2673,243	3	-0,004
2675,175	1,5	-0,2
2677,101	-1,5	-1,472
2679,027	-7,5	-2,533
2680,952	-13,5	-3,5
2682,884	-13,5	-3,49
2684,81	-7,5	-3,129
2686,742	-2,5	-1,943
2688,668	1	-0,626
2690,594	3	-0,001
2692,52	2,5	-0,057
2694,446	0	-0,97
2696,372	-4	-2,122
2698,309	-13,5	-3,243
2700,235	-13,5	-3,496
2702,161	-10,5	-3,365
2704,087	-4	-2,43
2706,019	-1	-1,336
2707,951	3	-0,248
2709,877	3	-0,004
2711,803	1,5	-0,14
2713,729	-0,5	-1,018
2715,654	-4,5	-2,17
2717,58	-13	-3,371
2719,506	-13,5	-3,494
2721,432	-10,5	-3,335
2723,358	-3,5	-2,331
2725,29	-1	-1,286
2727,216	3	-0,17
2729,142	3	-0,007
2731,068	1	-0,237
2732,993	-1	-1,352
2734,919	-6,5	-2,466
2736,851	-13	-3,5
2738,777	-13	-3,485
2740,703	-7,5	-3,08
2742,635	-2,5	-1,985
2744,561	0	-0,934
2746,487	3	-0,002
2748,419	3	-0,007
2750,344	1	-0,189
2752,27	-0,5	-1,254
2754,202	-5	-2,248
2756,128	-12,5	-3,156
2758,054	-13	-3,496
2759,986	-12	-3,442
2761,912	-5,5	-2,695
2763,838	-2	-1,697
2765,764	1	-0,608
2767,689	3	-0,002
2769,615	2,5	-0,046
2771,547	0	-0,713
2773,479	-2,5	-1,664
2775,399	-9,5	-2,82
2777,325	-13,5	-3,499
2779,251	-12,5	-3,456
2781,177	-5,5	-2,76
2783,097	-1,5	-1,605
2785,023	2,5	-0,5
2786,948	3	-0,002
2788,874	2,5	-0,056
2790,8	0	-0,894
2792,726	-3	-1,984
2794,658	-11,5	-3,004
2796,584	-13	-3,498
2798,51	-12,5	-3,447
2800,448	-5,5	-2,711
2802,373	-1,5	-1,538
2804,299	2	-0,423
2806,225	3	-0,002
2808,152	2,5	-0,077
2810,077	0	-1,03
2812,009	-4,5	-2,173
2813,941	-13	-3,354
2815,873	-13	-3,493
2817,799	-9	-3,279
2819,724	-3	-2,134
2821,65	-0,5	-0,956
2823,57	3	-0,001
2825,496	3	-0,021
2827,428	0	-0,694
2829,354	-3	-1,909
2831,274	-12,5	-3,151
2833,2	-13	-3,494
2835,132	-9	-3,284
2837,058	-3	-2,018
2838,983	0	-0,738
2840,909	3	-0,001
2842,841	2,5	-0,052
2844,767	0	-0,977
2846,693	-4,5	-2,16
2848,619	-13	-3,395
2850,545	-13	-3,489
2852,471	-7,5	-3,074
2854,397	-2,5	-1,912
2856,322	0	-0,77
2858,254	3	-0,001
2860,18	2,5	-0,033
2862,106	0	-0,844
2864,032	-3	-1,98
2865,958	-12,5	-3,116
2867,89	-12,5	-3,496
2869,822	-10,5	-3,38
2871,754	-3,5	-2,415
2873,673	-0,5	-1,121
2875,599	3	0
2877,525	3	-0,023
2879,451	0	-0,724
2881,377	-3,5	-2,031
2883,309	-11,5	-3,186
2885,235	-12	-3,495
2887,161	-9	-3,314
2889,087	-3	-2,176
2891,012	-0,5	-0,998
2892,938	3	0
2894,864	3	-0,018
2896,796	0,5	-0,595
2898,722	-2	-1,758
2900,648	-9,5	-2,964
2902,574	-12	-3,497
2904,5	-10	-3,396
2906,42	-3	-2,289
2908,351	-0,5	-1,14
2910,283	3	-0,015
2912,209	3	-0,012
2914,135	0,5	-0,51
2916,067	-1,5	-1,675
2917,987	-8	-2,82
2919,913	-11,5	-3,498
2921,845	-10,5	-3,445
2923,771	-4	-2,561
2925,69	-1	-1,316
2927,616	3	-0,168
2929,542	3	-0,007
2931,468	1,5	-0,308
2933,4	-1	-1,544
2935,338	-8	-2,798
2937,264	-11,5	-3,498
2939,19	-10	-3,438
2941,116	-3,5	-2,553
2943,035	-1	-1,382
2944,967	3	-0,252
2946,899	3	-0,004
2948,825	1,5	-0,145
2950,757	0	-1,17
2952,683	-4,5	-2,365
2954,609	-11	-3,5
2956,535	-11	-3,485
2958,467	-5,5	-2,99
2960,392	-1,5	-1,801
2962,318	0,5	-0,586
2964,244	3	-0,001
2966,17	3	-0,036
2968,09	0	-0,781
2970,022	-2	-1,849
2971,948	-8,5	-2,944
2973,874	-11	-3,498
2975,806	-10	-3,437
2977,731	-4	-2,613
2979,657	-1	-1,552
2981,583	2,5	-0,368
2983,527	3	-0,002
2985,453	2,5	-0,092
2987,379	0	-0,884
2989,305	-2,5	-2,039
2991,231	-10,5	-3,183
2993,157	-11	-3,495
2995,088	-8	-3,36
2997,02	-3	-2,411
2998,946	-1	-1,43
3000,872	2,5	-0,274
3002,798	3	-0,003
3004,724	2	-0,12
3006,65	0	-1,069
3008,576	-3	-2,19
3010,508	-10,5	-3,343
3012,434	-10,5	-3,492
3014,359	-7,5	-3,249
3016,285	-2,5	-2,129
3018,217	-0,5	-0,955
3020,143	3	-0,001
3022,069	3	-0,023
3024,001	1	-0,48
3025,927	-1	-1,594
3027,853	-6	-2,719
3029,779	-10,5	-3,499
3031,71	-10	-3,473
3033,636	-5	-2,89
3035,556	-1,5	-1,815
3037,476	0,5	-0,666
3039,408	3,5	-0,001
3041,334	3	-0,032
3043,26	0,5	-0,629
3045,186	-1,5	-1,825
3047,111	-7,5	-2,999
3049,037	-10	-3,497
3050,969	-9	-3,438
3052,895	-3,5	-2,596
3054,821	-1	-1,482
3056,747	3	-0,306
3058,673	3	-0,004
3060,599	1,5	-0,152
3062,525	-0,5	-1,283
3064,451	-4	-2,414
3066,382	-10	-3,5
3068,308	-10	-3,486
3070,234	-5,5	-3,058
3072,166	-1,5	-1,951
3074,092	0	-0,808
3076,024	3	-0,001
3077,944	2,5	-0,037
3079,876	0	-0,74
3081,796	-2	-1,906
3083,727	-9	-3,054
3085,653	-10	-3,496
3087,579	-7,5	-3,384
3089,505	-2,5	-2,34
3091,437	-0,5	-1,26
3093,357	3	-0,012
3095,283	3	-0,01
3097,215	1	-0,279
3099,141	-1	-1,468
3101,066	-5	-2,588
3102,992	-10	-3,499
3104,918	-9,5	-3,476
3106,85	-5	-2,996
3108,776	-1,5	-1,791
3110,714	0	-0,8
3112,64	3	-0,001
3114,572	3	-0,023
3116,498	0,5	-0,703
3118,423	-1,5	-1,898
3120,349	-8,5	-3,082
3122,275	-9,5	-3,496
3124,207	-7,5	-3,394
3126,139	-2,5	-2,373
3128,065	-0,5	-1,242
3129,991	3	-0,002
3131,917	3	-0,009
3133,843	0,5	-0,376
3135,768	-0,5	-1,48
3137,694	-5	-2,575
3139,62	-9,5	-3,499
3141,546	-9	-3,48
3143,472	-4,5	-2,981
3145,398	-1,5	-1,792
3147,33	1	-0,685
3149,256	3	-0,001
3151,188	2,5	-0,032
3153,113	0	-0,759
3155,045	-1,5	-1,935
3156,971	-8	-3,024
3158,897	-9,5	-3,496
3160,823	-7	-3,365
3162,743	-2,5	-2,246
3164,669	-0,5	-1,104
3166,595	2,5	0
3168,521	3	-0,01
3170,452	0,5	-0,352
3172,378	-0,5	-1,466
3174,304	-4	-2,501
3176,224	-9	-3,499
3178,15	-8,5	-3,478
3180,076	-3,5	-2,884
3182,002	-1	-1,695
3183,94	1,5	-0,587
3185,866	3	-0,002
3187,797	2	-0,062
3189,723	0	-0,97
3191,649	-2	-2,11
3193,575	-9	-3,238
3195,507	-8,5	-3,495
3197,439	-5,5	-3,311
3199,365	-2	-2,212
3201,297	-0,5	-1,097
3203,223	3	0
3205,149	3	-0,013
3207,074	1	-0,34
3209	-0,5	-1,53
3210,926	-4,5	-2,665
3212,852	-8,5	-3,499
3214,784	-8,5	-3,476
3216,71	-3,5	-2,854
3218,636	-0,5	-1,665
3220,562	1,5	-0,464
3222,487	3	-0,002
3224,413	1,5	-0,105
3226,339	0	-1,137
3228,271	-3	-2,279
3230,197	-8,5	-3,462
3232,123	-8,5	-3,491
3234,049	-5	-3,167
3235,975	-1,5	-2,074
3237,685	3	0