File: ensaios_Ciclicos/_20perc/_2gap/entrada/_2.txt
Time (s)	Load (N)	Displacement (mm)
0	0	-0,051
2,143	1	-0,137
4,285	1	-0,112
6,487	0,5	-0,374
8,677	-2,5	-0,691
11,011	-10	-1,643
13,267	-15	-2,21
15,39	-15	-2,251
17,538	-15	-2,208
19,801	-19	-2,872
22,008	-23	-3,176
24,21	-26,5	-3,396
26,4	-28,5	-3,451
28,638	-31,5	-3,487
30,834	-31,5	-3,495
32,988	-31	-3,496
35,183	-31	-3,498
37,769	-13,5	-1,637
39,965	-11	-1,384
42,113	-9,5	-1,439
44,357	-4,5	-0,904
46,511	-3	-0,714
48,682	-2,5	-0,546
50,831	-1	-0,465
52,996	-0,5	-0,306
55,174	0	-0,158
57,358	1,5	-0,094
59,614	2,5	-0,008
61,792	2,5	-0,004
64,293	-4,5	-1,011
66,465	-5,5	-1,276
68,667	-8	-1,698
70,809	-9,5	-1,747
72,963	-9,5	-1,824
75,147	-10,5	-2,042
77,301	-12	-2,131
79,479	-14,5	-2,421
81,651	-17	-2,693
83,762	-15	-2,536
85,886	-15	-2,553
88,04	-15,5	-2,55
90,536	-28,5	-3,491
92,6	-28,5	-3,481
94,754	-28,5	-3,483
96,866	-28	-3,476
99,008	-28	-3,475
101,149	-28	-3,47
103,303	-28	-3,479
105,463	-28	-3,481
107,594	-28	-3,482
109,753	-28	-3,486
111,871	-28	-3,475
114,037	-28	-3,482
116,167	-28	-3,485
118,32	-28	-3,487
120,871	-20	-2,556
123,007	-20	-2,558
125,268	-12,5	-1,896
127,434	-11	-1,704
129,54	-13	-1,815
131,7	-11,5	-1,735
133,889	-9,5	-1,488
136,127	-4	-0,936
138,365	0	-0,342
140,537	0,5	-0,185
142,649	0	-0,214
144,749	0	-0,309
146,891	0	-0,258
149,003	-0,5	-0,413
151,151	0	-0,368
153,25	-1	-0,414
155,386	-1	-0,441
157,516	-1	-0,501
159,544	-4	-0,972
161,716	-3,5	-0,922
163,798	-5,5	-1,176
165,892	-6,5	-1,354
168,004	-8	-1,512
170,104	-9	-1,646
172,245	-8	-1,543
174,382	-9	-1,623
176,89	2,5	-0,056
178,954	1	-0,181
181,035	0	-0,343
183,129	-1,5	-0,627
185,205	-2,5	-0,827
187,323	-3	-0,943
189,435	-4,5	-1,05
191,553	-5	-1,08
193,676	-5	-1,159
195,764	-7	-1,43
197,87	-8,5	-1,587
199,934	-12	-1,916
201,998	-16	-2,261
204,116	-18	-2,421
206,263	-17	-2,344
208,741	-1,5	-0,743
210,865	-2	-0,772
212,947	-3,5	-1,042
215,02	-6,5	-1,357
217,057	-11	-1,832
219,157	-13,5	-2,05
221,209	-17,5	-2,411
223,296	-21	-2,712
225,366	-24,5	-2,98
227,43	-27	-3,282
229,47	-27	-3,499
231,51	-27	-3,495
233,58	-26,5	-3,489
235,638	-25,5	-3,466
237,72	-24	-3,404
240,185	-26,5	-3,5
242,286	-26,5	-3,499
244,379	-26,5	-3,498
246,443	-26,5	-3,495
248,525	-26	-3,488
250,583	-25,5	-3,462
252,659	-24	-3,41
254,717	-20	-3,225
256,805	-17	-2,991
258,857	-13,5	-2,581
260,909	-9,5	-2,241
262,996	-8	-1,947
265,084	-6,5	-1,737
267,202	-5,5	-1,62
269,272	-4,5	-1,342
271,306	-0,5	-0,804
273,382	1,5	-0,525
275,451	3,5	-0,198
277,557	3,5	-0,031
279,603	3,5	-0,002
281,703	3,5	-0,002
283,821	3,5	-0,002
285,855	3,5	-0,012
287,895	3	-0,052
289,977	2	-0,118
291,999	-0,5	-0,532
294,014	-3,5	-1,141
296,072	-6,5	-1,545
298,089	-14	-2,176
300,084	-22	-2,878
302,516	-5,5	-1,407
304,598	-9,5	-1,726
306,632	-13,5	-2,12
308,714	-15	-2,342
310,76	-20	-2,751
312,799	-25,5	-3,224
314,81	-26	-3,499
316,831	-25,5	-3,494
318,871	-25	-3,47
359,327	-18	-3,182
361,373	-14,5	-2,7
363,394	-9	-2,113
365,38	-4	-1,326
367,408	0	-0,716
369,418	3,5	-0,052
371,428	3,5	-0,002
373,468	3,5	-0,01
375,52	3	-0,035
377,536	1	-0,262
379,545	-2	-0,847
381,531	-5,5	-1,416
383,559	-11,5	-2,032
385,563	-20	-2,772
387,597	-25	-3,198
389,661	-25	-3,499
391,647	-25	-3,493
393,705	-24,5	-3,477
395,739	-22	-3,378
436,192	-17,5	-3,238
438,235	-14,5	-2,777
440,25	-9	-2,264
442,284	-5,5	-1,612
444,306	-3	-1,058
446,298	3	-0,379
448,278	3,5	-0,001
450,3	3,5	-0,006
452,303	3,5	-0,046
454,277	0	-0,52
456,317	-2	-0,931
458,339	-5,5	-1,443
460,361	-10,5	-2,03
462,383	-16	-2,561
464,423	-24,5	-3,083
466,415	-24,5	-3,499
468,4	-24,5	-3,488
470,799	-21	-3,253
472,81	-25	-3,499
512,696	-4,5	-1,442
514,694	-0,5	-0,776
516,662	3,5	0
518,665	3,5	-0,004
520,651	3,5	-0,028
522,643	1,5	-0,241
524,647	-2	-0,89
526,669	-5,5	-1,495
528,674	-12	-2,198
530,659	-20	-2,938
532,651	-24,5	-3,499
534,631	-24,5	-3,495
536,616	-22	-3,452
538,62	-17,5	-3,13
540,63	-11	-2,504
542,61	-5,5	-1,745
544,596	-2	-1,004
546,6	2,5	-0,364
548,628	3,5	-0,001
550,626	4	-0,006
552,6	3	-0,077
554,597	0	-0,532
556,601	-3	-1,264
558,575	-10,5	-2,065
560,573	-17	-2,671
562,577	-24	-3,316
564,557	-24	-3,498
566,561	-24	-3,483
568,523	-19	-3,274
570,515	-11,5	-2,6
572,488	-6	-1,832
574,504	-3,5	-1,284
576,478	1,5	-0,495
578,434	3,5	-0,002
580,423	3,5	-0,015
582,418	2,5	-0,097
584,386	-1,5	-0,817
623,576	-3	-1,194
625,549	3,5	-0,404
627,517	4	-0,002
629,497	4	-0,013
631,495	2,5	-0,119
633,859	4	-0,004
635,851	3,5	-0,031
637,831	0,5	-0,347
639,793	-3,5	-1,276
641,785	-10	-2,002
643,74	-18,5	-2,77
645,756	-24	-3,419
647,73	-23,5	-3,497
649,692	-22,5	-3,442
651,697	-15,5	-3,081
653,658	-8	-2,268
655,646	-4	-1,503
657,618	0	-0,718
659,573	4	-0,001
661,535	4	-0,01
663,533	2,5	-0,106
665,513	-1	-0,824
667,5	-5,5	-1,591
669,479	-12	-2,296
671,471	-22,5	-3,148
673,445	-23,5	-3,499
675,425	-22,5	-3,484
677,398	-18,5	-3,333
679,396	-12	-2,72
681,353	-5,5	-1,83
683,32	-1,5	-1,016
685,288	4	-0,207
687,274	4	-0,002
689,272	3,5	-0,022
691,24	0,5	-0,328
693,214	-2,5	-1,164
695,169	-9,5	-2,102
697,131	-20,5	-3
736,381	4	-0,003
738,361	3,5	-0,032
740,335	0,5	-0,357
742,321	-2	-1,018
744,295	-7	-1,806
746,25	-16,5	-2,687
748,213	-23,5	-3,5
750,174	-23,5	-3,495
752,124	-20	-3,412
754,092	-12	-2,739
756,048	-5,5	-1,886
758,022	-2	-1,124
759,96	3,5	-0,103
761,94	3,5	-0,003
763,895	3,5	-0,046
765,822	-0,5	-0,688
767,771	-5,5	-1,592
769,721	-15	-2,528
771,671	-23,5	-3,497
773,627	-23	-3,494
775,613	-21,5	-3,439
777,581	-12,5	-2,828
779,537	-5,5	-1,885
781,504	-2,5	-1,082
783,453	3,5	-0,09
785,41	4	-0,004
787,36	3	-0,07
789,304	-1	-0,835
791,254	-7	-1,786
793,21	-17	-2,73
795,19	-23,5	-3,5
797,146	-23	-3,491
799,126	-21	-3,417
801,076	-10,5	-2,638
803,025	-4,5	-1,656
805,017	-1,5	-0,945
806,979	4	-0,041
808,941	4	-0,005
810,897	3	-0,083
812,859	-0,5	-0,751
814,815	-5,5	-1,635
816,764	-15	-2,593
818,72	-23	-3,457
820,7	-22,5	-3,496
822,651	-21,5	-3,442
824,624	-13,5	-2,891
826,592	-6,5	-2,092
828,542	-2,5	-1,118
830,486	4	-0,24
832,448	4	-0,003
834,391	3,5	-0,052
836,365	0	-0,583
838,321	-4,5	-1,51
840,265	-14	-2,493
842,227	-23	-3,338
844,189	-23	-3,497
846,145	-21,5	-3,449
848,101	-14,5	-2,946
850,051	-6	-2,035
852	-2,5	-1,09
853,968	4	-0,262
855,912	4	-0,004
857,868	3,5	-0,049
859,818	0	-0,63
861,786	-4	-1,444
863,748	-13,5	-2,343
865,704	-22,5	-3,187
867,672	-23	-3,498
869,634	-22,5	-3,479
871,607	-16,5	-3,21
873,575	-8,5	-2,38
875,531	-3,5	-1,448
877,49	1,5	-0,514
879,425	4	-0,002
881,387	3,5	-0,022
883,367	1	-0,241
885,329	-2	-1,023
887,284	-7,5	-1,885
889,222	-18,5	-2,887
891,172	-23	-3,499
893,134	-22,5	-3,486
895,09	-17	-3,278
897,053	-9	-2,436
899,002	-4	-1,563
900,946	0,5	-0,64
902,89	4	-0,001
904,851	3,5	-0,018
906,807	0,5	-0,345
908,751	-3	-1,273
910,713	-10,5	-2,177
912,675	-19	-2,968
914,631	-22,5	-3,499
916,575	-22,5	-3,478
918,549	-16	-3,232
993,85	-17	-2,858
995,788	-22,5	-3,499
997,744	-22,5	-3,48
999,7	-15,5	-3,189
1001,68	-9,5	-2,495
1003,636	-4	-1,555
1005,586	1,5	-0,576
1007,536	4	-0,001
1009,497	4	-0,019
1011,441	1	-0,31
1013,391	-2,5	-1,258
1015,359	-8,5	-2,072
1017,309	-18,5	-2,982
1019,241	-22,5	-3,498
1021,203	-20,5	-3,465
1023,147	-12,5	-2,886
1025,079	-5,5	-1,897
1027,035	-2	-1,013
1028,996	4	-0,07
1030,952	4	-0,005
1032,896	2,5	-0,106
1034,828	-1,5	-1,034
1036,79	-7	-1,905
1038,728	-17,5	-2,902
1040,696	-22,5	-3,499
1042,64	-22	-3,48
1044,583	-14	-3,014
1046,533	-7	-2,157
1048,465	-2,5	-1,128
1050,415	4	-0,089
1052,359	4	-0,005
1054,291	2	-0,162
1056,235	-1,5	-1,048
1058,185	-9	-2,047
1060,135	-20	-3,053
1062,09	-22,5	-3,499
1064,052	-22	-3,481
1066,008	-16,5	-3,232
1068,342	-22	-3,489
1070,298	-16	-3,294
1072,272	-9	-2,53
1074,252	-4,5	-1,754
1076,202	0	-0,839
1078,134	4	0
1080,077	4	-0,013
1082,045	1,5	-0,2
1083,995	-2	-1,071
1085,939	-9	-2,026
1087,901	-19,5	-2,924
1089,857	-22,5	-3,499
1091,801	-22	-3,482
1093,751	-15	-3,137
1095,754	-7,5	-2,356
1097,698	-3	-1,425
1099,642	3	-0,454
1101,592	4	-0,002
1103,536	3,5	-0,032
1105,48	0	-0,597
1107,424	-5	-1,622
1109,362	-13	-2,49
1111,318	-22,5	-3,462
1113,244	-22	-3,492
1115,211	-19,5	-3,41
1117,161	-10	-2,602
1119,093	-4	-1,63
1121,061	-0,5	-0,747
1122,999	4	-0,001
1124,955	3,5	-0,016
1126,911	1,5	-0,213
1128,873	-3	-1,115
1130,841	-7,5	-1,956
1132,779	-20	-2,968
1134,734	-22,5	-3,499
1136,69	-22	-3,479
1138,646	-15	-3,124
1140,602	-7	-2,218
1142,552	-3	-1,314
1144,493	3,5	-0,333
1146,434	4	-0,003
1148,39	3,5	-0,046
1150,327	0	-0,69
1152,277	-5,5	-1,632
1154,239	-14	-2,614
1156,183	-22	-3,5
1158,139	-22	-3,49
1160,095	-18	-3,367
1162,039	-9	-2,468
1164,001	-3,5	-1,527
1165,969	0	-0,74
1167,924	4	0
1169,862	4	-0,012
1171,818	2	-0,183
1173,768	-2	-1,108
1175,712	-9	-2,057
1177,656	-20,5	-2,928
1179,618	-22	-3,499
1181,568	-21,5	-3,476
1183,524	-14,5	-3,079
1185,473	-6	-2,164
1187,423	-2,5	-1,267
1189,391	3,5	-0,36
1191,347	4	-0,002
1193,291	3,5	-0,05
1195,247	0	-0,648
1197,203	-4	-1,522
1199,147	-13	-2,478
1201,097	-22	-3,471
1203,046	-22	-3,494
1204,99	-17	-3,334
1206,953	-9	-2,544
1208,938	-4,5	-1,804
1210,864	0	-0,679
1212,814	3,5	-0,001
1214,752	3,5	-0,019
1216,702	1	-0,367
1218,645	-3,5	-1,376
1220,583	-11	-2,314
1222,539	-22	-3,256
1224,471	-22	-3,496
1226,427	-20	-3,434
1228,371	-10,5	-2,731
1230,321	-4,5	-1,841
1232,253	-0,5	-0,821
1234,197	4	-0,001
1236,153	3,5	-0,012
1238,102	1,5	-0,224
1240,052	-2,5	-1,192
1241,99	-10,5	-2,224
1243,94	-21,5	-3,189
1245,872	-22	-3,497
1247,816	-20	-3,432
1249,772	-11	-2,816
1251,722	-5	-1,901
1253,665	-1,5	-0,961
1255,609	4	-0,004
1257,547	3,5	-0,008
1259,503	2,5	-0,125
1261,459	-1	-0,938
1263,397	-6,5	-1,896
1265,347	-17,5	-2,849
1267,315	-22	-3,499
1269,253	-21,5	-3,481
1271,196	-15	-3,166
1273,14	-6,5	-2,21
1275,096	-3	-1,351
1277,028	4	-0,28
1278,978	4	-0,003
1280,916	3	-0,064
1282,86	-0,5	-0,768
1284,804	-5,5	-1,706
1286,772	-14,5	-2,648
1288,734	-22	-3,496
1290,701	-22	-3,496
1292,645	-19	-3,408
1294,613	-10,5	-2,718
1296,551	-5	-1,861
1298,507	-1	-0,933
1300,463	4	0
1302,389	4	-0,01
1304,345	1,5	-0,214
1306,289	-2,5	-1,164
1308,239	-7,5	-1,972
1310,182	-19,5	-2,897
1312,15	-22	-3,499
1314,1	-21,5	-3,487
1316,044	-15	-3,177
1318	-8	-2,419
1319,944	-3	-1,467
1321,894	2,5	-0,444
1323,849	4	-0,002
1325,805	3,5	-0,018
1327,761	0,5	-0,294
1329,706	-3	-1,233
1331,643	-10,5	-2,272
1333,599	-21,5	-3,234
1335,537	-21,5	-3,497
1337,493	-20,5	-3,442
1339,449	-12	-2,846
1341,386	-4,5	-1,866
1343,343	-1	-0,932
1345,286	3,5	0
1347,242	3,5	-0,007
1349,192	2,5	-0,119
1351,124	-1,5	-1,047
1353,086	-7	-1,924
1355,036	-16,5	-2,843
1356,986	-21,5	-3,499
1358,93	-21,5	-3,485
1360,867	-15	-3,197
1362,805	-6	-2,195
1364,749	-2,5	-1,261
1366,681	3,5	-0,186
1368,667	4	-0,003
1370,611	3,5	-0,042
1372,555	0	-0,652
1374,499	-4,5	-1,612
1376,449	-13,5	-2,596
1378,387	-21,5	-3,5
1380,342	-21,5	-3,49
1382,298	-16,5	-3,332
1384,236	-8	-2,426
1386,192	-3	-1,487
1388,124	3	-0,456
1390,062	4	-0,002
1391,994	3,5	-0,047
1393,938	0	-0,557
1395,87	-3,5	-1,502
1397,831	-11	-2,414
1399,763	-21,5	-3,489
1401,713	-21,5	-3,496
1403,652	-19	-3,399
1405,607	-10	-2,61
1407,533	-3	-1,528
1409,477	2,5	-0,498
1411,439	4	-0,001
1413,371	3,5	-0,03
1415,325	0,5	-0,478
1417,276	-3	-1,407
1419,226	-10,5	-2,365
1421,164	-21,5	-3,287
1423,12	-21	-3,497
1425,046	-19,5	-3,444
1427,008	-10,5	-2,712
1428,963	-4,5	-1,758
1430,895	0	-0,786
1432,845	4	0
1434,777	4	-0,01
1436,727	1,5	-0,188
1438,671	-1,5	-1,082
1440,615	-7,5	-2,052
1442,553	-17,5	-2,932
1444,497	-21,5	-3,499
1446,428	-21	-3,469
1448,385	-14,5	-3,097
1450,316	-5	-2,019
1452,29	-2,5	-1,256
1454,246	2	-0,477
1456,202	4	-0,002
1458,146	4	-0,031
1460,096	0	-0,519
1462,028	-3,5	-1,545
1463,983	-12	-2,494
1465,916	-21,5	-3,497
1467,877	-21	-3,496
1469,827	-19,5	-3,414
1471,765	-9,5	-2,61
1473,733	-4	-1,77
1475,665	-0,5	-0,781
1477,615	4	-0,001
1479,559	4	-0,013
1481,514	1,5	-0,222
1483,464	-1,5	-1,116
1485,408	-8	-2,123
1487,364	-19,5	-3,02
1489,308	-21,5	-3,498
1491,264	-20,5	-3,471
1493,202	-13	-2,95
1495,146	-5	-2,037
1497,09	-2	-1,141
1499,027	4	-0,186
1500,965	4	-0,005
1502,921	3	-0,083
1504,853	-0,5	-0,854
1506,803	-5	-1,755
1508,729	-15,5	-2,8
1510,703	-21	-3,5
1512,635	-21	-3,486
1514,579	-14,5	-3,317
1516,535	-7	-2,354
1518,49	-3	-1,496
1520,416	2	-0,435
1522,36	4	-0,002
1524,316	4	-0,03
1526,26	0,5	-0,549
1528,192	-3,5	-1,496
1530,154	-11	-2,372
1532,098	-21	-3,321
1534,048	-21	-3,497
1535,985	-19	-3,412
1537,953	-10,5	-2,779
1539,885	-4	-1,716
1541,859	-1	-0,895
1543,791	4	-0,001
1545,723	4	-0,014
1547,679	1,5	-0,253
1549,623	-2	-1,282
1551,578	-9	-2,252
1553,505	-21	-3,292
1555,454	-21	-3,497
1557,386	-18,5	-3,426
1559,342	-9,5	-2,7
1561,286	-3,5	-1,76
1563,236	-0,5	-0,845
1565,162	4	-0,001
1567,112	4	-0,017
1569,056	1	-0,303
1571,005	-2	-1,222
1572,949	-9,5	-2,199
1574,887	-21	-3,197
1576,831	-21	-3,498
1578,787	-19,5	-3,458
1580,731	-12	-3,006
1582,693	-5,5	-2,141
1584,625	-1,5	-1,088
1586,575	4	-0,071
1588,512	4	-0,006
1590,468	3	-0,086
1592,4	-0,5	-0,838
1594,344	-5,5	-1,748
1596,276	-15,5	-2,787
1598,202	-21	-3,499
1600,152	-21	-3,482
1602,09	-12,5	-3,062
1604,045	-5,5	-2,125
1605,983	-1,5	-1,122
1607,933	4	-0,208
1609,865	4	-0,004
1611,809	3	-0,076
1613,747	-0,5	-0,793
1615,685	-6	-1,821
1617,617	-16,5	-2,864
1619,561	-21	-3,499
1621,498	-20,5	-3,476
1623,46	-14	-3,178
1625,392	-5,5	-2,094
1627,324	-1	-1,025
1629,274	4	-0,03
1631,2	4	-0,009
1633,156	1,5	-0,198
1635,088	-2,5	-1,173
1637,05	-7,5	-2,028
1638,993	-19	-3,031
1640,943	-21	-3,498
1642,881	-20,5	-3,466
1644,825	-10,5	-2,844
1646,769	-4,5	-1,841
1648,713	-1	-0,918
1650,645	4	-0,001
1652,589	4	-0,009
1654,521	1	-0,204
1656,465	-1,5	-1,027
1658,433	-5,5	-1,808
1660,376	-16,5	-2,822
1662,314	-21	-3,499
1664,258	-21	-3,48
1666,22	-15	-3,245
1668,152	-6	-2,203
1670,09	-2	-1,17
1672,046	4	-0,279
1673,996	4	-0,003
1675,928	3,5	-0,064
1677,853	-0,5	-0,863
1679,809	-5,5	-1,811
1681,753	-15	-2,767
1683,691	-21	-3,499
1685,629	-21	-3,482
1687,573	-14,5	-3,246
1689,523	-6	-2,298
1691,455	-2	-1,283
1693,404	4	-0,334
1695,336	4	-0,004
1697,28	3	-0,069
1699,206	-0,5	-0,81
1701,144	-6	-1,812
1703,1	-15	-2,67
1705,032	-21	-3,499
1706,976	-21	-3,488
1708,908	-15	-3,265
1710,846	-7	-2,291
1712,789	-2,5	-1,383
1714,753	2,5	-0,47
1716,689	4	-0,002
1718,651	3,5	-0,029
1720,589	0,5	-0,533
1722,527	-3,5	-1,441
1724,465	-11,5	-2,462
1726,421	-21	-3,355
1728,371	-21	-3,496
1730,302	-17,5	-3,398
1732,288	-10	-2,762
1734,238	-3,5	-1,756
1736,188	-0,5	-0,831
1738,144	4	0
1740,094	4	-0,008
1742,032	1,5	-0,185
1743,964	-1,5	-1,158
1745,919	-7,5	-2,053
1747,866	-18,5	-3,046
1749,795	-21	-3,498
1751,727	-19,5	-3,444
1753,701	-11,5	-2,966
1755,639	-4,5	-1,976
1757,589	-1,5	-1,103
1759,533	3,5	-0,083
1761,465	4	-0,007
1763,39	1,5	-0,202
1765,322	-1,5	-1,187
1767,278	-8	-2,075
1769,204	-19	-3,074
1771,136	-21	-3,498
1773,086	-19,5	-3,451
1775,018	-10	-2,807
1776,956	-4	-1,848
1778,893	-0,5	-0,862
1780,831	4	0
1782,781	4	-0,008
1784,713	1,5	-0,201
1786,669	-1	-1,024
1788,607	-7	-2,037
1790,551	-18	-2,978
1792,483	-21	-3,499
1794,427	-20,5	-3,476
1796,365	-13	-3,052
1798,297	-5	-2,128
1800,234	-1,5	-1,11
1802,178	4	-0,152
1804,11	4	-0,004
1806,054	3	-0,087
1807,992	-1	-0,936
1809,924	-6	-1,962
1811,868	-16	-2,876
1813,8	-21	-3,499
1815,737	-20	-3,473
1817,669	-12	-2,972
1819,602	-5	-1,993
1821,545	-1,5	-1,033
1823,483	4	-0,036
1825,427	4	-0,006
1827,383	2,5	-0,122
1829,309	-1,5	-1,112
1831,24	-8,5	-2,202
1833,184	-20	-3,174
1835,122	-21	-3,497
1837,066	-19	-3,43
1838,998	-9	-2,57
1840,936	-3,5	-1,58
1842,88	0	-0,65
1844,806	4	-0,002
1846,762	4	-0,022
1848,724	0,5	-0,388
1850,655	-3	-1,407
1852,605	-9	-2,237
1854,531	-21	-3,288
1856,457	-21	-3,496
1858,389	-17,5	-3,382
1860,321	-8,5	-2,548
1862,253	-3	-1,59
1864,185	1	-0,59
1866,122	4	-0,002
1868,055	3,5	-0,032
1869,98	0	-0,682
1871,93	-4,5	-1,602
1873,868	-13	-2,577
1875,8	-21	-3,5
1877,738	-20,5	-3,487
1879,664	-14	-3,162
1881,59	-5	-2,089
1883,527	-1,5	-1,135
1885,465	3,5	-0,308
1887,391	4	-0,004
1889,335	3	-0,083
1891,273	-0,5	-0,918
1893,205	-6	-1,885
1895,149	-16,5	-2,899
1897,075	-20,5	-3,498
1899,001	-20	-3,466
1900,939	-11,5	-2,899
1902,865	-4	-1,852
1904,79	0	-0,739
1906,716	4	-0,001
1908,66	4	-0,024
1910,586	0,5	-0,507
1912,542	-2,5	-1,375
1914,468	-10,5	-2,415
1916,394	-20,5	-3,483
1918,326	-20,5	-3,492
1920,269	-15,5	-3,338
1922,207	-7	-2,415
1924,175	-3	-1,557
1926,119	1	-0,576
1928,063	4	-0,002
1930,001	4	-0,022
1931,933	0,5	-0,489
1933,883	-3	-1,447
1935,821	-11,5	-2,501
1937,752	-20,5	-3,466
1939,696	-20,5	-3,493
1941,64	-17,5	-3,377
1943,572	-8	-2,47
1945,516	-3	-1,513
1947,448	2,5	-0,464
1949,416	4	-0,002
1951,348	3,5	-0,028
1953,274	0	-0,644
1955,217	-4	-1,649
1957,149	-13	-2,69
1959,081	-20,5	-3,499
1961,013	-20	-3,482
1962,969	-15	-3,237
1964,895	-6	-2,228
1966,821	-2	-1,225
1968,759	3,5	-0,345
1970,691	4	-0,004
1972,623	3	-0,096
1974,548	-0,5	-0,972
1976,492	-5,5	-1,901
1978,43	-15	-2,892
1980,356	-20,5	-3,498
1982,288	-20	-3,463
1984,214	-10,5	-2,796
1986,158	-4	-1,805
1988,114	-1	-0,892
1990,045	4	0
1991,971	4	-0,014
1993,909	1	-0,305
1995,835	-2,5	-1,361
1997,762	-10,5	-2,401
1999,687	-20,5	-3,498
2001,619	-20,5	-3,489
2003,551	-15	-3,255
2005,477	-5,5	-2,224
2007,408	-2	-1,216
2009,346	3,5	-0,152
2011,278	4	-0,005
2013,21	2,5	-0,151
2015,142	-2	-1,177
2017,074	-7,5	-2,182
2019,006	-19,5	-3,194
2020,944	-20	-3,497
2022,876	-15,5	-3,412
2024,808	-9	-2,603
2026,763	-3	-1,676
2028,695	0	-0,702
2030,627	4	-0,001
2032,571	4	-0,018
2034,503	0,5	-0,462
2036,453	-2,5	-1,388
2038,397	-9,5	-2,364
2040,323	-20	-3,433
2042,255	-20	-3,492
2044,18	-14	-3,253
2046,124	-6	-2,263
2048,056	-1,5	-1,21
2049,994	3	-0,373
2051,926	4	-0,003
2053,882	3,5	-0,049
2055,82	0	-0,748
2057,746	-4,5	-1,75
2059,678	-15	-2,761
2061,621	-20	-3,499
2063,559	-19,5	-3,485
2065,503	-13,5	-3,174
2067,441	-5	-2,135
2069,379	-1	-1,124
2071,311	4	-0,041
2073,255	4	-0,005
2075,181	2	-0,118
2077,112	-1	-1,074
2079,039	-8	-2,136
2080,982	-18,5	-3,083
2082,908	-20	-3,498
2084,834	-18	-3,444
2086,832	-12	-3,123
2088,758	-4,5	-2,093
2090,69	-1,5	-1,088
2092,616	4	-0,057
2094,554	4	-0,007
2096,48	1,5	-0,21
2098,411	-1,5	-1,181
2100,367	-7,5	-2,14
2102,293	-20	-3,275
2104,219	-19,5	-3,496
2106,151	-15,5	-3,357
2108,083	-6,5	-2,379
2110,015	-2	-1,326
2111,946	4	-0,294
2113,908	4	-0,003
2115,834	3,5	-0,056
2117,772	0	-0,705
2119,716	-4	-1,597
2121,648	-11,5	-2,548
2123,574	-19,5	-3,5
2125,536	-20	-3,492
2127,474	-14,5	-3,32
2129,417	-7	-2,469
2131,349	-2,5	-1,427
2133,275	4	-0,332
2135,207	4	-0,004
2137,145	3	-0,075
2139,077	0	-0,882
2141,003	-5,5	-1,942
2142,929	-17	-2,958
2144,867	-19,5	-3,499
2146,805	-19	-3,472
2148,742	-11	-2,977
2150,698	-5	-2,114
2152,63	-1,5	-1,114
2154,562	4	-0,094
2156,494	4	-0,008
2158,42	1,5	-0,217
2160,358	-1	-1,168
2162,284	-8,5	-2,239
2164,234	-19,5	-3,172
2166,165	-19,5	-3,497
2168,109	-17,5	-3,434
2170,047	-9	-2,752
2171,979	-3	-1,711
2173,911	2	-0,674
2175,849	4	-0,001
2177,775	4	-0,027
2179,707	0	-0,56
2181,632	-3,5	-1,592
2183,583	-12	-2,606
2185,532	-19,5	-3,5
2187,476	-19,5	-3,493
2189,402	-15,5	-3,363
2191,328	-5,5	-2,345
2193,254	-2	-1,224
2195,198	3,5	-0,331
2197,124	4	-0,003
2199,061	3,5	-0,067
2200,993	0	-0,678
2202,955	-3,5	-1,672
2204,899	-12	-2,627
2206,825	-19,5	-3,499
2208,757	-19,5	-3,477
2210,689	-11,5	-3,092
2212,615	-5	-2,11
2214,571	-1,5	-1,22
2216,526	4	-0,237
2218,47	4	-0,004
2220,402	3	-0,091
2222,346	-0,5	-0,875
2224,272	-5,5	-1,968
2226,198	-17,5	-3,058
2228,13	-19,5	-3,498
2230,062	-18,5	-3,453
2231,994	-9,5	-2,782
2233,926	-3	-1,708
2235,857	1	-0,635
2237,783	4	-0,002
2239,709	3,5	-0,039
2241,641	0	-0,682
2243,579	-3,5	-1,651
2245,511	-12	-2,656
2247,443	-19,5	-3,499
2249,381	-19,5	-3,482
2251,325	-11,5	-3,092
2253,251	-4,5	-2,026
2255,194	-1	-1,032
2257,144	4	-0,152
2259,07	4	-0,006
2261,002	1,5	-0,18
2262,946	-1,5	-1,172
2264,878	-8	-2,257
2266,81	-18,5	-3,178
2268,754	-19,5	-3,497
2270,686	-17,5	-3,438
2272,611	-8	-2,612
2274,543	-3	-1,645
2276,475	0,5	-0,65
2278,407	4	-0,001
2280,333	3,5	-0,036
2282,265	0	-0,64
2284,209	-3	-1,601
2286,14	-12	-2,643
2288,072	-19,5	-3,5
2289,998	-19	-3,484
2291,936	-12	-3,131
2293,868	-5	-2,169
2295,8	-1	-1,08
2297,726	4	0
2299,658	4	-0,009
2301,584	1,5	-0,241
2303,51	-1	-1,218
2305,435	-7,5	-2,202
2307,386	-18	-3,138
2309,323	-19	-3,497
2311,261	-17,5	-3,434
2313,187	-8,5	-2,638
2315,119	-2,5	-1,585
2317,051	0,5	-0,643
2318,989	4	-0,001
2320,915	3,5	-0,023
2322,84	0,5	-0,461
2324,772	-2,5	-1,504
2326,716	-9,5	-2,4
2328,648	-19	-3,483
2330,574	-19,5	-3,49
2332,518	-13,5	-3,261
2334,444	-5,5	-2,317
2336,376	-2	-1,36
2338,302	3,5	-0,36
2340,234	4	-0,003
2342,171	3,5	-0,073
2344,103	-0,5	-0,908
2346,071	-4,5	-1,822
2348,003	-14	-2,768
2349,941	-19,5	-3,499
2351,867	-19	-3,479
2353,805	-12	-3,11
2355,737	-4,5	-2,101
2357,662	-1	-1,034
2359,606	4	0
2361,544	4	-0,008
2363,476	1,5	-0,23
2365,402	-2	-1,337
2367,34	-8,5	-2,3
2369,266	-19	-3,37
2371,192	-19	-3,493
2373,118	-13,5	-3,281
2375,057	-6	-2,334
2376,987	-2	-1,331
2378,913	3,5	-0,288
2380,839	4	-0,004
2382,778	3	-0,104
2384,709	0	-0,983
2386,641	-4,5	-1,96
2388,573	-15	-2,902
2390,505	-19	-3,499
2392,431	-18	-3,462
2394,362	-10	-2,866
2396,3	-3,5	-1,884
2398,232	-0,5	-0,896
2400,158	4	-0,001
2402,09	4	-0,011
2404,028	1,5	-0,238
2405,96	-1	-1,228
2407,904	-7	-2,235
2409,83	-18,5	-3,246
2411,773	-18,5	-3,497
2413,699	-16,5	-3,393
2415,631	-6,5	-2,524
2417,569	-2,5	-1,549
2419,495	2,5	-0,503
2421,421	4	-0,002
2423,347	3,5	-0,05
2425,285	0	-0,708
2427,216	-3,5	-1,707
2429,148	-12	-2,723
2431,074	-19	-3,499
2433,012	-18,5	-3,482
2434,944	-12	-3,153
2436,87	-5	-2,134
2438,796	-1	-1,083
2440,728	4	-0,026
2442,666	4	-0,008
2444,591	2	-0,172
2446,517	-0,5	-1,112
2448,443	-6,5	-2,226
2450,387	-18,5	-3,27
2452,319	-18,5	-3,496
2454,245	-14,5	-3,376
2456,171	-7	-2,556
2458,121	-2,5	-1,566
2460,053	2,5	-0,518
2461,978	4	-0,002
2463,916	4	-0,045
2465,842	0	-0,805
2467,786	-4,5	-1,888
2469,713	-14,5	-2,897
2471,65	-18,5	-3,499
2473,576	-18	-3,468
2475,508	-9	-2,847
2477,434	-3	-1,743
2479,371	0	-0,778
2481,297	4	-0,001
2483,241	4	-0,016
2485,209	1,5	-0,224
2487,153	-1,5	-1,244
2489,085	-6,5	-2,207
2491,011	-18	-3,18
2492,937	-18,5	-3,498
2494,881	-16,5	-3,421
2496,831	-7,5	-2,722
2498,762	-3	-1,734
2500,688	1	-0,62
2502,632	4	-0,002
2504,564	4	-0,032
2506,496	0,5	-0,602
2508,434	-2,5	-1,567
2510,384	-9,5	-2,524
2512,316	-18,5	-3,5
2514,242	-18	-3,486
2516,167	-11,5	-3,126
2518,105	-4,5	-2,141
2520,037	-1,5	-1,104
2521,969	4	-0,026
2523,907	4	-0,006
2525,833	2,5	-0,155
2527,765	-0,5	-1,093
2529,691	-6,5	-2,197
2531,617	-17,5	-3,235
2533,554	-18	-3,497
2535,486	-16	-3,421
2537,418	-7,5	-2,706
2539,35	-2,5	-1,676
2541,288	1	-0,69
2543,214	4	-0,001
2545,14	4	-0,024
2547,066	0,5	-0,572
2548,997	-2,5	-1,572
2550,953	-8,5	-2,504
2552,885	-17	-3,5
2554,817	-16,5	-3,49
2556,743	-11	-3,251
2558,687	-5	-2,381
2560,619	-1,5	-1,456
2562,551	3,5	-0,387
2564,489	4,5	-0,003
2566,414	3,5	-0,063
2568,346	0	-0,751
2570,278	-3	-1,755
2572,21	-11	-2,776
2574,142	-16,5	-3,499
2576,08	-16	-3,48
2578,018	-10	-3,118
2579,956	-3,5	-2,088
2581,888	-0,5	-1,072
2583,82	4	-0,006
2585,745	4	-0,009
2587,672	1,5	-0,237
2589,597	-0,5	-1,208
2591,547	-6	-2,186
2593,479	-16,5	-3,21
2595,411	-16,5	-3,496
2597,337	-14	-3,409
2599,281	-6	-2,635
2601,213	-2	-1,582
2603,138	3	-0,425
2605,064	4	-0,003
2607,002	3,5	-0,054
2608,934	0	-0,773
2610,872	-3	-1,768
2612,804	-11,5	-2,762
2614,748	-16,5	-3,499
2616,68	-16,5	-3,483
2618,606	-9,5	-3,158
2620,537	-4	-2,159
2622,475	-1	-1,201
2624,401	4	-0,112
2626,339	4	-0,006
2628,265	2	-0,177
2630,203	-0,5	-1,104
2632,159	-4,5	-2,047
2634,085	-15,5	-3,129
2636,017	-16	-3,497
2637,96	-14	-3,428
2639,886	-6	-2,671
2641,812	-2	-1,631
2643,744	3	-0,535
2645,67	4	-0,002
2647,608	3,5	-0,037
2649,54	0,5	-0,673
2651,466	-2,5	-1,748
2653,392	-10	-2,753
2655,329	-15,5	-3,499
2657,256	-15	-3,478
2659,181	-9	-3,104
2661,113	-3,5	-2,141
2663,051	-1	-1,102
2664,989	4	-0,13
2666,921	4	-0,006
2668,853	2,5	-0,143
2670,785	0	-1,096
2672,729	-3,5	-2,067
2674,654	-14,5	-3,162
2676,586	-14,5	-3,497
2678,512	-12	-3,407
2680,444	-5	-2,595
2682,376	-1,5	-1,542
2684,302	3	-0,47
2686,234	4	-0,002
2688,178	4	-0,024
2690,109	1	-0,492
2692,035	-1,5	-1,59
2693,961	-8,5	-2,647
2695,893	-14,5	-3,5
2697,825	-14	-3,483
2699,763	-8,5	-3,106
2701,689	-3	-2,081
2703,621	-0,5	-1,108
2705,571	4	-0,189
2707,496	4	-0,005
2709,428	3	-0,116
2711,354	0	-1,107
2713,292	-3	-2,075
2715,224	-13	-3,103
2717,15	-14,5	-3,497
2719,082	-12,5	-3,414
2721,014	-4,5	-2,563
2722,952	-1,5	-1,616
2724,877	2,5	-0,542
2726,803	4	-0,002
2728,735	3,5	-0,05
2730,667	1	-0,716
2732,599	-1,5	-1,663
2734,537	-8	-2,686
2736,463	-13,5	-3,499
2738,389	-13,5	-3,478
2740,333	-7,5	-3,09
2742,276	-3	-2,112
2744,232	-0,5	-1,164
2746,164	4	-0,141
2748,096	4	-0,005
2750,022	2,5	-0,134
2751,966	0	-1,051
2753,892	-3	-2,102
2755,818	-12	-3,175
2757,744	-13	-3,497
2759,67	-11	-3,415
2761,613	-4,5	-2,665
2763,545	-1,5	-1,67
2765,477	0,5	-0,687
2767,421	4	-0,001
2769,353	4	-0,021
2771,279	1,5	-0,485
2773,223	-0,5	-1,462
2775,161	-4,5	-2,452
2777,092	-13	-3,451
2779,024	-13	-3,493
2780,968	-8,5	-3,345
2782,918	-3,5	-2,414
2784,85	-1	-1,399
2786,806	2,5	-0,502
2788,738	4	-0,002
2790,67	3,5	-0,047
2792,614	1	-0,613
2794,54	-0,5	-1,648
2796,465	-7	-2,747
2798,391	-13	-3,499
2800,317	-12,5	-3,478
2802,249	-6	-3,01
2804,175	-2	-1,87
2806,107	0	-0,854
2808,033	4	-0,001
2809,965	4	-0,016
2811,891	1,5	-0,423
2813,816	0	-1,512
2815,742	-5,5	-2,578
2817,686	-12,5	-3,5
2819,618	-12,5	-3,488
2821,55	-7,5	-3,222
2823,476	-3	-2,188
2825,402	-0,5	-1,117
2827,34	4	-0,101
2829,265	4	-0,007
2831,197	2,5	-0,148
2833,123	0	-1,148
2835,073	-1,5	-2,057
2836,999	-11	-3,108
2838,931	-12,5	-3,497
2840,887	-11,5	-3,45
2842,819	-4,5	-2,741
2844,751	-1,5	-1,756
2846,683	1	-0,682
2848,608	4	-0,001
2850,552	4	-0,025
2852,484	1,5	-0,501
2854,416	-0,5	-1,523
2856,342	-5	-2,562
2858,28	-12,5	-3,5
2860,212	-12,5	-3,488
2862,138	-7,5	-3,212
2864,07	-3	-2,197
2866,007	-0,5	-1,217
2867,939	3,5	-0,333
2869,871	4	-0,004
2871,797	3	-0,082
2873,729	0,5	-0,888
2875,655	-1	-1,938
2877,611	-6	-2,812
2879,549	-11,5	-3,499
2881,481	-11,5	-3,479
2883,43	-7	-3,141
2885,362	-2,5	-2,088
2887,289	0	-1,032
2889,22	4	-0,026
2891,17	4	-0,006
2893,096	2	-0,195
2895,028	0	-1,203
2896,96	-3	-2,301
2898,904	-11,5	-3,382
2900,847	-12	-3,495
2902,779	-9	-3,388
2904,711	-3,5	-2,52
2906,643	-1	-1,483
2908,587	3	-0,442
2910,513	4	-0,003
2912,457	3,5	-0,048
2914,389	1	-0,762
2916,333	-0,5	-1,702
2918,264	-5,5	-2,717
2920,19	-11,5	-3,499
2922,128	-11,5	-3,483
2924,066	-6	-3,147
2925,998	-2,5	-2,121
2927,93	-0,5	-1,042
2929,88	4	-0,07
2931,806	4	-0,008
2933,744	2	-0,225
2935,67	0	-1,277
2937,601	-3	-2,372
2939,527	-11,5	-3,347
2941,459	-11,5	-3,495
2943,409	-9,5	-3,388
2945,335	-3	-2,466
2947,291	-1	-1,556
2949,223	3	-0,469
2951,166	4	-0,002
2953,098	3,5	-0,051
2955,03	1	-0,732
2956,956	-0,5	-1,782
2958,882	-7,5	-2,882
2960,826	-11,5	-3,499
2962,752	-10,5	-3,463
2964,678	-4,5	-2,809
2966,604	-1	-1,694
2968,536	1	-0,663
2970,461	4	-0,002
2972,387	4	-0,03
2974,325	1,5	-0,586
2976,257	-0,5	-1,613
2978,195	-4,5	-2,608
2980,121	-11,5	-3,499
2982,053	-11	-3,481
2983,985	-6,5	-3,147
2985,917	-2	-2,101
2987,842	0	-1,05
2989,768	4	-0,004
2991,694	4	-0,009
2993,62	2	-0,23
2995,546	0	-1,258
2997,484	-2	-2,227
2999,416	-10,5	-3,234
3001,348	-11	-3,496
3003,292	-9	-3,41
3005,217	-3	-2,5
3007,143	-1	-1,486
3009,075	2	-0,54
3011,007	4	-0,002
3012,939	3,5	-0,038
3014,877	1	-0,687
3016,809	0	-1,697
3018,735	-5,5	-2,827
3020,679	-10,5	-3,499
3022,61	-10	-3,476
3024,548	-5	-3,001
3026,48	-1,5	-1,99
3028,418	0	-1,006
3030,35	4	0
3032,282	4	-0,009
3034,214	2	-0,206
3036,152	0,5	-1,146
3038,078	-2,5	-2,245
3040,009	-10	-3,187
3041,935	-10,5	-3,497
3043,867	-8,5	-3,424
3045,805	-3	-2,605
3047,737	-1	-1,59
3049,669	2	-0,59
3051,607	4	-0,001
3053,533	4	-0,03
3055,471	1,5	-0,598
3057,403	0	-1,56
3059,328	-4,5	-2,712
3061,254	-10,5	-3,499
3063,192	-10	-3,479
3065,118	-4	-2,975
3067,044	-1	-1,854
3068,982	0	-0,937
3070,908	4	0
3072,858	4,5	-0,008
3074,789	2	-0,204
3076,763	1	-0,973
3078,695	-1	-1,978
3080,627	-8	-2,978
3082,565	-10	-3,498
3084,503	-9,5	-3,466
3086,447	-4	-2,912
3088,391	-1	-1,892
3090,347	0	-1,04
3092,278	4	-0,025
3094,21	4	-0,008
3096,142	2	-0,272
3098,068	0	-1,378
3100,012	-2,5	-2,382
3101,944	-10	-3,483
3103,876	-10	-3,492
3105,808	-6	-3,294
3107,782	-2,5	-2,535
3109,707	-0,5	-1,456
3111,633	3,5	-0,368
3113,565	4	-0,003
3115,491	2,5	-0,085
3117,435	1	-0,899
3119,367	-0,5	-1,867
3121,293	-8	-2,944
3123,231	-10	-3,499
3125,169	-9,5	-3,469
3127,095	-3,5	-2,84
3129,02	-1	-1,799
3130,952	1	-0,693
3132,914	4	-0,001
3134,858	4	-0,015
3136,79	1,5	-0,326
3138,734	0	-1,313
3140,672	-2	-2,283
3142,598	-10	-3,315
3144,523	-10	-3,495
3146,449	-6,5	-3,354
3148,381	-2	-2,515
3150,313	-0,5	-1,44
3152,245	3,5	-0,435
3154,177	4,5	-0,003
3156,103	3,5	-0,062
3158,041	1	-0,747
3159,967	0	-1,775
3161,892	-5,5	-2,852
3163,824	-10	-3,499
3165,75	-9	-3,469
3167,688	-3,5	-2,922
3169,62	-1	-1,907
3171,552	0	-0,843
3173,484	4	-0,001
3175,41	3,5	-0,02
3177,342	1,5	-0,437
3179,273	0	-1,489
3181,199	-3,5	-2,562
3183,125	-10	-3,5
3185,057	-10	-3,484
3186,989	-4,5	-3,13
3188,921	-1,5	-2,098
3190,865	0	-1,08
3192,803	4	-0,082
3194,729	4	-0,008
3196,654	1,5	-0,247
3198,587	0	-1,314
3200,518	-2,5	-2,403
3202,456	-10	-3,466
3203,488	4	-0,001