File: ensaios_Ciclicos/_20perc/_2gap/entrada/_3.txt
Time (s)	Load (N)	Displacement (mm)
42,21	-5,5	-0,869
44,477	0	-0,232
46,689	1,5	-0,072
48,927	3	-0,012
51,131	3	-0,004
53,38	3	0
55,535	3	-0,036
57,815	-3	-0,895
60,406	-22,5	-3,212
62,722	-29	-3,481
64,984	-29	-3,497
67,186	-29	-3,499
69,412	-29	-3,377
71,691	-22,5	-2,62
73,899	-17,5	-2,239
76,083	-14,5	-1,947
78,345	-7,5	-1,275
80,559	-4	-0,82
82,755	-2	-0,502
84,909	-1	-0,403
87,52	3	-0,243
89,654	2,5	-0,344
91,784	2,5	-0,369
93,98	0	-0,668
96,11	0	-0,632
98,306	-3	-0,996
100,466	-5	-1,256
102,62	-6	-1,347
104,731	-4,5	-1,168
106,946	-7,5	-1,606
109,135	-10	-1,938
111,338	-12,5	-2,252
113,497	-13,5	-2,402
116,077	-28	-3,496
118,225	-28	-3,497
120,367	-28	-3,497
122,545	-28	-3,499
124,615	-28	-3,498
126,828	-28	-3,499
129,012	-28	-3,5
131,136	-28	-3,5
133,368	-27	-3,123
135,57	-21	-2,69
137,778	-17,5	-2,38
139,968	-13,5	-2,079
142,133	-12	-1,924
144,671	2,5	-0,077
146,838	3	-0,026
149,063	3,5	-0,01
151,217	3,5	-0,008
153,347	3,5	-0,006
155,489	3,5	-0,007
157,541	3,5	-0,02
159,664	3,5	-0,018
161,74	3	-0,045
163,882	3,5	-0,037
166,006	3	-0,044
168,196	3,5	-0,018
170,278	3	-0,036
172,432	3,5	-0,017
174,934	0	-0,621
177,039	0	-0,635
179,181	-0,5	-0,688
181,324	0	-0,651
183,435	0,5	-0,566
185,565	1	-0,607
187,695	0,5	-0,566
189,801	2,5	-0,467
191,973	-1	-0,775
194,126	-2	-0,902
196,286	-3,5	-1,019
198,386	-2	-0,834
200,587	-4,5	-1,183
202,706	-4,5	-1,12
204,866	-5	-1,293
285,645	0,5	-0,55
287,709	3	-0,25
289,779	3,5	0
291,885	3,5	-0,001
293,943	4	-0,003
296,007	4	-0,01
298,076	3,5	-0,028
300,566	0,5	-0,554
302,624	3	-0,289
304,676	3,5	-0,001
306,788	3,5	-0,001
308,906	3,5	-0,001
310,988	3,5	-0,002
313,07	4	-0,005
315,158	4	-0,01
317,219	3,5	-0,025
319,327	3,5	-0,04
321,391	1,5	-0,117
361,919	3	-0,07
363,983	1	-0,203
366,053	-1	-0,513
368,11	-2,5	-0,898
370,168	-5	-1,246
372,208	-8,5	-1,64
374,26	-12,5	-2,116
376,313	-17,5	-2,532
378,328	-24,5	-3,111
380,35	-25	-3,499
382,426	-25	-3,498
384,471	-25	-3,495
386,511	-24,5	-3,481
388,557	-23	-3,425
390,639	-20	-3,326
392,698	-15,5	-2,924
394,761	-12,5	-2,596
396,825	-9	-2,228
398,919	-8	-2,124
400,971	-6	-1,783
403,004	-3,5	-1,246
405,002	1,5	-0,56
407,054	3,5	-0,221
409,112	4	-0,001
411,206	4	-0,001
413,252	3,5	-0,005
415,322	4	-0,013
417,362	3,5	-0,049
419,401	1	-0,209
421,477	0	-0,473
423,524	-2	-0,828
425,575	-3,5	-1,141
427,609	-8	-1,668
429,661	-10,5	-2,003
431,701	-16,5	-2,543
433,777	-19,5	-2,806
436,25	-3	-1,037
438,283	-6	-1,463
440,274	-12,5	-2,178
442,302	-18,5	-2,692
444,336	-24	-3,156
446,376	-24,5	-3,5
448,41	-24,5	-3,498
450,414	-24,5	-3,491
452,454	-24	-3,474
454,511	-22,5	-3,421
456,551	-18,5	-3,204
458,591	-14	-2,762
460,655	-11	-2,48
462,677	-7	-1,984
464,687	-4	-1,473
466,745	-2,5	-1,069
468,815	-0,5	-0,812
470,837	4	-0,271
472,901	3,5	0
474,928	3,5	-0,002
514,946	0	-0,488
516,986	-2	-0,925
519,014	-5,5	-1,477
521,024	-10,5	-2,012
523,04	-17	-2,585
525,055	-24	-3,16
527,065	-24	-3,499
529,063	-24	-3,495
531,093	-24	-3,478
533,089	-20	-3,353
535,105	-15	-2,886
537,109	-9	-2,251
539,131	-5,5	-1,686
541,171	-3,5	-1,232
543,18	0,5	-0,686
545,196	4	-0,084
547,2	4	-0,003
549,252	4	-0,01
551,25	3,5	-0,074
553,284	1	-0,303
555,3	-2	-0,903
557,304	-5,5	-1,58
559,325	-10,5	-2,119
561,329	-18	-2,721
563,339	-24	-3,327
565,343	-24	-3,499
567,335	-23,5	-3,492
569,339	-22,5	-3,442
571,379	-17,5	-3,253
573,371	-11,5	-2,615
575,411	-8,5	-2,23
577,403	-4,5	-1,536
579,418	-1	-0,898
581,458	2	-0,544
583,456	4	0
585,466	4	-0,005
587,489	3,5	-0,029
589,462	1	-0,365
591,874	4	-0,005
593,884	4	-0,03
595,9	1,5	-0,14
597,904	-0,5	-0,697
599,913	-4	-1,317
601,917	-9	-1,897
603,903	-16	-2,643
605,907	-23,5	-3,197
607,917	-23,5	-3,499
609,921	-23,5	-3,494
611,936	-22,5	-3,461
613,935	-16,5	-3,17
615,92	-10,5	-2,504
617,948	-7	-2,043
619,934	-3	-1,335
621,944	0	-0,746
623,948	4	-0,078
625,976	4	-0,001
627,968	4	-0,014
629,996	3,5	-0,043
631,987	0	-0,462
633,991	-2,5	-1,096
635,989	-6,5	-1,718
638,035	-11	-2,147
640,051	-16,5	-2,642
642,061	-23,5	-3,283
644,041	-23,5	-3,498
646,015	-23	-3,48
648,018	-19,5	-3,337
650,004	-12	-2,664
652,032	-8	-2,229
654	-4	-1,437
655,974	1,5	-0,61
657,979	4	0
659,97	4	-0,005
661,999	4	-0,025
663,996	1,5	-0,158
665,999	-0,5	-0,725
667,985	-4,5	-1,396
669,995	-9	-1,921
671,987	-16	-2,626
673,985	-23,5	-3,274
676,007	-23,5	-3,499
677,999	-23,5	-3,492
680,039	-23	-3,468
682,042	-19,5	-3,334
684,04	-12,5	-2,701
686,02	-6	-1,931
688	-3	-1,23
689,98	2	-0,496
691,96	4	-0,001
693,964	4	-0,009
695,956	3,5	-0,076
697,96	0	-0,42
699,94	-2,5	-0,99
701,937	-6	-1,738
703,923	-13	-2,404
705,915	-21	-3,094
707,889	-23	-3,499
709,887	-23	-3,495
711,855	-22	-3,43
713,841	-15	-2,988
715,851	-9,5	-2,426
717,818	-4,5	-1,576
719,792	0	-0,775
721,808	4	-0,155
723,806	4	-0,002
725,78	4	-0,029
727,772	1	-0,25
729,764	-1,5	-0,932
731,756	-5,5	-1,664
733,735	-13	-2,402
735,727	-23	-3,08
774,479	-1,5	-0,936
776,459	-6,5	-1,749
778,469	-12,5	-2,32
780,443	-21	-3,058
782,405	-23	-3,499
784,397	-22,5	-3,494
786,365	-20,5	-3,406
788,356	-14	-2,894
790,336	-8	-2,192
792,328	-4,5	-1,632
794,308	0	-0,829
796,3	4	-0,131
798,286	4	-0,003
800,278	4	-0,022
802,258	1	-0,23
804,22	-2	-1,018
806,229	-5,5	-1,628
808,191	-13,5	-2,373
810,225	-19	-2,823
812,199	-22,5	-3,499
814,173	-23	-3,494
816,147	-21,5	-3,449
818,139	-14	-3,027
820,125	-8	-2,372
822,128	-5	-1,743
824,102	-1,5	-0,986
826,088	4	-0,221
828,068	4	-0,002
830,066	4	-0,022
832,052	1,5	-0,187
834,038	-1	-0,838
836,018	-5,5	-1,602
838,016	-12	-2,303
839,977	-22,5	-3,154
841,963	-22,5	-3,499
843,961	-22,5	-3,491
845,935	-19,5	-3,395
847,915	-12,5	-2,828
849,901	-6	-2,082
851,893	-3	-1,32
853,873	1,5	-0,591
855,871	4	-0,001
857,85	4	-0,01
859,836	2,5	-0,086
861,81	-0,5	-0,652
863,79	-3,5	-1,338
865,758	-11	-2,184
867,738	-20	-2,949
869,706	-22,5	-3,499
871,686	-22,5	-3,494
873,666	-21	-3,437
875,657	-13,5	-2,974
877,637	-7	-2,22
879,629	-3,5	-1,484
881,609	0,5	-0,692
884,009	-6,5	-2,117
886,001	-3	-1,376
887,987	1,5	-0,608
889,949	4	-0,001
891,929	4	-0,016
893,92	1,5	-0,169
895,882	-1,5	-1,004
897,856	-6,5	-1,762
899,836	-14,5	-2,495
901,816	-22,5	-3,237
903,808	-22,5	-3,498
905,776	-22,5	-3,487
907,768	-19	-3,376
909,748	-11,5	-2,739
911,715	-5,5	-1,951
913,695	-2,5	-1,256
915,693	1,5	-0,628
917,673	4	-0,001
919,665	4	-0,006
921,651	3	-0,061
923,619	0	-0,398
925,605	-2,5	-1,085
927,597	-7	-1,738
929,57	-13,5	-2,442
931,562	-21	-3,068
933,542	-22,5	-3,499
935,534	-22,5	-3,492
937,514	-19,5	-3,439
939,488	-13,5	-2,956
941,456	-6,5	-2,173
943,454	-3,5	-1,54
945,445	-0,5	-0,862
947,437	4	-0,216
949,411	4	-0,003
951,385	3,5	-0,033
953,36	0,5	-0,39
955,351	-2	-1,048
957,331	-7	-1,823
959,299	-15	-2,653
961,267	-22,5	-3,5
963,258	-22,5	-3,497
965,226	-21,5	-3,465
967,194	-14	-3,065
969,156	-7	-2,222
971,154	-3,5	-1,493
973,122	0	-0,742
975,102	4	0
977,064	4	-0,008
979,032	2,5	-0,083
981,011	-1	-0,753
982,991	-4,5	-1,474
984,971	-10,5	-2,19
986,939	-20	-3,044
988,907	-22	-3,499
990,899	-22	-3,492
992,879	-20	-3,424
994,859	-12	-2,833
996,838	-6	-2,09
998,819	-3,5	-1,404
1000,792	1,5	-0,63
1002,748	4	-0,001
1004,728	4	-0,013
1006,72	3	-0,108
1008,688	-0,5	-0,786
1010,674	-5	-1,52
1012,654	-10,5	-2,206
1014,634	-19	-2,913
1016,607	-22	-3,499
1018,563	-22	-3,493
1020,543	-20	-3,419
1022,523	-13,5	-2,956
1024,515	-7,5	-2,219
1026,483	-3,5	-1,421
1028,457	0,5	-0,642
1030,431	4	0
1032,392	4	-0,011
1034,354	1,5	-0,143
1036,334	-1	-0,844
1038,32	-4,5	-1,552
1040,288	-12,5	-2,376
1042,268	-21,5	-3,148
1044,272	-22	-3,499
1046,24	-22	-3,488
1048,22	-18,5	-3,357
1050,175	-10	-2,562
1052,155	-5	-1,744
1054,135	-1,5	-0,936
1056,103	4	-0,152
1058,083	4	-0,004
1060,081	3,5	-0,036
1062,067	1	-0,254
1064,047	-1,5	-0,996
1066,027	-5,5	-1,698
1068,006	-13	-2,478
1069,986	-21,5	-3,126
1071,996	-22	-3,499
1073,964	-22	-3,493
1075,932	-19,5	-3,398
1077,924	-12	-2,85
1079,916	-7	-2,209
1081,902	-3,5	-1,538
1083,87	0	-0,808
1085,885	4	-0,259
1087,878	4	-0,002
1089,858	4	-0,026
1091,825	1	-0,298
1093,787	-2,5	-1,146
1095,773	-6,5	-1,898
1097,759	-15	-2,638
1099,727	-22	-3,486
1101,701	-22	-3,496
1103,662	-20,5	-3,452
1105,63	-13,5	-2,95
1107,622	-7,5	-2,286
1109,608	-3,5	-1,59
1111,582	-0,5	-0,832
1113,538	4	0
1115,512	4	-0,008
1117,492	3,5	-0,083
1119,459	0	-0,712
1121,439	-4	-1,478
1123,419	-10,5	-2,274
1125,381	-21,5	-3,189
1127,367	-21,5	-3,499
1129,335	-21,5	-3,488
1131,309	-18	-3,337
1133,277	-10	-2,606
1135,263	-5	-1,865
1137,242	-2	-1,079
1139,222	4	-0,258
1141,19	4	-0,003
1143,188	4	-0,021
1145,162	1,5	-0,258
1147,13	-1,5	-1,032
1149,115	-6	-1,773
1151,078	-15,5	-2,638
1153,04	-21,5	-3,5
1155,02	-21,5	-3,497
1157,005	-21	-3,473
1158,997	-16	-3,263
1160,965	-9	-2,461
1162,945	-4,5	-1,697
1164,925	-1,5	-0,926
1166,905	4	-0,158
1168,867	4	-0,004
1170,841	3,5	-0,04
1172,802	0	-0,496
1174,776	-3	-1,242
1176,75	-7,5	-2,016
1178,718	-16	-2,803
1180,704	-22	-3,5
1182,672	-21,5	-3,494
1184,634	-20	-3,427
1186,626	-13,5	-2,952
1188,606	-7,5	-2,214
1190,562	-3	-1,361
1192,529	0,5	-0,6
1194,528	4	-0,004
1196,483	4	-0,008
1198,463	3,5	-0,082
1200,443	0	-0,694
1202,411	-3,5	-1,408
1204,379	-9,5	-2,147
1206,347	-18,5	-2,999
1208,315	-21,5	-3,499
1210,306	-21,5	-3,494
1212,286	-20,5	-3,443
1214,254	-13	-2,964
1216,228	-7	-2,191
1218,232	-3,5	-1,536
1220,206	0	-0,73
1222,168	4	-0,001
1224,124	4	-0,011
1226,097	2	-0,133
1228,065	-0,5	-0,898
1230,033	-5,5	-1,749
1232,019	-13,5	-2,533
1233,999	-21,5	-3,309
1235,979	-21,5	-3,498
1237,959	-21	-3,472
1239,933	-15	-3,195
1241,901	-7,5	-2,328
1243,88	-4	-1,595
1245,836	0	-0,716
1247,822	4	0
1249,802	4	-0,008
1251,776	3	-0,09
1253,756	0	-0,597
1255,73	-3	-1,375
1257,698	-9	-2,153
1259,678	-17	-2,854
1261,658	-21,5	-3,5
1263,631	-21,5	-3,495
1265,599	-19	-3,436
1267,561	-12	-2,826
1269,535	-6	-2,058
1271,527	-3,5	-1,406
1273,501	0,5	-0,61
1275,457	4	-0,001
1277,443	4	-0,015
1279,417	1	-0,174
1281,372	-1,5	-0,943
1283,346	-5,5	-1,689
1285,314	-14,5	-2,573
1287,282	-21,5	-3,365
1289,274	-21,5	-3,498
1291,242	-21	-3,48
1293,234	-18	-3,395
1295,214	-10	-2,767
1297,205	-5,5	-2,019
1299,185	-2,5	-1,26
1301,141	3	-0,388
1303,109	4	-0,001
1305,077	4	-0,02
1307,045	0,5	-0,338
1309,025	-2,5	-1,102
1310,993	-7,5	-1,932
1312,99	-15	-2,665
1314,964	-21,5	-3,494
1316,92	-21,5	-3,495
1318,882	-19,5	-3,442
1320,856	-12,5	-2,966
1322,836	-6	-2,159
1324,828	-2,5	-1,39
1326,802	1,5	-0,627
1328,776	4	0
1330,738	4	-0,011
1332,717	2,5	-0,12
1334,685	-0,5	-0,823
1336,677	-4	-1,523
1338,645	-11,5	-2,353
1340,601	-21	-3,263
1342,575	-21	-3,498
1344,537	-20,5	-3,473
1346,517	-15	-3,208
1348,49	-7,5	-2,381
1350,452	-3	-1,525
1352,42	1	-0,664
1354,4	4	-0,001
1356,386	4	-0,01
1358,36	2	-0,15
1360,322	-1,5	-0,988
1362,296	-6,5	-1,905
1364,258	-15	-2,728
1366,225	-21	-3,5
1368,205	-21	-3,496
1370,167	-19,5	-3,441
1372,135	-11	-2,82
1374,104	-4,5	-2,032
1376,071	-1,5	-1,122
1378,039	4	-0,229
1380,037	4	-0,002
1381,992	4	-0,033
1383,96	0,5	-0,389
1385,916	-3	-1,304
1387,92	-7,5	-1,954
1389,906	-15	-2,621
1391,862	-21	-3,497
1393,836	-21,5	-3,496
1395,792	-20	-3,453
1397,76	-12	-2,898
1399,745	-6	-2,2
1401,725	-3	-1,361
1403,711	1	-0,593
1405,691	4	-0,001
1407,659	4	-0,014
1409,633	1,5	-0,178
1411,595	-1,5	-0,978
1413,575	-5,5	-1,743
1415,555	-13	-2,514
1417,511	-21	-3,433
1419,466	-21,5	-3,497
1421,446	-20,5	-3,472
1423,438	-15	-3,236
1425,388	-6,5	-2,262
1427,362	-3	-1,434
1429,33	1	-0,61
1431,304	4	-0,001
1433,284	4	-0,012
1435,239	1,5	-0,162
1437,219	-1	-0,885
1439,187	-6	-1,789
1441,167	-13,5	-2,56
1443,141	-21	-3,377
1445,115	-21	-3,497
1447,083	-19,5	-3,453
1449,039	-11	-2,842
1451,013	-5,5	-2,025
1452,98	-1,5	-1,095
1454,954	4	-0,254
1456,922	4	-0,003
1458,902	4	-0,038
1460,876	0	-0,443
1462,832	-3	-1,403
1464,824	-9	-2,124
1466,822	-16	-2,82
1468,796	-21	-3,499
1470,764	-21	-3,492
1472,731	-18	-3,39
1474,729	-11	-2,819
1476,697	-4,5	-1,834
1478,677	-1,5	-1,053
1480,651	4	-0,207
1482,613	4,5	-0,005
1484,581	3,5	-0,056
1486,555	0	-0,614
1488,528	-3	-1,423
1490,496	-9,5	-2,238
1492,471	-19	-3,054
1494,438	-21	-3,499
1496,412	-21	-3,487
1498,38	-14,5	-3,287
1500,36	-8	-2,502
1502,328	-3,5	-1,607
1504,29	0,5	-0,688
1506,257	4	-0,001
1508,219	4	-0,016
1510,205	2	-0,186
1512,173	-1,5	-1,018
1514,177	-5	-1,704
1516,145	-13	-2,608
1518,119	-21	-3,355
1520,093	-21	-3,498
1522,073	-20,5	-3,478
1524,034	-14	-3,159
1526,008	-7,5	-2,464
1528	-3	-1,579
1529,986	-0,5	-0,828
1531,96	4	0
1533,934	4	-0,007
1535,944	3,5	-0,053
1537,912	0	-0,587
1539,892	-3,5	-1,415
1541,86	-10,5	-2,32
1543,839	-20,5	-3,08
1545,813	-21	-3,499
1547,793	-21	-3,489
1549,773	-16	-3,336
1551,735	-8,5	-2,552
1553,709	-4,5	-1,833
1555,677	-1	-0,902
1557,656	4	-0,149
1559,619	4	-0,006
1561,586	3	-0,07
1563,56	0	-0,608
1565,528	-3	-1,384
1567,502	-9	-2,254
1569,47	-20	-3,17
1571,432	-20,5	-3,498
1573,394	-20	-3,472
1575,386	-14,5	-3,232
1577,353	-7	-2,356
1579,333	-3	-1,576
1581,307	0	-0,797
1583,281	4	0
1585,261	4	-0,006
1587,217	3	-0,077
1589,185	0	-0,679
1591,147	-3,5	-1,523
1593,126	-9,5	-2,276
1595,094	-20	-3,134
1597,074	-20,5	-3,499
1599,042	-20,5	-3,486
1601,004	-15	-3,265
1602,972	-7	-2,393
1604,94	-3	-1,516
1606,92	0	-0,719
1608,876	4	-0,001
1610,843	4	-0,014
1612,817	3	-0,134
1614,785	-0,5	-0,832
1616,759	-4,5	-1,679
1618,715	-13,5	-2,57
1620,689	-20,5	-3,457
1622,645	-20,5	-3,496
1624,601	-20	-3,46
1626,569	-13,5	-3,128
1628,549	-7,5	-2,397
1630,504	-3	-1,49
1632,46	1	-0,595
1634,44	4	-0,001
1636,402	4	-0,015
1638,382	2,5	-0,161
1640,368	-0,5	-0,864
1642,318	-5	-1,768
1644,31	-12	-2,483
1646,277	-20	-3,344
1648,245	-20,5	-3,498
1650,207	-20	-3,475
1652,187	-14,5	-3,208
1654,149	-6,5	-2,333
1656,159	-3,5	-1,692
1658,127	-0,5	-0,84
1660,113	4	-0,108
1662,081	4	-0,005
1664,06	3,5	-0,055
1666,016	0	-0,624
1667,996	-2,5	-1,383
1669,964	-8,5	-2,18
1671,932	-18	-2,958
1673,9	-20,5	-3,499
1675,856	-20,5	-3,492
1677,83	-17,5	-3,395
1679,785	-9	-2,608
1681,766	-4,5	-1,902
1683,733	-2	-1,162
1685,701	4	-0,282
1687,657	4	-0,003
1689,613	4	-0,049
1691,581	0	-0,57
1693,555	-3	-1,416
1695,517	-9	-2,288
1697,484	-20	-3,096
1699,464	-20,5	-3,499
1701,444	-20,5	-3,491
1703,412	-18	-3,379
1705,392	-9,5	-2,74
1707,366	-4,5	-1,897
1709,346	-1,5	-1,101
1711,314	3,5	-0,273
1713,294	4,5	-0,002
1715,267	4	-0,026
1717,235	1	-0,294
1719,221	-1	-1,033
1721,201	-5,5	-1,867
1723,157	-14,5	-2,757
1725,131	-20,5	-3,5
1727,099	-20	-3,495
1729,079	-19	-3,456
1731,047	-11,5	-2,952
1733,014	-5,5	-2,09
1734,983	-2,5	-1,244
1736,956	3	-0,437
1738,918	4,5	-0,002
1740,868	4	-0,025
1742,83	1	-0,35
1744,786	-2,5	-1,282
1746,76	-7,5	-2,103
1748,716	-17	-2,995
1750,665	-20	-3,499
1752,627	-20	-3,486
1754,583	-15	-3,29
1756,569	-9	-2,589
1758,519	-3,5	-1,685
1760,805	-7,5	-2,461
1762,773	-4	-1,715
1764,735	-1	-0,844
1766,703	4	-0,032
1768,658	4	-0,007
1770,614	2,5	-0,105
1772,582	-0,5	-0,813
1774,562	-4,5	-1,587
1776,512	-12,5	-2,54
1778,48	-20	-3,262
1780,436	-20	-3,498
1782,41	-20	-3,478
1784,39	-14,5	-3,229
1786,345	-6	-2,363
1788,325	-3	-1,576
1790,293	0,5	-0,709
1792,261	4	-0,001
1794,235	4	-0,011
1796,203	2	-0,136
1798,153	-1	-0,914
1800,109	-5	-1,804
1802,082	-12,5	-2,519
1804,032	-20	-3,483
1805,982	-19,5	-3,496
1807,95	-19	-3,449
1809,912	-10,5	-2,874
1811,886	-5,5	-2,203
1813,854	-2,5	-1,318
1815,828	2,5	-0,497
1817,784	4	-0,001
1819,758	4	-0,017
1821,707	1,5	-0,224
1823,663	-1,5	-1,027
1825,643	-5	-1,83
1827,599	-13,5	-2,657
1829,567	-19,5	-3,44
1831,523	-20	-3,496
1833,479	-18	-3,44
1835,441	-10	-2,881
1837,402	-5	-2,021
1839,364	-2	-1,161
1841,32	4	-0,279
1843,276	4	-0,003
1845,244	4	-0,035
1847,2	0	-0,475
1849,156	-3	-1,382
1851,124	-7,5	-2,138
1853,08	-18,5	-3,044
1855,041	-19,5	-3,499
1856,997	-19,5	-3,487
1858,959	-14,5	-3,328
1860,921	-7,5	-2,494
1862,871	-3	-1,606
1864,833	1	-0,656
1866,801	4	-0,001
1868,751	4	-0,015
1870,701	1,5	-0,254
1873,094	4	-0,004
1875,056	3,5	-0,059
1877,012	0	-0,661
1878,968	-3,5	-1,556
1880,93	-10	-2,372
1882,916	-19,5	-3,158
1884,872	-20	-3,498
1886,834	-19,5	-3,48
1888,783	-13,5	-3,16
1890,739	-6	-2,26
1892,701	-2,5	-1,394
1894,657	3	-0,487
1896,607	4	-0,002
1898,563	4	-0,026
1900,513	0,5	-0,42
1902,469	-2,5	-1,316
1904,425	-7,5	-2,12
1906,375	-18,5	-3,064
1908,325	-19,5	-3,498
1910,292	-19,5	-3,487
1912,254	-14,5	-3,311
1914,204	-7	-2,432
1916,172	-3	-1,59
1918,134	0	-0,782
1920,084	4	0
1922,046	4	-0,007
1923,996	2,5	-0,123
1925,945	-1	-0,947
1927,907	-4,5	-1,695
1929,857	-12	-2,605
1931,813	-19,5	-3,476
1933,775	-19,5	-3,495
1935,725	-17,5	-3,417
1937,675	-8,5	-2,707
1939,631	-3,5	-1,816
1941,593	-1	-0,983
1943,542	4	-0,058
1945,492	4	-0,006
1947,484	3,5	-0,058
1949,446	0	-0,643
1951,408	-3	-1,488
1953,442	-6	-1,966
1955,398	-15,5	-2,921
1957,372	-19,5	-3,499
1959,328	-19,5	-3,488
1961,283	-15	-3,325
1963,245	-7,5	-2,498
1965,201	-3	-1,624
1967,157	0	-0,718
1969,119	4	0
1971,075	4	-0,012
1973,025	2	-0,173
1974,993	-1	-0,908
1976,942	-5	-1,784
1978,892	-13,5	-2,674
1980,86	-19,5	-3,492
1982,81	-19,5	-3,496
1984,772	-18	-3,45
1986,734	-11	-2,944
1988,696	-5	-2,111
1990,646	-2	-1,223
1992,626	3	-0,44
1994,594	4	-0,001
1996,549	4	-0,024
1998,541	1,5	-0,195
2000,497	-1	-1,02
2002,453	-5	-1,922
2004,409	-14,5	-2,779
2006,359	-19,5	-3,499
2008,315	-19	-3,487
2010,265	-14	-3,272
2012,221	-7,5	-2,492
2014,176	-3	-1,638
2016,126	0	-0,766
2018,106	4	-0,002
2020,062	4	-0,006
2022,042	3	-0,076
2023,998	0	-0,695
2025,954	-3	-1,518
2027,916	-9,5	-2,378
2029,871	-19	-3,243
2031,84	-19,5	-3,498
2033,801	-18,5	-3,47
2035,757	-12	-3,055
2037,707	-5	-2,15
2039,675	-2	-1,321
2041,631	2	-0,504
2043,587	4,5	-0,001
2045,555	4	-0,018
2047,511	1,5	-0,306
2049,46	-2	-1,22
2051,41	-6,5	-2,114
2053,366	-17	-2,99
2055,316	-19,5	-3,499
2057,296	-19	-3,49
2059,246	-14,5	-3,369
2061,202	-7,5	-2,598
2063,164	-3	-1,766
2065,114	-0,5	-0,856
2067,063	4	0
2069,013	4,5	-0,01
2070,975	3	-0,114
2072,931	0	-0,881
2074,905	-4	-1,639
2076,861	-10,5	-2,47
2078,823	-19	-3,305
2080,809	-19	-3,498
2082,765	-18,5	-3,47
2084,732	-13	-3,133
2086,694	-6,5	-2,331
2088,644	-2,5	-1,464
2090,6	0,5	-0,701
2092,574	4	0
2094,53	4,5	-0,011
2096,498	2,5	-0,124
2098,466	0	-0,813
2100,415	-4,5	-1,738
2102,371	-11	-2,58
2104,339	-19	-3,37
2106,295	-19	-3,497
2108,263	-18,5	-3,468
2110,225	-11	-3,061
2112,181	-5	-2,159
2114,131	-2	-1,288
2116,087	3,5	-0,396
2118,048	4	-0,002
2120,04	4	-0,02
2121,99	1	-0,379
2123,952	-1	-1,133
2125,908	-5,5	-2,018
2127,876	-13	-2,735
2129,832	-19	-3,5
2131,782	-19	-3,494
2133,75	-17	-3,409
2135,711	-9	-2,746
2137,661	-3,5	-1,842
2139,623	-1,5	-1,046
2141,579	4	-0,185
2143,547	4	-0,004
2145,503	4	-0,047
2147,453	0	-0,643
2149,421	-3	-1,447
2151,377	-8,5	-2,273
2153,332	-18	-3,126
2155,288	-19	-3,498
2157,239	-18	-3,474
2159,194	-12	-3,066
2161,162	-6	-2,235
2163,112	-2	-1,31
2165,062	2,5	-0,432
2167,024	4,5	-0,001
2169,004	4	-0,016
2170,953	1,5	-0,204
2172,921	-0,5	-0,968
2174,877	-5	-1,858
2176,833	-13	-2,748
2178,789	-19	-3,5
2180,739	-19	-3,494
2182,689	-14,5	-3,397
2184,645	-8,5	-2,657
2186,607	-3,5	-1,774
2188,557	0	-0,87
2190,506	4	0
2192,462	4	-0,009
2194,412	2,5	-0,164
2196,362	-0,5	-1,007
2198,342	-4	-1,761
2200,292	-12,5	-2,724
2202,26	-19	-3,492
2204,234	-19	-3,496
2206,189	-17	-3,429
2208,163	-10,5	-2,916
2210,119	-4,5	-1,968
2212,069	-1,5	-1,122
2214,043	3,5	-0,347
2215,993	4	-0,002
2217,943	3,5	-0,045
2219,899	0,5	-0,529
2221,848	-2	-1,39
2223,798	-7,5	-2,315
2225,754	-18,5	-3,23
2227,716	-18,5	-3,498
2229,666	-18	-3,467
2231,622	-11	-2,999
2233,578	-5	-2,087
2235,546	-2	-1,306
2237,502	2	-0,49
2239,457	4	-0,001
2241,425	4	-0,02
2243,375	1,5	-0,289
2245,325	-1	-1,175
2247,299	-4,5	-1,923
2249,273	-12,5	-2,733
2251,229	-18,5	-3,5
2253,233	-18,5	-3,496
2255,183	-15	-3,445
2257,132	-8,5	-2,794
2259,089	-3,5	-1,926
2261,044	-1,5	-1,098
2262,994	4	-0,179
2264,944	4	-0,004
2266,912	3	-0,06
2268,868	0	-0,678
2270,824	-3	-1,552
2272,78	-10	-2,448
2274,741	-18,5	-3,302
2276,71	-18,5	-3,497
2278,671	-17,5	-3,466
2280,621	-10,5	-3,005
2282,577	-4,5	-2,062
2284,533	-1,5	-1,232
2286,501	3,5	-0,406
2288,457	4	-0,002
2290,407	3,5	-0,04
2292,363	0,5	-0,505
2294,319	-2,5	-1,438
2296,28	-8	-2,282
2298,236	-18	-3,179
2300,198	-18,5	-3,498
2302,148	-17,5	-3,466
2304,11	-10,5	-3,063
2306,072	-4,5	-2,257
2308,028	-2	-1,382
2309,983	3	-0,501
2311,933	4	-0,002
2313,889	4	-0,033
2315,845	0	-0,494
2317,801	-2	-1,363
2319,763	-6,5	-2,133
2321,719	-16	-3,007
2323,669	-18,5	-3,499
2325,643	-18	-3,487
2327,598	-14	-3,325
2329,554	-6	-2,49
2331,504	-3	-1,555
2333,49	0	-0,83
2335,446	4	0
2337,408	4	-0,007
2339,376	3	-0,087
2341,338	0	-0,673
2343,312	-2	-1,44
2345,279	-8	-2,286
2347,235	-18	-3,195
2349,185	-18	-3,497
2351,141	-17,5	-3,467
2353,109	-10	-3,053
2355,065	-5	-2,2
2357,021	-2	-1,306
2358,983	3	-0,434
2360,933	4	-0,002
2362,882	3,5	-0,045
2364,832	0	-0,686
2366,8	-3	-1,538
2368,75	-9	-2,453
2370,706	-18	-3,365
2372,656	-18	-3,496
2374,612	-16,5	-3,445
2376,568	-9	-2,928
2378,518	-4	-2,025
2380,473	-1	-1,081
2382,429	4,5	-0,186
2384,385	4	-0,004
2386,341	3,5	-0,06
2388,297	0	-0,659
2390,247	-3	-1,472
2392,233	-7	-2,249
2394,189	-17,5	-3,19
2396,157	-18	-3,498
2398,106	-17	-3,472
2400,068	-11	-3,093
2402,018	-4,5	-2,179
2403,98	-2	-1,319
2405,936	3	-0,422
2407,892	4	-0,002
2409,848	4	-0,039
2411,804	0	-0,612
2413,753	-2,5	-1,516
2415,703	-9,5	-2,457
2417,659	-18	-3,39
2419,627	-18	-3,496
2421,583	-15,5	-3,426
2423,533	-7,5	-2,674
2425,507	-3,5	-1,87
2427,469	-1	-0,999
2429,419	4	-0,006
2431,386	4	-0,006
2433,348	3	-0,088
2435,304	-0,5	-0,883
2437,266	-3,5	-1,763
2439,228	-11,5	-2,72
2441,184	-17,5	-3,499
2443,146	-17	-3,491
2445,096	-13,5	-3,335
2447,058	-6	-2,477
2449,014	-2,5	-1,528
2450,975	1,5	-0,64
2452,931	4	-0,001
2454,881	4	-0,022
2456,837	1	-0,324
2458,787	-1	-1,244
2460,749	-5,5	-2,066
2462,699	-15	-2,992
2464,655	-17,5	-3,499
2466,665	-17	-3,492
2468,632	-14,5	-3,403
2470,582	-7	-2,576
2472,532	-2,5	-1,624
2474,488	0,5	-0,69
2476,444	4	-0,001
2478,4	4	-0,017
2480,35	1	-0,385
2482,306	-1	-1,308
2484,256	-6,5	-2,249
2486,211	-16	-3,124
2488,167	-17	-3,498
2490,123	-16,5	-3,469
2492,073	-9	-2,972
2494,029	-4	-2,051
2495,985	-1	-1,134
2497,953	4,5	-0,259
2499,909	4	-0,004
2501,871	3,5	-0,065
2503,82	0	-0,753
2505,788	-2	-1,546
2507,75	-8,5	-2,48
2509,706	-16,5	-3,434
2511,668	-16,5	-3,496
2513,63	-15	-3,458
2515,586	-8,5	-2,889
2517,536	-3,5	-1,981
2519,486	-1	-1,121
2521,448	4	-0,228
2523,403	4,5	-0,004
2525,359	3	-0,087
2527,309	0	-0,807
2529,271	-2,5	-1,583
2531,221	-8	-2,491
2533,177	-16	-3,285
2535,139	-16	-3,497
2537,094	-15,5	-3,471
2539,056	-9,5	-3,085
2541,036	-4,5	-2,342
2542,992	-2	-1,51
2544,942	1	-0,61
2546,898	4	-0,001
2548,854	4	-0,019
2550,816	1,5	-0,235
2552,772	-0,5	-1,056
2554,722	-3,5	-1,906
2556,683	-9,5	-2,692
2558,645	-15,5	-3,497
2560,601	-15,5	-3,495
2562,557	-14,5	-3,418
2564,507	-6	-2,633
2566,475	-3	-1,819
2568,425	-0,5	-0,899
2570,387	4,5	-0,046
2572,354	4,5	-0,006
2574,304	3	-0,098
2576,26	0	-0,871
2578,216	-3	-1,788
2580,172	-10	-2,71
2582,122	-15	-3,5
2584,078	-15	-3,492
2586,028	-12	-3,352
2587,99	-5,5	-2,517
2589,94	-2	-1,528
2591,895	1	-0,611
2593,851	4	-0,001
2595,807	4	-0,027
2597,757	1,5	-0,417
2599,707	-1	-1,369
2601,657	-6	-2,343
2603,613	-15	-3,258
2605,569	-15	-3,497
2607,524	-14	-3,448
2609,475	-8	-2,885
2611,424	-3	-1,922
2613,38	-0,5	-0,936
2615,33	4	0
2617,28	4	-0,011
2619,236	2,5	-0,177
2621,198	0	-0,988
2623,148	-3	-1,898
2625,104	-9,5	-2,76
2627,059	-14,5	-3,499
2629,015	-14,5	-3,491
2630,977	-11,5	-3,338
2632,927	-5	-2,474
2634,877	-2	-1,517
2636,839	1	-0,619
2638,789	4,5	-0,001
2640,745	4	-0,017
2642,695	1,5	-0,338
2644,65	-0,5	-1,168
2646,6	-3,5	-2,047
2648,55	-10,5	-2,914
2650,506	-14	-3,499
2652,468	-14	-3,488
2654,424	-10	-3,322
2656,374	-5	-2,486
2658,336	-2,5	-1,712
2660,321	-0,5	-0,982
2662,271	4,5	-0,025
2664,227	4	-0,006
2666,183	3,5	-0,064
2668,139	0,5	-0,67
2670,095	-1	-1,555
2672,057	-5	-2,388
2674,007	-13,5	-3,242
2675,975	-13,5	-3,498
2677,924	-13	-3,471
2679,88	-8	-3,086
2681,842	-3,5	-2,236
2683,804	-1,5	-1,477
2685,754	1	-0,605
2687,704	4	-0,001
2689,66	4	-0,016
2691,61	1,5	-0,266
2693,566	0	-1,099
2695,528	-2,5	-1,975
2697,489	-7,5	-2,787
2699,475	-13	-3,496
2701,443	-13	-3,495
2703,4	-11,5	-3,418
2705,355	-5,5	-2,711
2707,341	-3	-1,987
2709,297	-0,5	-1,16
2711,253	3,5	-0,268
2713,214	4	-0,003
2715,176	4	-0,042
2717,126	0,5	-0,575
2719,082	-0,5	-1,433
2721,044	-4,5	-2,251
2722,994	-12	-3,168
2724,95	-13	-3,498
2726,906	-12,5	-3,471
2728,874	-8	-3,137
2730,823	-3,5	-2,222
2732,78	-1,5	-1,305
2734,735	2,5	-0,435
2736,691	4	-0,002
2738,647	4	-0,027
2740,603	1,5	-0,387
2742,553	0	-1,27
2744,509	-3	-2,118
2746,483	-11,5	-2,96
2748,432	-13	-3,499
2750,382	-12,5	-3,482
2752,35	-8,5	-3,27
2754,306	-4	-2,424
2756,28	-1,5	-1,677
2758,236	0	-0,875
2760,198	4	-0,003
2762,148	4	-0,009
2764,098	2	-0,13
2766,047	0	-0,9
2768,015	-1,5	-1,646
2769,989	-4,5	-2,36
2771,945	-13	-3,249
2773,913	-13	-3,498
2775,863	-12	-3,475
2777,819	-6,5	-3,076
2779,769	-3	-2,203
2781,749	-1,5	-1,427
2783,704	2,5	-0,52
2785,667	4,5	-0,001
2787,628	4	-0,022
2789,578	1	-0,389
2791,534	0	-1,247
2793,49	-3	-2,126
2795,446	-10,5	-3,006
2797,432	-12,5	-3,499
2799,388	-12,5	-3,489
2801,343	-9,5	-3,339
2803,305	-4	-2,511
2805,255	-1,5	-1,596
2807,217	1,5	-0,666
2809,167	4	-0,001
2811,135	4	-0,014
2813,085	1,5	-0,249
2815,041	0	-1,19
2816,99	-3,5	-2,154
2818,953	-12	-3,099
2820,902	-13	-3,498
2822,858	-12,5	-3,477
2824,814	-7,5	-3,198
2826,776	-3	-2,392
2828,732	-1,5	-1,46
2830,688	2	-0,586
2832,638	4,5	-0,001
2834,587	4	-0,03
2836,55	1	-0,432
2838,499	-0,5	-1,357
2840,449	-4	-2,266
2842,399	-12	-3,124
2844,367	-13	-3,498
2846,323	-12,5	-3,485
2848,285	-8,5	-3,258
2850,241	-4	-2,441
2852,226	-1,5	-1,696
2854,176	1	-0,712
2856,162	4	0
2858,13	4	-0,007
2860,086	2,5	-0,107
2862,042	0	-0,859
2863,998	-1,5	-1,718
2865,948	-7	-2,68
2867,91	-13	-3,5
2869,865	-12,5	-3,494
2871,821	-10,5	-3,41
2873,771	-4,5	-2,661
2875,727	-2	-1,833
2877,689	0	-0,906
2879,645	4	0
2881,607	4	-0,01
2883,569	2	-0,15
2885,525	0	-0,975
2887,481	-2	-1,888
2889,436	-7,5	-2,794
2891,392	-12,5	-3,499
2893,342	-12,5	-3,491
2895,298	-10	-3,38
2897,254	-4	-2,566
2899,222	-1,5	-1,704
2901,19	0	-0,922
2903,146	4	-0,002
2905,101	4	-0,007
2907,075	3	-0,105
2909,031	0	-0,844
2910,987	-1	-1,693
2912,937	-5	-2,522
2914,893	-12,5	-3,379
2916,855	-12,5	-3,496
2918,811	-11,5	-3,454
2920,761	-5,5	-2,852
2922,711	-2,5	-1,952
2924,672	-0,5	-1,092
2926,628	4	-0,191
2928,584	4	-0,004
2930,534	3	-0,082
2932,496	0,5	-0,711
2934,446	-1	-1,625
2936,396	-5,5	-2,577
2938,346	-12,5	-3,44
2940,301	-12,5	-3,496
2942,263	-11,5	-3,449
2944,219	-5,5	-2,87
2946,169	-2	-1,935
2948,125	-0,5	-1,05
2950,087	4	-0,223
2952,037	4	-0,004
2953,987	2,5	-0,088
2955,943	0,5	-0,746
2957,899	-1	-1,592
2959,86	-5	-2,512
2961,816	-12	-3,427
2963,82	-12	-3,498
2965,782	-11,5	-3,48
2967,744	-7	-3,188
2969,694	-3	-2,327
2971,656	-1,5	-1,471
2973,612	2	-0,537
2975,567	4	-0,002
2977,517	3,5	-0,04
2979,479	1	-0,454
2981,429	-0,5	-1,406
2983,385	-4	-2,307
2985,341	-11,5	-3,238
2987,297	-12	-3,498
2989,253	-11	-3,468
2991,203	-6	-3,042
2993,176	-3	-2,295
2995,132	-1	-1,416
2997,088	3	-0,535
2999,044	4,5	-0,001
3001,006	4	-0,02
3002,962	1,5	-0,315
3004,918	0	-1,184
3006,868	-2	-1,971
3008,83	-7,5	-2,906
3010,779	-11,5	-3,499
3012,729	-11	-3,484
3014,685	-6,5	-3,244
3016,647	-3	-2,38
3018,639	-1,5	-1,658
3020,595	0,5	-0,768
3022,545	4	-0,001
3024,501	4	-0,012
3026,451	2	-0,156
3028,442	0,5	-0,862
3030,393	-1	-1,776
3032,342	-5,5	-2,681
3034,31	-11	-3,5
3036,26	-11	-3,494
3038,21	-9,5	-3,412
3040,166	-3,5	-2,676
3042,128	-1,5	-1,892
3044,084	0	-1,04
3046,051	4	-0,186
3048,007	4,5	-0,003
3049,975	3,5	-0,053
3051,937	1	-0,556
3053,887	0	-1,493
3055,837	-3,5	-2,38
3057,799	-11	-3,339
3059,749	-11	-3,497
3061,699	-10	-3,442
3063,648	-4	-2,737
3065,598	-1,5	-1,762
3067,566	0	-0,88
3069,516	4	-0,006
3071,472	4	-0,008
3073,428	2,5	-0,119
3075,378	0	-0,974
3077,328	-1	-1,909
3079,278	-7	-2,851
3081,227	-10,5	-3,499
3083,189	-10,5	-3,489
3085,145	-7,5	-3,322
3087,101	-3	-2,432
3089,081	-1,5	-1,7
3091,037	0	-0,814
3092,993	4	0
3094,949	4	-0,01
3096,91	2,5	-0,138
3098,873	0,5	-0,895
3100,834	-1	-1,761
3102,802	-5	-2,609
3104,782	-10,5	-3,358
3106,75	-10,5	-3,497
3108,706	-10	-3,459
3110,656	-4,5	-2,906
3112,63	-2	-2,152
3114,579	-0,5	-1,216
3116,542	3,5	-0,318
3118,497	4	-0,002
3120,459	3,5	-0,039
3122,409	1	-0,524
3124,377	0	-1,313
3126,333	-2,5	-2,25
3128,295	-9,5	-3,122
3130,245	-10,5	-3,498
3132,2	-10	-3,47
3134,156	-5	-3,064
3136,112	-2	-2,196
3138,068	-0,5	-1,337
3140,018	3	-0,427
3141,974	4	-0,002
3143,924	4	-0,034
3145,898	1	-0,398
3147,86	0	-1,322
3149,81	-2	-2,243
3151,76	-8,5	-3,142
3153,715	-10	-3,498
3155,683	-9,5	-3,481
3157,64	-5,5	-3,193
3159,589	-2	-2,225
3161,545	-0,5	-1,308
3163,513	2	-0,547
3165,469	4	-0,001
3167,424	4	-0,018
3169,375	1,5	-0,31
3171,33	0	-1,201
3173,286	-1	-2,07
3175,242	-6	-2,929
3177,198	-9,5	-3,499
3179,196	-10	-3,495
3181,164	-8,5	-3,438
3183,132	-3,5	-2,813
3185,088	-1,5	-1,922
3187,044	0	-1,043
3189,011	4	-0,258
3190,961	4	-0,004
3192,917	3,5	-0,053
3194,873	1	-0,635
3196,835	0	-1,425
3197,447	4	-0,001