File: ensaios_Ciclicos/_20perc/_3gap/entrada/_1.txt
Time (s)	Load (N)	Displacement (mm)
0	0	-0,124
2,46	-10,5	-1,62
4,956	-27	-3,264
7,38	-32,5	-3,498
9,804	-22,5	-2,391
12,174	-10	-1,245
14,693	1,5	-0,012
17,148	1,5	-0,284
19,596	-9,5	-1,732
22,067	-24,5	-3,196
24,863	-20,5	-2,389
27,312	-5,5	-0,903
29,759	2	-0,016
32,111	2	-0,005
34,546	-7,5	-1,486
37,019	-21,5	-3,069
39,394	-30	-3,487
41,758	-30	-3,181
44,158	-15,5	-1,935
46,54	-2,5	-0,519
48,946	2,5	-0,008
51,423	-2	-0,759
54,279	-29,5	-3,492
56,765	-21,5	-2,606
59,158	-8	-1,248
61,539	0,5	-0,114
63,873	2,5	-0,004
66,32	-3,5	-0,999
68,654	-10	-1,941
71,078	-24	-3,351
73,514	-29	-3,499
75,908	-18	-2,312
78,248	-6	-1,154
80,672	2,5	-0,037
83,408	-7,5	-1,658
85,771	-19,5	-2,989
88,123	-28	-3,483
90,487	-28,5	-3,428
92,869	-15	-2,059
95,209	-4,5	-0,944
97,555	1,5	-0,066
99,949	3	-0,001
102,237	-0,5	-0,768
104,539	-8	-1,681
106,872	-17	-2,83
109,206	-27	-3,474
111,594	-28	-3,459
114,36	0,5	-0,198
116,754	3	-0,004
119,16	-1,5	-0,742
121,529	-10	-2,028
123,893	-21,5	-3,252
126,233	-27,5	-3,494
128,525	-27,5	-3,347
130,871	-16	-2,21
133,241	-4	-0,988
135,575	1	-0,083
137,963	3	-0,002
140,362	-4	-1,05
142,672	-9,5	-2,025
144,958	-18	-2,875
147,256	-26,5	-3,446
149,59	-27,5	-3,498
151,882	-25,5	-3,086
154,245	-11,5	-1,84
156,573	-3	-0,838
158,889	2	-0,092
161,187	3	-0,01
163,443	3	-0,001
165,771	-1,5	-0,802
168,051	-5,5	-1,586
170,313	-9	-2,098
172,61	-16,5	-2,849
174,914	-26	-3,466
177,218	-27	-3,498
179,588	-22,5	-2,843
181,916	-9,5	-1,678
184,232	-2,5	-0,713
186,536	3	-0,066
188,822	3,5	-0,007
191,149	3	-0,003
193,465	-2,5	-0,927
195,799	-9	-1,958
198,152	-19,5	-3,107
200,455	-25,5	-3,478
202,735	-26,5	-3,499
205,075	-20	-2,699
207,403	-9	-1,708
210,144	3,5	-0,002
212,352	3,5	-0,009
214,608	-0,5	-0,754
216,858	-4,5	-1,275
219,06	-6	-1,79
221,309	-10,5	-2,232
223,548	-15	-2,752
225,768	-20,5	-3,193
228,017	-25	-3,449
230,291	-26	-3,495
232,577	-26	-3,478
234,863	-20,5	-2,558
237,155	-8	-1,64
239,447	-1,5	-0,728
241,75	3	-0,05
244,012	3,5	-0,006
246,244	3,5	-0,002
248,553	0,5	-0,542
250,864	-5	-1,459
253,15	-11	-2,252
255,436	-18	-3,118
257,746	-25	-3,48
260,002	-25,5	-3,497
262,305	-25,5	-3,206
264,568	-16	-2,5
266,835	-9,5	-1,836
269,091	-4	-1,214
271,353	0	-0,486
273,579	2,5	-0,086
275,907	3,5	-0,005
278,138	3,5	-0,001
280,364	3,5	-0,2
282,602	-1	-0,784
284,84	-4,5	-1,366
287,078	-8,5	-2,03
289,28	-12,5	-2,487
291,542	-18	-3,159
293,774	-24	-3,44
296,047	-25,5	-3,494
298,291	-25	-3,499
300,481	-25,5	-3,364
302,713	-22	-2,882
304,975	-14	-2,205
307,273	-4,5	-1,21
309,577	0	-0,262
312,187	3	-0,318
314,424	-2,5	-0,952
316,65	-5	-1,486
318,888	-8	-2,038
321,15	-15	-2,816
323,424	-23,5	-3,433
325,662	-25	-3,49
327,912	-25	-3,499
330,162	-23,5	-3,09
332,441	-14,5	-2,205
334,656	-8,5	-1,708
336,947	-2	-0,898
339,179	0	-0,288
341,477	3,5	-0,013
343,697	3,5	-0,002
346,36	-8	-2,159
348,568	-13	-2,629
350,765	-16	-3,002
352,954	-19,5	-3,348
355,174	-23,5	-3,46
357,394	-24,5	-3,492
359,554	-24,5	-3,495
361,72	-24,5	-3,498
363,945	-24,5	-3,436
366,158	-22	-2,913
368,361	-16,5	-2,562
370,533	-14	-2,252
372,727	-9,5	-1,833
374,937	-5,5	-1,374
377,133	-3	-0,978
379,335	-0,5	-0,548
381,579	2	-0,094
383,805	3,5	-0,019
386,006	3,5	-0,004
388,214	3,5	-0,002
390,476	2,5	-0,419
392,72	-3	-1,08
394,9	-4,5	-1,406
397,106	-6,5	-1,846
399,338	-10	-2,405
401,588	-16,5	-3,043
403,772	-20	-3,36
406,015	-24	-3,481
408,217	-24	-3,493
410,413	-24,5	-3,498
412,579	-24,5	-3,5
414,781	-22,5	-3,058
416,964	-18,5	-2,744
419,154	-15	-2,374
421,776	2	-0,074
423,96	3,5	-0,03
426,15	3,5	-0,011
428,382	3,5	-0,002
430,584	3,5	-0,001
432,768	3,5	-0,142
434,969	2	-0,511
437,19	-2	-0,989
439,433	-5	-1,645
441,605	-6	-1,884
443,801	-10	-2,38
446,003	-14	-2,826
448,187	-16,5	-3,203
450,395	-22,5	-3,426
452,542	-23	-3,452
454,684	-23,5	-3,47
456,886	-24	-3,492
459,082	-24	-3,497
461,26	-24	-3,499
463,456	-24	-3,237
465,679	-17,5	-2,694
467,884	-13,5	-2,271
470,067	-10	-1,937
472,293	-5	-1,364
474,483	-2,5	-0,974
476,697	0	-0,473
478,851	0,5	-0,289
481,011	1,5	-0,149
483,183	3	-0,055
485,361	3,5	-0,02
487,532	3,5	-0,008
489,716	3,5	-0,003
491,894	3,5	-0,001
494,036	3,5	0
496,19	3,5	-0,13
498,32	3,5	-0,199
500,516	0,5	-0,668
502,73	-2,5	-1,04
504,907	-4	-1,346
507,091	-5	-1,674
509,251	-6	-1,954
511,411	-7,5	-2,11
513,577	-9,5	-2,333
515,749	-11,5	-2,631
517,933	-15	-2,95
520,063	-15,5	-3,024
522,247	-19	-3,327
524,406	-21,5	-3,417
526,536	-22,5	-3,452
528,702	-23	-3,472
530,868	-23,5	-3,489
533,04	-23,5	-3,496
535,2	-23,5	-3,498
537,378	-23,5	-3,499
539,531	-23,5	-3,454
541,734	-19,5	-2,921
543,905	-16,5	-2,614
546,065	-14,5	-2,436
548,189	-13,5	-2,428
550,338	-12,5	-2,234
552,485	-11,5	-2,16
554,645	-9	-1,898
556,798	-7	-1,734
558,94	-6,5	-1,709
561,106	-5	-1,486
563,242	-5	-1,434
565,396	-3,5	-1,255
567,544	-3	-1,152
569,704	-2	-0,969
571,876	-0,5	-0,705
574,017	0	-0,564
576,183	0	-0,351
578,337	0,5	-0,246
580,473	1	-0,218
582,603	1	-0,193
584,769	2,5	-0,087
586,929	3	-0,048
589,095	3,5	-0,027
591,243	3,5	-0,017
593,397	3,5	-0,01
595,562	3,5	-0,006
597,692	3,5	-0,006
599,822	3,5	-0,005
601,941	3,5	-0,005
604,076	3,5	-0,004
606,218	3,5	-0,002
608,354	3,5	-0,002
610,513	3,5	-0,001
612,661	3,5	-0,001
614,821	3,5	-0,001
616,957	3,5	0
619,081	3,5	0
621,235	3,5	-0,032
623,371	3,5	-0,066
625,501	3,5	-0,154
627,63	3,5	-0,189
629,766	3	-0,238
631,92	2,5	-0,454
634,092	0	-0,674
636,234	-0,5	-0,779
638,358	-1	-0,803
640,506	-2,5	-0,915
642,654	-2,5	-1,065
644,789	-3	-1,071
646,949	-4	-1,327
649,08	-4	-1,436
651,197	-3,5	-1,37
653,345	-4	-1,446
655,481	-4	-1,514
657,635	-4,5	-1,625
659,777	-5,5	-1,761
661,924	-5,5	-1,831
664,072	-5,5	-1,91
666,22	-6	-2,033
668,338	-7	-2,066
670,492	-8	-2,207
672,628	-9	-2,296
674,764	-9	-2,328
676,9	-8,5	-2,338
679,047	-10,5	-2,519
681,195	-11,5	-2,626
683,379	-14	-2,936
685,521	-14	-3,05
687,639	-14	-3,066
689,781	-17,5	-3,2
691,935	-17	-3,318
694,059	-16	-3,332
696,188	-19,5	-3,362
698,324	-19,5	-3,412
700,454	-18	-3,397
702,572	-19,5	-3,383
704,708	-21	-3,432
706,85	-20	-3,446
708,968	-21,5	-3,455
711,116	-22	-3,463
713,282	-22,5	-3,483
715,423	-22,5	-3,487
717,559	-22,5	-3,492
719,737	-22,5	-3,497
721,897	-23	-3,498
724,021	-22,5	-3,498
726,175	-22,5	-3,499
728,311	-22,5	-3,499
730,447	-23	-3,5
733,021	-3,5	-1,389
735,144	-3,5	-1,312
737,268	-3,5	-1,325
739,404	-3,5	-1,319
741,558	-2,5	-1,211
743,682	-2,5	-1,174
745,83	-2,5	-1,094
747,984	-1	-0,844
750,138	0	-0,728
752,273	-0,5	-0,718
754,433	0	-0,589
756,587	0	-0,5
758,717	0,5	-0,468
760,835	0	-0,557
762,965	0	-0,546
765,107	0,5	-0,384
767,224	0,5	-0,343
769,36	1	-0,271
771,496	1	-0,286
773,644	1,5	-0,214
775,756	1,5	-0,274
777,892	0,5	-0,28
780,022	0,5	-0,289
782,164	1	-0,221
784,281	0,5	-0,287
786,399	1	-0,282
788,553	1	-0,192
790,677	1	-0,261
792,831	1,5	-0,14
794,967	2	-0,114
797,109	2	-0,103
799,233	2,5	-0,115
801,369	1,5	-0,133
803,516	3	-0,091
805,64	2,5	-0,104
807,776	2,5	-0,103
809,9	3	-0,092
812,024	2,5	-0,095
814,166	3	-0,077
816,29	2,5	-0,073
818,413	3,5	-0,061
820,543	3,5	-0,049
822,673	3,5	-0,049
824,803	3,5	-0,05
826,945	3,5	-0,039
829,069	3,5	-0,035
831,205	3,5	-0,038
833,359	3,5	-0,028
835,495	3,5	-0,027
837,63	3,5	-0,027
839,742	3,5	-0,04
841,866	3,5	-0,039
844,002	3,5	-0,035
846,18	3,5	-0,014
848,316	3,5	-0,012
850,452	3,5	-0,011
852,6	3,5	-0,009
854,729	3,5	-0,009
856,877	3,5	-0,006
859,001	3,5	-0,006
861,143	3,5	-0,004
863,273	4	-0,004
865,427	3,5	-0,002
867,563	3,5	-0,002
869,681	4	-0,003
871,817	3,5	-0,003
873,947	4	-0,002
876,064	3,5	-0,002
878,188	3,5	-0,002
880,312	3,5	-0,002
882,436	3,5	-0,002
884,56	3,5	-0,002
886,696	4	-0,002
888,819	3,5	-0,002
890,949	3,5	-0,002
893,049	3,5	-0,002
895,167	3,5	-0,003
897,309	3,5	-0,002
899,421	3,5	-0,003
901,567	3,5	-0,002
903,699	3,5	-0,002
906,248	-4,5	-1,654
908,384	-4	-1,664
910,526	-4,5	-1,767
912,65	-5	-1,818
914,762	-4,5	-1,772
916,886	-4,5	-1,738
919,034	-4,5	-1,857
921,188	-5,5	-1,914
923,318	-5	-1,882
925,453	-5,5	-1,929
927,589	-6	-2,004
929,719	-6	-2,084
931,837	-6	-2,057
933,949	-6	-2,086
936,067	-6	-2,096
938,185	-6,5	-2,09
940,345	-7,5	-2,278
942,469	-7	-2,258
944,598	-7	-2,24
946,728	-7,5	-2,289
948,853	-8	-2,314
950,976	-7,5	-2,284
953,088	-7	-2,282
955,218	-6,5	-2,212
957,336	-6,5	-2,186
959,46	-6,5	-2,146
961,577	-6,5	-2,177
963,713	-7	-2,24
965,825	-7	-2,173
967,949	-7	-2,202
970,109	-7,5	-2,327
972,251	-7,5	-2,415
974,375	-8,5	-2,465
976,504	-9	-2,51
978,628	-9,5	-2,54
980,758	-10	-2,674
982,924	-12,5	-2,902
985,048	-12,5	-2,9
987,178	-13	-2,96
989,302	-14	-2,999
991,426	-14,5	-3,092
993,561	-15	-3,14
995,697	-15	-3,232
997,809	-15	-3,172
999,945	-16,5	-3,278
1002,093	-18	-3,361
1004,229	-19	-3,393
1006,371	-19,5	-3,431
1008,483	-19,5	-3,42
1010,637	-20,5	-3,455
1012,736	-20	-3,444
1014,884	-20,5	-3,453
1017,014	-20	-3,462
1019,132	-20	-3,458
1021,256	-20,5	-3,462
1023,374	-20,5	-3,453
1025,498	-20	-3,445
1027,604	-19,5	-3,432
1029,734	-19,5	-3,432
1031,863	-20	-3,444
1033,999	-20,5	-3,455
1036,135	-20	-3,457
1038,247	-20	-3,455
1040,731	-19,5	-3,054
1042,867	-18,5	-2,96
1045,003	-18	-2,928
1047,126	-17,5	-2,909
1049,244	-18	-2,942
1051,368	-17	-2,853
1053,468	-16	-2,825
1055,616	-15,5	-2,708
1057,734	-15,5	-2,725
1059,882	-14	-2,634
1061,994	-15	-2,68
1064,111	-15	-2,676
1066,241	-14	-2,615
1068,353	-15	-2,624
1070,501	-13	-2,539
1072,625	-13,5	-2,557
1074,749	-13,5	-2,549
1076,885	-13	-2,539
1078,997	-13,5	-2,574
1081,126	-12,5	-2,44
1083,268	-10,5	-2,294
1085,38	-11	-2,374
1087,48	-13	-2,538
1089,598	-13,5	-2,597
1091,734	-14,5	-2,576
1093,864	-13	-2,516
1095,988	-13	-2,492
1098,124	-11,5	-2,413
1100,242	-12,5	-2,503
1102,371	-12,5	-2,422
1104,507	-12	-2,408
1106,643	-11,5	-2,377
1108,767	-11	-2,331
1110,879	-11,5	-2,398
1113,009	-12	-2,398
1115,127	-12,5	-2,472
1117,268	-11,5	-2,363
1119,398	-11	-2,362
1121,522	-10	-2,264
1123,64	-10	-2,28
1125,776	-9,5	-2,258
1127,906	-9	-2,172
1130,018	-9,5	-2,257
1132,118	-12	-2,447
1134,23	-12,5	-2,446
1136,341	-12,5	-2,498
1138,471	-12	-2,476
1140,607	-12	-2,417
1142,725	-12	-2,444
1144,837	-11,5	-2,449
1146,961	-12	-2,445
1149,097	-10	-2,319
1151,22	-10	-2,284
1153,344	-10	-2,276
1155,468	-9,5	-2,209
1157,58	-10,5	-2,264
1159,704	-11	-2,369
1161,822	-11,5	-2,427
1163,946	-12,5	-2,473
1166,082	-12	-2,442
1168,2	-12	-2,473
1170,336	-12	-2,469
1172,459	-12	-2,434
1174,577	-12	-2,397
1176,689	-10,5	-2,434
1178,831	-10	-2,329
1180,967	-10,5	-2,267
1183,121	-8,5	-2,124
1185,245	-8,5	-2,116
1187,368	-7,5	-2,053
1189,486	-7,5	-2,017
1191,61	-7	-1,994
1193,734	-7	-2,001
1195,864	-7	-1,925
1197,976	-6,5	-1,919
1200,1	-6	-1,883
1202,218	-6	-1,905
1204,317	-7	-1,979
1206,459	-6	-1,865
1208,595	-5	-1,749
1210,737	-4,5	-1,651
1212,861	-4,5	-1,61
1214,985	-4,5	-1,623
1217,121	-4	-1,518
1219,233	-3,5	-1,57
1221,374	-3	-1,444
1223,499	-3	-1,414
1225,634	-3	-1,31
1227,758	-2,5	-1,29
1229,882	-2,5	-1,266
1231,994	-3	-1,324
1234,118	-2,5	-1,342
1236,242	-3	-1,349
1238,366	-2	-1,298
1240,495	-2,5	-1,254
1242,607	-2,5	-1,354
1244,761	-2	-1,174
1246,903	-2	-1,049
1249,027	-1	-1,03
1251,133	-1,5	-1,101
1253,263	-1,5	-1,068
1255,375	-1,5	-1,093
1257,492	-2,5	-1,184
1259,616	-2,5	-1,213
1261,728	-3	-1,286
1263,846	-2,5	-1,259
1265,958	-3	-1,253
1268,088	-2,5	-1,242
1270,212	-3	-1,228
1272,336	-2,5	-1,218
1274,442	-3	-1,296
1276,559	-3	-1,338
1278,713	-2	-1,148
1280,837	-2	-1,155
1282,943	-2	-1,157
1285,061	-3	-1,248
1287,179	-3	-1,264
1289,297	-3	-1,254
1291,42	-3	-1,251
1293,544	-2,5	-1,222
1295,68	-2	-1,116
1297,792	-2,5	-1,148
1299,91	-2	-1,12
1302,058	-1,5	-0,976
1304,176	-1,5	-0,955
1306,312	-0,5	-0,823
1308,423	-0,5	-0,873
1310,535	-1	-0,905
1312,659	-1	-0,86
1314,783	-0,5	-0,858
1316,889	-0,5	-0,864
1319,013	-1	-0,918
1321,125	-1	-0,939
1323,249	-1	-0,904
1325,361	-1	-0,956
1327,484	-1	-0,948
1329,626	-0,5	-0,808
1331,75	-0,5	-0,804
1333,88	-0,5	-0,813
1335,998	-1	-0,892
1338,092	-1,5	-1,035
1340,216	-1,5	-0,994
1342,346	-1	-0,94
1344,47	-1	-0,944
1346,581	-1,5	-1,026
1348,681	-1,5	-1,086
1350,805	-1,5	-1,054
1352,917	-2	-1,09
1355,053	-1,5	-1,001
1357,177	-1,5	-1,014
1359,289	-1,5	-1,044
1361,395	-2	-1,056
1363,518	-2	-1,134
1366,08	4	-0,005
1368,21	4	-0,004
1370,328	4	-0,004
1372,428	3,5	-0,005
1374,54	4	-0,006
1376,676	3,5	-0,005
1378,8	3,5	-0,005
1380,917	4	-0,005
1383,041	3,5	-0,005
1385,147	4	-0,005
1387,259	4	-0,007
1389,389	3,5	-0,005
1391,513	3,5	-0,004
1393,613	4	-0,006
1395,737	4	-0,008
1397,86	3,5	-0,008
1399,972	4	-0,009
1402,09	3,5	-0,01
1404,214	3,5	-0,01
1406,338	4	-0,01
1408,48	4	-0,006
1410,592	3,5	-0,008
1412,71	3,5	-0,008
1414,827	3,5	-0,009
1416,951	3,5	-0,01
1419,075	3,5	-0,011
1421,193	3,5	-0,012
1423,311	4	-0,011
1425,417	4	-0,012
1427,553	3,5	-0,012
1429,653	3,5	-0,016
1431,789	3,5	-0,014
1433,919	3,5	-0,01
1436,042	3,5	-0,01
1438,154	3,5	-0,012
1440,26	3,5	-0,015
1442,384	3,5	-0,015
1444,508	3,5	-0,015
1446,614	3,5	-0,02
1448,744	3,5	-0,016
1450,867	3,5	-0,018
1453,003	3,5	-0,014
1455,115	3,5	-0,015
1457,245	3,5	-0,012
1459,357	3,5	-0,012
1461,505	4	-0,008
1463,641	3,5	-0,006
1465,765	3,5	-0,007
1467,906	4	-0,005
1470,018	3,5	-0,006
1472,148	3,5	-0,005
1474,278	4	-0,004
1476,39	3,5	-0,004
1478,52	3,5	-0,004
1480,634	4	-0,004
1482,756	3,5	-0,004
1484,879	4	-0,004
1486,979	4	-0,005
1489,103	4	-0,005
1491,239	4	-0,004
1493,369	3,5	-0,004
1495,481	4	-0,004
1497,599	4	-0,005
1499,717	4	-0,005
1501,816	4	-0,006
1503,922	4	-0,008
1506,052	4	-0,008
1508,17	4	-0,008
1510,288	4	-0,01
1512,406	3,5	-0,011
1514,53	4	-0,012
1516,63	3,5	-0,016
1518,747	3,5	-0,021
1520,871	3,5	-0,024
1523,007	3,5	-0,019
1525,119	3,5	-0,028
1527,243	3,5	-0,026
1529,367	3,5	-0,026
1531,479	3,5	-0,025
1533,597	3,5	-0,026
1535,727	3,5	-0,024
1537,839	3,5	-0,033
1539,962	3,5	-0,035
1542,074	3,5	-0,029
1544,18	3,5	-0,041
1546,311	3,5	-0,036
1548,428	3,5	-0,035
1550,552	3,5	-0,04
1552,67	3,5	-0,053
1554,775	3	-0,062
1556,899	3,5	-0,056
1558,999	3	-0,071
1561,153	3,5	-0,044
1563,259	3,5	-0,047
1565,383	3,5	-0,043
1567,507	3,5	-0,042
1569,643	3,5	-0,032
1571,749	3,5	-0,036
1573,872	3,5	-0,042
1576,002	3,5	-0,034
1578,114	3,5	-0,04
1580,226	3,5	-0,058
1582,356	3,5	-0,055
1584,456	3	-0,075
1586,58	3	-0,075
1588,709	3	-0,066
1590,821	2,5	-0,099
1592,951	3	-0,084
1595,069	3	-0,093
1597,181	2,5	-0,102
1599,305	3	-0,09
1601,423	3	-0,098
1603,535	2	-0,144
1605,653	1,5	-0,152
1607,758	1,5	-0,153
1609,882	1,5	-0,179
1611,994	1,5	-0,203
1614,13	2	-0,172
1616,224	1,5	-0,294
1618,366	1,5	-0,238
1620,472	1	-0,346
1622,59	0,5	-0,426
1624,719	0,5	-0,414
1626,843	1	-0,405
1628,955	0	-0,538
1631,067	0	-0,664
1633,179	0	-0,592
1635,291	0	-0,686
1637,415	0	-0,62
1639,533	0	-0,53
1641,669	0,5	-0,456
1643,792	0,5	-0,427
1645,898	0	-0,53
1648,022	0,5	-0,527
1650,146	0,5	-0,514
1652,27	0	-0,46
1654,388	0	-0,574
1656,5	0	-0,664
1658,624	0	-0,698
1660,717	-0,5	-0,882
1662,823	-0,5	-1,006
1664,941	-0,5	-1,017
1667,491	4	-0,004
1669,615	4	-0,003
1671,727	4	-0,004
1673,851	4	-0,004
1675,95	3,5	-0,004
1678,068	3,5	-0,006
1680,174	3,5	-0,007
1682,28	4	-0,01
1684,386	3,5	-0,014
1686,498	3,5	-0,017
1688,604	4	-0,023
1690,734	3,5	-0,026
1692,828	3,5	-0,04
1694,927	3,5	-0,063
1697,021	3	-0,084
1699,127	3	-0,103
1701,227	2	-0,166
1703,358	2	-0,186
1705,482	2	-0,172
1707,599	2	-0,197
1709,747	2,5	-0,124
1711,846	2	-0,169
1713,976	2,5	-0,152
1716,1	2,5	-0,128
1718,218	2,5	-0,149
1720,342	2,5	-0,152
1722,448	1,5	-0,203
1724,566	1,5	-0,217
1726,696	2,5	-0,18
1728,801	1,5	-0,224
1730,926	1,5	-0,25
1733,067	1,5	-0,222
1735,167	1	-0,334
1737,291	1	-0,308
1739,392	0,5	-0,452
1741,509	0	-0,452
1743,621	0	-0,531
1745,721	0	-0,684
1747,821	-0,5	-0,791
1749,938	0	-0,781
1752,05	-0,5	-0,844
1754,156	0	-0,824
1756,28	0	-0,752
1758,38	0	-0,826
1760,498	-0,5	-0,884
1762,604	-1,5	-1,063
1764,715	-1,5	-1,082
1766,809	-2,5	-1,261
1768,933	-2	-1,305
1771,051	-3	-1,476
1773,157	-3	-1,5
1775,275	-3,5	-1,607
1777,375	-4	-1,67
1779,481	-5,5	-1,858
1781,58	-6,5	-1,996
1783,704	-7,5	-2,078
1785,816	-7,5	-2,124
1787,922	-8	-2,199
1790,028	-10,5	-2,363
1792,122	-12	-2,504
1794,234	-13	-2,614
1796,334	-14,5	-2,736
1798,458	-14	-2,68
1800,552	-15	-2,804
1802,663	-18	-2,974
1804,781	-17,5	-2,949
1806,899	-17	-2,944
1809,017	-17	-2,965
1811,117	-18	-3,05
1813,223	-19,5	-3,111
1815,329	-18,5	-3,124
1817,44	-19	-3,09
1819,54	-19,5	-3,214
1821,688	-17,5	-3,009
1823,788	-18,5	-3,089
1825,9	-19,5	-3,125
1828	-19,5	-3,334
1830,112	-20	-3,388
1832,212	-19,5	-3,499
1834,318	-19,5	-3,5
1836,411	-19,5	-3,499
1838,517	-19,5	-3,499
1840,629	-19,5	-3,499
1842,735	-19,5	-3,498
1844,841	-19,5	-3,497
1846,947	-19,5	-3,497
1849,047	-19,5	-3,496
1851,147	-20	-3,495
1853,258	-19,5	-3,493
1855,352	-19,5	-3,489
1857,458	-19,5	-3,488
1859,552	-19,5	-3,486
1861,658	-19,5	-3,484
1863,752	-19,5	-3,475
1865,864	-19,5	-3,478
1867,958	-19,5	-3,471
1870,105	-19,5	-3,482
1872,206	-19,5	-3,477
1874,305	-19	-3,465
1876,405	-19	-3,46
1878,517	-19	-3,458
1880,641	-19	-3,469
1882,771	-19,5	-3,475
1884,865	-19	-3,461
1887,007	-19,5	-3,482
1889,106	-19,5	-3,475
1891,218	-19,5	-3,475
1893,34	-19,5	-3,476
1895,442	-19	-3,475
1897,554	-19	-3,471
1899,666	-19	-3,471
1901,766	-19	-3,47
1903,871	-19	-3,463
1905,983	-18,5	-3,458
1908,095	-18,5	-3,452
1910,237	-18,5	-3,467
1912,331	-19	-3,463
1914,437	-18,5	-3,459
1916,537	-18	-3,44
1918,637	-17	-3,412
1920,731	-17	-3,4
1922,843	-17,5	-3,402
1924,96	-16,5	-3,402
1927,066	-17,5	-3,413
1929,16	-15,5	-3,374
1931,266	-16,5	-3,373
1933,36	-14,5	-3,312
1935,484	-15,5	-3,345
1937,608	-16	-3,38
1939,726	-17	-3,398
1941,855	-17	-3,411
1943,955	-15,5	-3,37
1946,055	-15	-3,354
1948,161	-16	-3,353
1950,267	-15	-3,339
1952,373	-14	-3,328
1954,485	-15	-3,323
1956,59	-13,5	-3,312
1958,684	-14,5	-3,26
1960,796	-14	-3,274
1962,89	-13,5	-3,205
1964,996	-12,5	-3,134
1967,09	-11,5	-2,997
1969,184	-10	-2,904
1971,296	-10	-2,894
1973,396	-10	-2,862
1975,501	-10,5	-2,908
1977,655	-11	-3,11
1979,756	-11	-3,025
1981,855	-10,5	-2,962
1983,961	-11	-2,943
1986,067	-11	-2,951
1988,173	-10,5	-2,918
1990,279	-10,5	-2,862
1992,378	-10	-2,804
1994,478	-9,5	-2,756
1996,596	-9	-2,735
1998,696	-7,5	-2,612
2000,808	-9	-2,725
2002,908	-8,5	-2,672
2005,002	-8	-2,552
2007,102	-7,5	-2,472
2009,195	-6	-2,374
2011,301	-6,5	-2,339
2013,407	-6	-2,284
2015,519	-5,5	-2,233
2017,613	-5	-2,138
2019,725	-5	-2,104
2021,837	-5	-2,067
2023,937	-4,5	-1,993
2026,049	-4	-1,936
2028,148	-3,5	-1,84
2030,254	-4	-1,77
2032,36	-3,5	-1,714
2034,484	-3,5	-1,802
2036,578	-3,5	-1,729
2038,69	-3,5	-1,78
2040,784	-3	-1,67
2042,878	-3	-1,64
2045,019	-4	-1,781
2047,119	-3,5	-1,686
2049,225	-3	-1,677
2051,337	-3	-1,652
2053,437	-3	-1,626
2055,549	-3	-1,648
2057,649	-3	-1,547
2059,755	-3	-1,497
2061,854	-3	-1,428
2063,96	-2,5	-1,406
2066,066	-2,5	-1,371
2068,166	-2	-1,307
2070,26	-2	-1,214
2072,36	-1,5	-1,192
2074,478	-2	-1,192
2076,578	-1,5	-1,102
2078,683	-1,5	-1,154
2080,784	-1,5	-1,052
2082,883	-1	-0,977
2085,001	-1,5	-1,078
2087,095	-1	-0,964
2089,207	-1,5	-1,037
2091,313	-1,5	-1
2093,419	-1,5	-1,072
2095,513	-1,5	-1,016
2097,625	-1,5	-1,028
2099,724	-0,5	-0,921
2101,842	-0,5	-0,863
2103,942	0	-0,81
2106,042	0	-0,704
2108,148	0	-0,76
2110,248	0	-0,712
2112,348	0	-0,717
2114,442	0,5	-0,64
2116,571	0	-0,683
2118,665	1,5	-0,563
2120,765	2,5	-0,477
2122,871	2	-0,454
2124,971	2,5	-0,39
2127,077	3	-0,361
2129,171	3,5	-0,266
2131,271	4	-0,149
2133,37	4	-0,154
2135,47	4	-0,108
2137,576	4	-0,134
2139,67	4	-0,132
2141,782	3,5	-0,032
2143,876	4	0
2145,988	4	-0,009
2148,082	4	0
2150,176	4	-0,001
2152,281	3,5	-0,001
2154,375	4	-0,001
2156,487	4	-0,002
2158,587	4	-0,002
2160,687	4	-0,002
2162,793	4	-0,003
2164,899	4	-0,004
2167,011	4	-0,004
2169,122	4	-0,003
2171,228	4	-0,004
2173,322	4	-0,006
2175,428	4	-0,007
2177,546	4	-0,008
2179,646	4	-0,009
2181,758	4	-0,01
2183,888	4	-0,008
2186,012	4	-0,007
2188,123	4	-0,007
2190,235	3,5	-0,008
2192,341	4	-0,009
2194,459	4	-0,01
2196,565	4	-0,012
2198,677	3,5	-0,014
2200,777	4	-0,019
2202,894	3,5	-0,017
2205	4	-0,017
2207,1	3,5	-0,028
2209,194	3,5	-0,045
2211,288	3	-0,076
2213,388	2,5	-0,109
2215,488	2,5	-0,152
2217,6	2	-0,17
2219,693	1,5	-0,275
2221,787	0,5	-0,372
2223,911	1	-0,281
2226,023	1	-0,346
2228,135	1	-0,356
2230,241	1	-0,314
2232,353	1,5	-0,272
2234,453	1	-0,295
2236,564	1	-0,369
2238,694	1	-0,29
2240,8	0,5	-0,376
2242,9	0,5	-0,445
2245	0	-0,488
2247,106	0	-0,574
2249,206	0	-0,654
2251,306	0	-0,702
2253,418	0	-0,695
2255,523	0	-0,754
2257,647	0	-0,689
2259,759	0	-0,719
2261,871	0	-0,776
2263,971	0	-0,803
2266,071	-0,5	-0,898
2268,177	-0,5	-0,928
2270,277	-1	-0,98
2272,401	-0,5	-0,924
2274,5	-0,5	-0,94
2276,606	-1	-1,028
2278,706	-1,5	-1,123
2280,8	-1,5	-1,264
2282,912	-2	-1,316
2285,006	-2,5	-1,409
2287,112	-2,5	-1,342
2289,211	-3	-1,464
2291,311	-3	-1,539
2293,417	-4	-1,61
2295,511	-4,5	-1,768
2297,611	-4,5	-1,804
2299,717	-5	-1,854
2301,829	-5,5	-1,901
2303,941	-5	-1,91
2306,035	-6	-1,988
2308,128	-7	-2,14
2310,246	-7	-2,104
2312,346	-8	-2,242
2314,452	-9	-2,338
2316,552	-10	-2,434
2318,658	-10	-2,489
2320,77	-10,5	-2,494
2322,864	-12	-2,64
2324,987	-12,5	-2,664
2327,087	-13,5	-2,749
2329,199	-13,5	-2,79
2331,311	-15,5	-2,81
2333,447	-13	-2,726
2335,559	-12,5	-2,728
2337,665	-14	-2,817
2339,759	-15	-2,964
2341,858	-17	-3,081
2343,952	-19	-3,246
2346,082	-18,5	-3,191
2348,182	-18,5	-3,3
2350,294	-18,5	-3,332
2352,394	-19	-3,5
2354,488	-18,5	-3,499
2356,588	-19	-3,499
2358,682	-18,5	-3,499
2360,799	-18,5	-3,499
2362,893	-18,5	-3,498
2365,005	-18,5	-3,498
2367,111	-18,5	-3,498
2369,211	-18	-3,496
2371,311	-18,5	-3,496
2373,423	-18	-3,495
2375,523	-18	-3,494
2377,623	-18	-3,493
2379,722	-18	-3,491
2381,822	-18	-3,486
2383,928	-18	-3,488
2386,028	-18	-3,487
2388,134	-18	-3,484
2390,228	-17,5	-3,469
2392,334	-17	-3,456
2394,446	-16,5	-3,448
2396,539	-15	-3,412
2398,669	-16	-3,441
2400,769	-15	-3,405
2402,863	-13,5	-3,329
2404,963	-12,5	-3,268
2407,063	-12	-3,196
2409,181	-11	-3,126
2411,287	-10	-3,072
2413,387	-9,5	-3,009
2415,486	-8,5	-2,865
2417,592	-8,5	-2,777
2419,698	-8	-2,734
2421,798	-7,5	-2,664
2423,892	-6,5	-2,544
2425,998	-7	-2,605
2428,092	-6	-2,442
2430,197	-5,5	-2,387
2432,291	-5,5	-2,288
2434,391	-5	-2,245
2436,491	-4,5	-2,097
2438,591	-4	-2,017
2440,691	-3,5	-1,938
2442,809	-3,5	-1,921
2444,915	-3	-1,802
2447,014	-3	-1,696
2449,126	-3	-1,703
2451,22	-2	-1,555
2453,35	-3	-1,69
2455,444	-2,5	-1,565
2457,544	-2,5	-1,576
2459,644	-2	-1,459
2461,744	-2	-1,406
2463,843	-1,5	-1,299
2465,943	-1	-1,197
2468,037	-1	-1,077
2470,143	-1	-1,044
2472,243	-0,5	-0,942
2474,355	-0,5	-0,922
2476,467	-0,5	-0,86
2478,567	0	-0,738
2480,685	0,5	-0,679
2482,779	2	-0,532
2484,902	2	-0,572
2487,056	0	-0,768
2489,156	0,5	-0,683
2491,256	1	-0,646
2493,362	1,5	-0,574
2495,462	2,5	-0,468
2497,568	3	-0,407
2499,662	4	-0,28
2501,767	4	-0,223
2503,891	3,5	-0,271
2505,997	4	-0,246
2508,097	4	-0,115
2510,197	4	-0,026
2512,291	4	0
2514,403	4	0
2516,497	4	-0,001
2518,603	4	-0,001
2520,708	4	-0,001
2522,802	4	-0,001
2524,902	4	-0,002
2527,008	4	-0,002
2529,114	4	-0,002
2531,226	4	-0,002
2533,326	4	-0,002
2535,419	4	-0,002
2537,519	4	-0,003
2539,619	4	-0,004
2541,719	4	-0,006
2543,825	4	-0,007
2545,919	4	-0,009
2548,025	4	-0,009
2550,131	4	-0,009
2552,224	4	-0,014
2554,324	4	-0,014
2556,448	4	-0,01
2558,548	4	-0,01
2560,66	4	-0,008
2562,76	4	-0,01
2564,908	4	-0,006
2567,008	4	-0,007
2569,12	4	-0,006
2571,213	4	-0,008
2573,343	4	-0,005
2575,455	4	-0,006
2577,555	4	-0,006
2579,667	4	-0,006
2581,767	4	-0,008
2583,867	4	-0,011
2585,991	4	-0,009
2588,114	4	-0,008
2590,232	4	-0,008
2592,326	4	-0,008
2594,432	4	-0,009
2596,532	4	-0,013
2598,632	4	-0,016
2600,75	4	-0,022
2602,844	3,5	-0,029
2604,949	3,5	-0,038
2607,061	3,5	-0,049
2609,161	3,5	-0,054
2611,262	3,5	-0,058
2613,379	3,5	-0,049
2615,491	3,5	-0,052
2617,597	3	-0,057
2619,691	3	-0,067
2621,784	2,5	-0,12
2623,884	2	-0,179
2625,99	1,5	-0,177
2628,084	1,5	-0,302
2630,196	1	-0,322
2632,29	1	-0,474
2634,396	1	-0,565
2636,49	0	-0,744
2638,583	0	-0,908
2640,689	-0,5	-1,079
2642,825	0	-1,059
2644,925	-0,5	-1,149
2647,031	-1	-1,29
2649,137	-1	-1,365
2651,231	-1,5	-1,513
2653,343	-1,5	-1,474
2655,443	-1,5	-1,575
2657,548	-1,5	-1,575
2659,654	-2	-1,679
2661,754	-2,5	-1,776
2663,866	-2,5	-1,796
2665,96	-3	-1,91
2668,054	-3,5	-2,01
2670,172	-4	-1,988
2672,284	-4	-2,003
2674,395	-3,5	-2,028
2676,495	-4	-2,108
2678,589	-5,5	-2,244
2680,689	-5,5	-2,303
2682,789	-6	-2,358
2684,889	-6,5	-2,43
2686,995	-6,5	-2,523
2689,089	-8,5	-2,649
2691,188	-10	-2,771
2693,3	-9,5	-2,786
2695,4	-10	-2,849
2697,512	-11	-2,943
2699,612	-12,5	-3,066
2701,712	-13,5	-3,201
2703,818	-14,5	-3,279
2705,918	-14,5	-3,431
2708,012	-14,5	-3,5
2710,124	-14,5	-3,5
2712,217	-14,5	-3,499
2714,317	-14,5	-3,499
2716,441	-14,5	-3,499
2718,541	-14,5	-3,498
2720,653	-14,5	-3,498
2722,753	-14,5	-3,497
2724,847	-14,5	-3,497
2726,946	-14	-3,495
2729,04	-14	-3,492
2731,146	-14	-3,49
2733,258	-14	-3,489
2735,352	-14	-3,485
2737,452	-13,5	-3,481
2739,558	-13,5	-3,476
2741,67	-13	-3,468
2743,782	-12,5	-3,458
2745,893	-12,5	-3,45
2747,999	-12	-3,446
2750,099	-11	-3,429
2752,193	-10	-3,371
2754,305	-9	-3,327
2756,405	-8	-3,271
2758,505	-7,5	-3,21
2760,623	-7,5	-3,12
2762,716	-7	-3,03
2764,816	-6,5	-2,94
2766,922	-5,5	-2,832
2769,022	-5	-2,7
2771,122	-4,5	-2,599
2773,228	-4,5	-2,549
2775,322	-3,5	-2,375
2777,44	-4	-2,342
2779,552	-3,5	-2,296
2781,651	-3	-2,148
2783,769	-3	-2,152
2785,869	-3	-1,982
2787,975	-2,5	-1,847
2790,075	-2	-1,715
2792,175	-2	-1,618
2794,293	-2	-1,624
2796,393	-1,5	-1,449
2798,486	-1,5	-1,317
2800,622	-1	-1,37
2802,716	-1	-1,217
2804,816	-1	-1,111
2806,916	-0,5	-0,968
2809,01	0,5	-0,72
2811,104	2	-0,567
2813,222	2	-0,604
2815,321	3	-0,46
2817,421	4	-0,294
2819,521	4	-0,065
2821,615	4	-0,001
2823,715	4	-0,001
2825,809	4	-0,001
2827,909	4	-0,001
2830,033	4	-0,001
2832,139	4	-0,002
2834,232	4	-0,003
2836,356	4	-0,002
2838,462	4	-0,003
2840,562	4	-0,004
2842,662	4	-0,005
2844,756	4	-0,006
2846,862	3,5	-0,007
2848,961	4	-0,009
2851,067	4	-0,012
2853,185	4	-0,014
2855,279	3,5	-0,024
2857,379	3,5	-0,03
2859,485	3,5	-0,037
2861,585	3,5	-0,046
2863,679	3	-0,066
2865,797	3	-0,078
2867,897	2,5	-0,101
2869,996	2	-0,145
2872,108	2	-0,168
2874,208	1,5	-0,264
2876,308	1	-0,408
2878,426	1	-0,447
2880,52	0,5	-0,637
2882,614	0,5	-0,729
2884,72	0	-0,833
2886,819	0	-0,982
2888,937	0	-1,008
2891,055	0	-1,025
2893,155	0	-1,142
2895,255	-0,5	-1,174
2897,349	0	-1,379
2899,443	-0,5	-1,478
2901,549	-1	-1,609
2903,648	-1,5	-1,72
2905,748	-1,5	-1,832
2907,854	-2,5	-1,939
2909,954	-2,5	-1,993
2912,054	-3	-2,104
2914,16	-3	-2,18
2916,254	-4,5	-2,338
2918,354	-4,5	-2,418
2920,459	-4,5	-2,441
2922,553	-5,5	-2,578
2924,659	-5,5	-2,67
2926,771	-6	-2,678
2928,865	-7,5	-2,848
2930,965	-8	-2,89
2933,065	-9	-2,953
2935,159	-9,5	-3,059
2937,288	-8,5	-2,914
2939,389	-10	-2,999
2941,488	-11	-3,111
2943,582	-11,5	-3,289
2945,694	-11,5	-3,326
2947,794	-11,5	-3,45
2949,9	-11,5	-3,5
2952,012	-11,5	-3,5
2954,111	-11,5	-3,499
2956,205	-12	-3,499
2958,341	-11,5	-3,499
2960,435	-12	-3,499
2962,541	-11,5	-3,498
2964,647	-11,5	-3,498
2966,747	-11,5	-3,497
2968,859	-12	-3,496
2970,977	-11,5	-3,496
2973,082	-11,5	-3,496
2975,188	-11	-3,494
2977,282	-11,5	-3,492
2979,376	-11	-3,485
2981,488	-10,5	-3,478
2983,588	-10,5	-3,465
2985,694	-10,5	-3,456
2987,8	-10,5	-3,45
2989,9	-10	-3,436
2991,999	-9,5	-3,403
2994,111	-9	-3,412
2996,229	-8,5	-3,391
2998,347	-9	-3,408
3000,441	-8	-3,354
3002,535	-7,5	-3,298
3004,641	-7	-3,282
3006,74	-6	-3,151
3008,84	-5,5	-3,014
3010,94	-5,5	-2,924
3013,034	-5	-2,793
3015,128	-4	-2,576
3017,24	-3,5	-2,53
3019,34	-3	-2,322
3021,446	-3	-2,246
3023,558	-2,5	-2,088
3025,657	-2	-1,992
3027,757	-2	-1,86
3029,857	-1,5	-1,754
3031,963	-1,5	-1,65
3034,075	-1	-1,566
3036,199	-1	-1,55
3038,299	-1	-1,426
3040,405	-0,5	-1,366
3042,504	-1	-1,302
3044,604	-0,5	-1,222
3046,716	-0,5	-1,198
3048,816	-0,5	-1,049
3050,916	-0,5	-0,98
3053,016	0	-0,836
3055,158	-0,5	-0,976
3057,264	0	-0,949
3059,363	0,5	-0,757
3061,469	0	-0,718
3063,563	1,5	-0,597
3065,663	3	-0,432
3067,775	3,5	-0,31
3069,881	3,5	-0,136
3071,981	3,5	-0,002
3074,087	3,5	0
3076,186	3,5	-0,001
3078,286	4	-0,002
3080,404	4	-0,001
3082,504	4	-0,002
3084,604	4	-0,003
3086,704	3,5	-0,007
3088,798	3,5	-0,012
3090,892	3,5	-0,022
3093,01	3,5	-0,022
3095,109	3,5	-0,036
3097,203	3	-0,062
3099,315	3	-0,069
3101,409	2,5	-0,12
3103,509	1,5	-0,176
3105,615	1,5	-0,186
3107,709	1	-0,333
3109,809	1	-0,444
3111,914	1	-0,5
3114,008	1	-0,604
3116,108	0,5	-0,704
3118,25	0,5	-0,645
3120,35	0,5	-0,782
3122,45	0	-0,878
3124,562	0	-1,004
3126,656	0	-1,134
3128,762	0	-1,182
3130,861	0	-1,286
3132,977	0	-1,386
3135,073	-0,5	-1,533
3137,179	-0,5	-1,648
3139,273	-0,5	-1,719
3141,385	-0,5	-1,75
3143,491	-1	-1,89
3145,585	-1,5	-2,037
3147,691	-2	-2,183
3149,79	-2,5	-2,285
3151,884	-3	-2,469
3153,99	-4	-2,588
3156,096	-5	-2,685
3158,19	-6	-2,89
3160,29	-8	-3,055
3162,39	-9	-3,156
3164,483	-10	-3,331
3166,595	-10,5	-3,438
3168,707	-10,5	-3,5
3170,807	-10,5	-3,499
3172,913	-10,5	-3,498
3175,019	-10,5	-3,498
3177,113	-10,5	-3,496
3179,207	-10	-3,49
3180,461	4	0