File: Cycling_tests/_50perc/_3gap/entrada/_2.txt
Time (s)	Load (N)	Displacement (mm)
0	0	-0,03
2,177	0	-0,391
4,289	0	-0,392
6,401	0,5	-0,35
8,513	0,5	-0,341
10,63	0	-0,394
12,742	1	-0,385
14,854	0,5	-0,349
16,966	1	-0,297
19,078	1	-0,294
21,19	1	-0,294
23,308	0,5	-0,36
25,425	0,5	-0,434
27,543	0,5	-0,448
29,661	0	-0,539
31,773	0	-0,562
33,885	0	-0,596
36,003	0,5	-0,552
38,115	0	-0,576
40,227	0	-0,566
42,345	0	-0,528
44,463	0,5	-0,555
46,586	0	-0,537
48,698	0,5	-0,49
50,816	1	-0,356
52,934	1	-0,34
55,046	1	-0,368
57,164	1	-0,4
59,282	1,5	-0,356
61,4	1,5	-0,324
63,523	1	-0,37
65,635	1,5	-0,329
67,747	2	-0,022
69,865	1,5	-0,141
71,989	1,5	-0,121
74,107	1,5	-0,132
76,219	1,5	0
78,331	1,5	0
80,448	1,5	-0,001
82,578	1,5	0
84,69	1,5	-0,002
86,82	2	-0,001
88,932	1,5	-0,001
91,05	1,5	0
93,198	1,5	-0,022
95,321	1,5	-0,001
97,451	1,5	-0,032
99,569	1,5	-0,072
101,687	1,5	-0,127
103,805	1,5	-0,264
105,917	1,5	-0,222
108,035	1,5	0
110,153	1,5	0
112,265	1,5	-0,001
114,394	2	-0,002
116,518	1,5	-0,003
118,636	2	-0,005
120,748	1,5	-0,006
122,872	1,5	-0,013
124,996	2	-0,01
127,114	2	-0,011
129,226	2	-0,009
131,349	2	-0,008
133,461	2	-0,007
135,573	1,5	-0,006
137,697	2	-0,007
139,815	2	-0,009
141,927	1,5	-0,022
144,039	1,5	-0,058
146,157	1,5	-0,056
148,269	1,5	-0,073
150,386	1,5	-0,068
152,498	1,5	-0,066
154,622	1,5	-0,068
156,746	1,5	-0,052
158,858	2	-0,051
160,97	1,5	-0,067
163,088	1,5	-0,068
165,211	1,5	-0,08
167,335	1	-0,101
169,459	1	-0,172
171,589	0,5	-0,177
173,707	1	-0,137
175,825	0,5	-0,169
177,949	0,5	-0,166
180,067	0	-0,308
182,191	0,5	-0,218
184,302	0,5	-0,203
186,414	0	-0,334
188,538	0,5	-0,229
190,662	1	-0,135
192,774	1	-0,114
194,898	1	-0,113
197,022	1	-0,114
199,14	1	-0,094
201,252	1	-0,112
203,375	1	-0,128
205,499	1	-0,152
207,629	0,5	-0,168
209,741	0,5	-0,222
211,853	0,5	-0,224
213,971	0,5	-0,228
216,095	1	-0,17
218,225	1	-0,141
220,336	1	-0,164
222,46	1	-0,116
224,584	1	-0,108
226,708	1,5	-0,071
228,838	1,5	-0,049
230,968	1,5	-0,036
233,092	2	-0,036
235,216	1,5	-0,069
237,339	1,5	-0,049
239,469	1,5	-0,048
241,593	1,5	-0,062
243,705	1	-0,07
245,823	1,5	-0,07
247,947	1,5	-0,06
250,059	2	-0,058
252,183	1,5	-0,054
254,307	1,5	-0,051
256,424	2	-0,045
258,548	2	-0,03
260,672	2	-0,027
262,802	2	-0,022
264,926	2	-0,021
267,056	2	-0,047
269,18	1,5	-0,046
271,297	2	-0,035
273,409	2	-0,036
275,521	1,5	-0,049
277,639	1,5	-0,07
279,763	1,5	-0,066
281,887	1,5	-0,076
284,011	2	-0,058
286,141	1,5	-0,048
288,264	1,5	-0,043
290,394	2	-0,027
292,506	2	-0,028
294,63	2	-0,021
296,748	2	-0,016
298,866	2	-0,016
300,984	2	-0,015
303,114	2	-0,012
305,238	2	-0,011
307,367	2	-0,009
309,491	2	-0,008
311,603	2	-0,008
313,721	2	-0,007
315,845	2	-0,006
317,957	2	-0,006
320,075	2	-0,006
322,205	2	-0,004
324,328	2	-0,003
326,452	2	-0,003
328,564	2	-0,003
330,688	2	-0,003
332,812	2	-0,003
334,942	2	-0,002
337,06	2	-0,002
339,184	2	-0,001
341,301	2	-0,002
343,413	2	-0,002
345,537	2	-0,001
347,667	2	-0,001
349,785	2	-0,001
351,909	2	0
354,033	2	-0,065
356,151	2	-0,091
358,268	2	-0,227
360,392	1,5	-0,306
362,51	2	-0,306
364,628	1,5	-0,348
366,752	1,5	-0,384
368,882	1,5	-0,374
371	1,5	-0,41
373,118	1,5	-0,438
375,241	1,5	-0,466
377,365	1	-0,454
379,483	1,5	-0,437
381,595	1,5	-0,401
383,725	1,5	-0,408
385,843	1,5	-0,397
387,967	1,5	-0,426
390,085	1,5	-0,34
392,203	1,5	-0,297
394,32	2	-0,28
396,444	2	-0,256
398,574	1,5	-0,398
400,692	1,5	-0,445
402,804	1,5	-0,463
404,928	0	-0,636
407,058	0	-0,76
409,182	-0,5	-0,842
411,311	-1	-0,966
413,423	-1	-0,946
415,541	-1	-0,936
417,665	-1,5	-1,03
419,783	-1,5	-1,072
421,901	-1,5	-1,076
424,031	-1,5	-1,141
426,155	-2	-1,16
428,279	-1,5	-1,163
430,408	-1,5	-1,159
432,532	-1,5	-1,14
434,656	-2	-1,255
436,774	-2	-1,302
438,904	-2,5	-1,362
441,028	-2	-1,328
443,152	-2	-1,347
445,263	-2	-1,258
447,393	-2	-1,35
449,517	-2,5	-1,39
451,641	-2,5	-1,472
453,759	-2,5	-1,42
455,883	-2,5	-1,455
458,001	-2,5	-1,422
460,125	-2,5	-1,382
462,249	-2,5	-1,427
464,372	-2,5	-1,41
466,502	-2,5	-1,363
468,626	-2,5	-1,377
470,756	-2,5	-1,362
472,88	-2	-1,344
474,998	-2,5	-1,312
477,122	-2	-1,331
479,24	-2	-1,303
481,352	-2	-1,326
483,481	-2	-1,306
485,605	-2,5	-1,421
487,735	-3	-1,524
489,847	-3	-1,497
491,971	-2,5	-1,475
494,095	-2,5	-1,391
496,219	-2,5	-1,486
498,33	-2,5	-1,465
500,448	-2,5	-1,472
502,566	-3	-1,582
504,69	-3	-1,622
506,814	-3,5	-1,646
508,938	-3	-1,494
511,062	-2,5	-1,503
513,192	-3	-1,632
515,322	-3	-1,702
517,445	-3,5	-1,759
519,575	-4	-1,882
521,705	-4	-1,92
523,829	-4	-2,009
525,941	-4	-2,005
528,065	-4,5	-2,114
530,195	-5	-2,216
532,307	-4,5	-2,116
534,424	-4	-2,03
536,548	-4,5	-2,157
538,672	-5	-2,256
540,796	-5	-2,247
542,914	-4,5	-2,151
545,032	-4,5	-2,109
547,156	-4,5	-2,122
549,286	-3	-1,767
551,403	-3	-1,665
553,515	-2,5	-1,566
555,645	-2,5	-1,572
557,763	-2,5	-1,546
559,887	-2,5	-1,501
562,011	-2,5	-1,483
564,141	-3	-1,558
566,259	-2,5	-1,472
568,382	-2	-1,417
570,494	-2	-1,312
572,612	-2	-1,222
574,736	-2	-1,209
576,866	-1,5	-1,236
578,99	-2	-1,245
581,108	-1,5	-1,218
583,232	-2	-1,264
585,355	-2	-1,203
587,473	-2	-1,219
589,591	-2	-1,224
591,715	-2,5	-1,269
593,839	-2	-1,271
595,963	-2	-1,345
598,075	-2	-1,292
600,205	-2	-1,294
602,341	-2	-1,377
604,458	-2	-1,402
606,582	-2	-1,343
608,712	-2,5	-1,392
610,836	-2,5	-1,449
612,954	-2,5	-1,46
615,084	-2,5	-1,566
617,202	-2,5	-1,55
619,326	-2,5	-1,564
621,437	-2,5	-1,544
623,567	-3	-1,592
625,691	-3	-1,707
627,815	-3	-1,732
629,933	-3	-1,747
632,063	-3,5	-1,85
634,187	-4	-1,896
636,305	-3,5	-1,953
638,422	-3,5	-1,959
640,54	-3,5	-1,92
642,664	-3,5	-1,914
644,782	-3	-1,833
646,906	-3,5	-1,83
649,03	-3	-1,802
651,154	-3	-1,709
653,272	-3	-1,704
655,401	-3	-1,79
657,519	-3	-1,746
659,649	-3,5	-1,726
661,767	-3	-1,7
663,885	-3	-1,609
666,009	-3	-1,622
668,127	-3	-1,692
670,245	-3,5	-1,755
672,369	-3	-1,758
674,492	-3	-1,75
676,61	-3	-1,739
678,728	-3	-1,718
680,846	-3	-1,642
682,976	-3	-1,692
685,1	-3	-1,765
687,224	-3	-1,777
689,342	-3	-1,814
691,465	-3	-1,785
693,583	-3,5	-1,737
695,701	-3	-1,779
697,827	-3,5	-1,814
699,955	-4	-1,942
702,073	-4	-2,022
704,197	-4,5	-2,084
706,315	-4,5	-2,116
708,432	-4,5	-2,168
710,556	-4,5	-2,16
712,68	-5	-2,254
714,804	-5,5	-2,294
716,916	-5	-2,285
719,046	-6	-2,392
721,164	-6	-2,429
723,288	-6	-2,458
725,406	-6	-2,416
727,529	-6	-2,477
729,647	-6,5	-2,541
731,765	-7	-2,578
733,889	-7	-2,623
736,007	-7,5	-2,628
738,125	-7	-2,622
740,249	-7,5	-2,656
742,373	-7,5	-2,745
744,496	-8	-2,791
746,62	-9,5	-2,976
748,738	-9	-2,959
750,868	-10	-3,081
752,98	-10	-3,073
755,104	-10,5	-3,13
757,228	-10,5	-3,196
759,346	-11	-3,236
761,469	-11	-3,228
763,593	-11	-3,258
765,711	-10,5	-3,22
767,835	-11	-3,292
769,959	-12,5	-3,338
772,071	-12	-3,33
774,195	-12	-3,342
776,319	-13	-3,381
778,442	-13,5	-3,413
780,56	-13,5	-3,43
782,678	-13,5	-3,433
784,802	-13,5	-3,44
786,926	-14	-3,447
789,044	-14	-3,446
791,162	-14	-3,461
793,28	-14,5	-3,46
795,409	-14,5	-3,472
797,527	-14,5	-3,471
799,651	-14,5	-3,477
801,769	-14,5	-3,468
803,893	-14	-3,464
806,011	-14	-3,466
808,141	-14,5	-3,474
810,265	-14,5	-3,476
812,389	-14,5	-3,477
814,512	-14,5	-3,477
816,636	-14,5	-3,474
818,766	-14	-3,469
820,884	-14,5	-3,474
823,014	-14,5	-3,478
825,132	-14	-3,479
827,262	-14,5	-3,486
829,38	-14,5	-3,485
831,503	-15	-3,486
833,627	-14,5	-3,488
835,739	-14,5	-3,49
837,863	-14,5	-3,491
839,981	-15	-3,492
842,099	-15	-3,493
844,217	-14,5	-3,494
846,341	-14,5	-3,495
848,47	-14,5	-3,496
850,594	-14,5	-3,497
852,718	-15	-3,498
854,842	-14,5	-3,498
856,966	-14,5	-3,498
859,084	-15	-3,498
861,208	-15	-3,499
863,332	-14,5	-3,499
865,443	-15	-3,498
867,567	-15	-3,498
869,685	-14,5	-3,498
871,803	-15	-3,498
873,921	-15	-3,499
876,051	-14,5	-3,499
878,175	-14,5	-3,499
880,287	-14,5	-3,499
882,405	-14,5	-3,499
884,528	-14,5	-3,499
886,652	-14,5	-3,499
888,764	-14,5	-3,499
890,882	-14,5	-3,499
893	-14,5	-3,5
895,118	-14,5	-3,498
897,236	-14,5	-3,496
899,366	-14,5	-3,439
901,483	-14,5	-3,393
903,601	-14,5	-3,413
905,713	-14,5	-3,332
907,837	-14,5	-3,248
909,955	-14,5	-3,26
912,073	-14,5	-3,237
914,197	-14,5	-3,236
916,315	-13,5	-3,128
918,445	-13,5	-3,057
920,556	-13,5	-3,088
922,68	-13,5	-3,03
924,804	-13	-2,958
926,928	-11,5	-2,891
929,046	-12	-2,887
931,176	-11	-2,827
933,294	-11	-2,848
935,423	-11,5	-2,81
937,535	-11	-2,83
939,659	-11	-2,81
941,777	-11	-2,812
943,901	-10,5	-2,788
946,025	-12	-2,773
948,155	-9,5	-2,671
950,273	-10	-2,682
952,397	-9	-2,546
954,514	-8	-2,45
956,638	-7,5	-2,33
958,756	-7	-2,288
960,88	-6,5	-2,228
963,004	-6	-2,144
965,122	-6	-2,139
967,24	-5,5	-2,048
969,364	-6	-2,035
971,487	-4,5	-1,969
973,605	-4	-1,889
975,729	-4	-1,829
977,847	-4	-1,854
979,971	-3,5	-1,762
982,089	-3,5	-1,724
984,207	-3	-1,634
986,325	-3	-1,533
988,448	-2,5	-1,446
990,56	-2,5	-1,459
992,678	-2,5	-1,454
994,796	-2,5	-1,504
996,914	-2,5	-1,525
999,026	-2,5	-1,545
1001,15	-3	-1,543
1003,262	-3	-1,573
1005,385	-2,5	-1,522
1007,509	-3	-1,668
1009,621	-4,5	-1,825
1011,739	-4,5	-1,826
1013,863	-3,5	-1,768
1015,975	-4,5	-1,874
1018,093	-4	-1,874
1020,211	-5	-1,998
1022,329	-5	-2,01
1024,446	-5,5	-2,058
1026,57	-5,5	-2,149
1028,688	-6,5	-2,262
1030,806	-7	-2,342
1032,924	-7,5	-2,394
1035,042	-7,5	-2,454
1037,16	-9	-2,572
1039,284	-9	-2,6
1041,395	-10	-2,679
1043,513	-10	-2,721
1045,637	-10,5	-2,772
1047,755	-11	-2,825
1049,867	-11,5	-2,93
1051,991	-12,5	-3,008
1054,109	-13,5	-3,114
1056,233	-14	-3,122
1058,35	-14	-3,192
1060,462	-14	-3,251
1062,574	-13,5	-3,174
1064,692	-14	-3,255
1066,81	-14	-3,31
1068,934	-14	-3,29
1071,052	-14	-3,371
1073,176	-14,5	-3,358
1075,293	-14	-3,376
1077,411	-14	-3,438
1079,529	-14	-3,382
1081,647	-14	-3,365
1083,759	-14	-3,401
1085,883	-14	-3,489
1087,995	-14	-3,499
1090,113	-14	-3,499
1092,231	-14,5	-3,499
1094,348	-14,5	-3,499
1096,466	-14,5	-3,499
1098,584	-14	-3,499
1100,702	-14	-3,499
1102,814	-14	-3,499
1104,932	-14,5	-3,499
1107,05	-14,5	-3,499
1109,168	-14,5	-3,498
1111,279	-14,5	-3,498
1113,397	-14,5	-3,498
1115,515	-14	-3,498
1117,639	-14	-3,498
1119,757	-14	-3,498
1121,881	-14	-3,498
1123,999	-14	-3,498
1126,123	-14	-3,498
1128,24	-14	-3,498
1130,358	-14	-3,497
1132,476	-14	-3,496
1134,594	-14	-3,496
1136,712	-14	-3,496
1138,824	-14	-3,496
1140,948	-14	-3,497
1143,06	-14	-3,496
1145,177	-14	-3,496
1147,295	-14	-3,496
1149,413	-14,5	-3,496
1151,531	-14,5	-3,495
1153,651	-14	-3,496
1155,767	-14	-3,497
1157,879	-14	-3,497
1159,997	-14	-3,497
1162,114	-14	-3,496
1164,232	-14	-3,498
1166,35	-14,5	-3,498
1168,468	-14	-3,498
1170,586	-14	-3,498
1172,704	-14,5	-3,498
1174,828	-14	-3,498
1176,952	-14	-3,498
1179,07	-14	-3,497
1181,181	-14,5	-3,498
1183,305	-14	-3,497
1185,423	-14	-3,497
1187,535	-14	-3,495
1189,659	-14	-3,495
1191,777	-14	-3,494
1193,895	-14	-3,491
1196,013	-14	-3,49
1198,13	-14	-3,488
1200,248	-14	-3,487
1202,372	-13,5	-3,485
1204,49	-14	-3,483
1206,608	-13,5	-3,473
1208,732	-13,5	-3,472
1210,85	-13,5	-3,446
1212,974	-12,5	-3,431
1215,092	-13	-3,426
1217,209	-12,5	-3,418
1219,327	-11,5	-3,379
1221,445	-11	-3,346
1223,563	-10,5	-3,273
1225,687	-10	-3,282
1227,805	-10,5	-3,283
1229,917	-10	-3,221
1232,04	-10	-3,233
1234,158	-9,5	-3,145
1236,276	-9,5	-3,14
1238,4	-10	-3,221
1240,518	-10	-3,224
1242,642	-10	-3,262
1244,76	-10	-3,241
1246,884	-9,5	-3,196
1249,002	-9,5	-3,159
1251,119	-9	-3,1
1253,243	-8,5	-3,05
1255,355	-8	-3,025
1257,479	-8	-2,99
1259,597	-7,5	-2,894
1261,715	-8	-2,909
1263,833	-8	-2,93
1265,945	-7,5	-2,858
1268,068	-7,5	-2,855
1270,186	-7,5	-2,776
1272,31	-7	-2,725
1274,434	-7	-2,766
1276,552	-6,5	-2,738
1278,67	-6,5	-2,749
1280,782	-5,5	-2,627
1282,906	-6	-2,604
1285,023	-5,5	-2,577
1287,147	-6	-2,692
1289,265	-6	-2,643
1291,383	-5,5	-2,601
1293,507	-6	-2,651
1295,619	-5,5	-2,579
1297,743	-5,5	-2,592
1299,861	-5	-2,533
1301,979	-5	-2,533
1304,102	-5,5	-2,643
1306,22	-5,5	-2,605
1308,344	-6	-2,596
1310,462	-5,5	-2,56
1312,586	-6	-2,616
1314,704	-5,5	-2,53
1316,828	-5,5	-2,528
1318,952	-5,5	-2,552
1321,069	-6	-2,61
1323,193	-5,5	-2,619
1325,311	-5,5	-2,597
1327,429	-5,5	-2,612
1329,553	-5,5	-2,594
1331,671	-5,5	-2,636
1333,789	-6	-2,658
1335,901	-5,5	-2,575
1338,024	-5	-2,497
1340,142	-5	-2,444
1342,26	-4,5	-2,354
1344,378	-4	-2,262
1346,496	-3,5	-2,182
1348,608	-3	-2,061
1350,732	-3,5	-2,096
1352,85	-3,5	-2,117
1354,967	-4	-2,196
1357,085	-4	-2,164
1359,203	-4	-2,101
1361,321	-3	-1,966
1363,439	-3	-1,955
1365,563	-3	-1,947
1367,681	-3	-1,931
1369,793	-2,5	-1,869
1371,911	-2,5	-1,81
1374,028	-2,5	-1,841
1376,152	-3	-1,92
1378,27	-3	-1,909
1380,382	-2,5	-1,867
1382,506	-2,5	-1,748
1384,624	-2	-1,657
1386,742	-2	-1,594
1388,866	-2,5	-1,66
1390,977	-2	-1,586
1393,101	-2,5	-1,57
1395,219	-2	-1,484
1397,337	-1,5	-1,329
1399,461	-1,5	-1,422
1401,579	-1	-1,198
1403,697	-1	-1,076
1405,821	-1,5	-1,196
1407,938	-1,5	-1,185
1410,05	-1,5	-1,171
1412,174	-1	-1,077
1414,292	-0,5	-0,906
1416,416	-0,5	-0,952
1418,534	-0,5	-0,915
1420,652	-0,5	-0,846
1422,77	0	-0,802
1424,887	0	-0,739
1427,011	0	-0,731
1429,129	0	-0,774
1431,247	0	-0,773
1433,371	0	-0,708
1435,483	0	-0,645
1437,607	0	-0,642
1439,725	0	-0,641
1441,843	0	-0,646
1443,966	0	-0,692
1446,078	0,5	-0,571
1448,196	1	-0,517
1450,314	1	-0,511
1452,432	1,5	-0,506
1454,55	1,5	-0,463
1456,674	1,5	-0,429
1458,792	2	-0,396
1460,915	1,5	-0,442
1463,033	1,5	-0,459
1465,151	2	-0,367
1467,275	2	-0,268
1469,387	2	-0,285
1471,505	2,5	-0,196
1473,623	2	-0,108
1475,741	2	-0,065
1477,858	2	-0,036
1479,982	2	-0,018
1482,1	2,5	0
1484,218	2	0
1486,342	2	0
1488,46	2,5	-0,001
1490,572	2	-0,001
1492,696	2,5	-0,001
1494,814	2	-0,001
1496,937	2	-0,001
1499,055	2	-0,001
1501,173	2	-0,001
1503,297	2	-0,001
1505,415	2	-0,001
1507,533	2,5	-0,002
1509,657	2	-0,002
1511,775	2	-0,002
1513,886	2	-0,002
1516,01	2	-0,002
1518,128	2	-0,002
1520,252	2	-0,002
1522,37	2,5	-0,002
1524,488	2	-0,002
1526,606	2	-0,002
1528,718	2,5	-0,002
1530,835	2,5	-0,002
1532,947	2,5	-0,002
1535,065	2	-0,002
1537,183	2	-0,001
1539,307	2	-0,001
1541,419	2	-0,001
1543,537	2	-0,001
1545,655	2,5	-0,001
1547,772	2,5	-0,001
1549,896	2	-0,002
1552,014	2,5	-0,001
1554,126	2	-0,001
1556,238	2,5	-0,001
1558,356	2,5	-0,001
1560,474	2,5	-0,001
1562,598	2,5	-0,001
1564,716	2,5	-0,001
1566,827	2	-0,001
1568,951	2	-0,001
1571,069	2	-0,001
1573,187	2,5	-0,001
1575,299	2,5	-0,001
1577,423	2	-0,001
1579,541	2,5	-0,001
1581,659	2,5	-0,001
1583,782	2,5	-0,001
1585,9	2,5	-0,001
1588,012	2,5	-0,001
1590,13	2,5	-0,002
1592,248	2,5	-0,002
1594,366	2,5	-0,002
1596,478	2,5	-0,003
1598,596	2,5	-0,004
1600,719	2,5	-0,004
1602,843	2,5	-0,004
1604,961	2,5	-0,004
1607,085	2,5	-0,003
1609,203	2	-0,002
1611,315	2,5	-0,002
1613,439	2,5	-0,001
1615,551	2	-0,001
1617,668	2,5	-0,001
1619,786	2,5	-0,001
1621,904	2,5	-0,001
1624,016	2,5	0
1626,128	2	-0,022
1628,246	2	-0,058
1630,364	2	-0,13
1632,488	2	-0,158
1634,605	2	-0,158
1636,717	2	-0,153
1638,835	2,5	-0,052
1640,953	2,5	-0,015
1643,071	2,5	-0,141
1645,189	2	-0,036
1647,313	2	-0,142
1649,431	2	-0,142
1651,549	2	-0,118
1653,66	2	-0,071
1655,778	2	-0,018
1657,896	2	0
1660,02	2	0
1662,138	2	-0,001
1664,256	2,5	-0,001
1666,374	2,5	-0,001
1668,492	2	-0,001
1670,609	2,5	-0,001
1672,727	2,5	-0,001
1674,845	2,5	-0,001
1676,963	2,5	0
1679,087	2	-0,001
1681,205	2,5	-0,001
1683,323	2	-0,001
1685,441	2	-0,001
1687,558	2,5	0
1689,67	2	-0,012
1691,794	2	-0,071
1693,912	2	-0,102
1696,03	2	-0,131
1698,148	2,5	-0,19
1700,266	2,5	-0,238
1702,378	2,5	-0,223
1704,502	1,5	-0,381
1706,613	1,5	-0,412
1708,731	1,5	-0,422
1710,849	2	-0,264
1712,973	1,5	-0,446
1715,085	0,5	-0,612
1717,203	1,5	-0,36
1719,321	1,5	-0,323
1721,439	2,5	-0,124
1723,556	2,5	0
1725,674	2	0
1727,792	2,5	0
1729,91	2,5	0
1732,028	2,5	-0,001
1734,146	2	0
1736,27	2	-0,006
1738,388	2,5	-0,046
1740,505	2	-0,146
1742,617	2,5	-0,188
1744,735	2	-0,276
1746,865	1,5	-0,38
1748,983	1,5	-0,39
1751,095	1	-0,577
1753,219	-0,5	-0,782
1755,331	-0,5	-0,934
1757,449	0	-0,815
1759,56	0	-0,754
1761,678	-0,5	-0,8
1763,796	0	-0,752
1765,908	0	-0,712
1768,026	0	-0,691
1770,144	0	-0,764
1772,262	-0,5	-0,913
1774,374	-0,5	-0,876
1776,491	0	-0,898
1778,609	-0,5	-1,025
1780,733	-1	-1,214
1782,845	-1	-1,302
1784,963	-1,5	-1,31
1787,081	-1,5	-1,497
1789,199	-1,5	-1,608
1791,317	-2	-1,613
1793,434	-2	-1,644
1795,552	-1,5	-1,611
1797,664	-2,5	-1,811
1799,782	-2,5	-1,815
1801,9	-3	-1,97
1804,018	-3,5	-2,118
1806,136	-3	-2,059
1808,248	-3	-1,921
1810,365	-2,5	-1,81
1812,477	-1,5	-1,589
1814,595	-2	-1,602
1816,713	-2	-1,545
1818,831	-2	-1,545
1820,943	-1,5	-1,52
1823,061	-1,5	-1,534
1825,179	-1,5	-1,519
1827,296	-2	-1,519
1829,426	-1,5	-1,546
1831,538	-2	-1,547
1833,656	-1,5	-1,34
1835,768	-1	-1,059
1837,892	-1	-1,051
1840,01	-1	-1,083
1842,128	-0,5	-0,929
1844,252	0	-0,725
1846,369	-0,5	-0,841
1848,487	-0,5	-0,884
1850,611	-0,5	-0,924
1852,729	0	-0,837
1854,847	0,5	-0,688
1856,965	1,5	-0,437
1859,089	1,5	-0,393
1861,207	2	-0,29
1863,324	2,5	-0,23
1865,436	2	-0,21
1867,554	2	-0,102
1869,666	2,5	-0,1
1871,784	2,5	-0,1
1873,902	2	-0,076
1876,02	2,5	-0,001
1878,138	2,5	-0,001
1880,249	2,5	-0,001
1882,373	2	-0,001
1884,491	2,5	-0,001
1886,609	2	-0,002
1888,733	2,5	-0,002
1890,851	2,5	-0,002
1892,969	2,5	-0,002
1895,093	2,5	-0,003
1897,211	2,5	-0,004
1899,322	2	-0,006
1901,44	2,5	-0,007
1903,552	2,5	-0,008
1905,67	2,5	-0,009
1907,788	2,5	-0,011
1909,906	2	-0,02
1912,03	2	-0,025
1914,142	2	-0,036
1916,259	1,5	-0,067
1918,389	1,5	-0,07
1920,507	1,5	-0,105
1922,625	1,5	-0,116
1924,737	1	-0,129
1926,861	1,5	-0,122
1928,973	0,5	-0,231
1931,091	1	-0,247
1933,202	0,5	-0,299
1935,326	0,5	-0,384
1937,444	0,5	-0,354
1939,562	0	-0,486
1941,686	0	-0,604
1943,804	0	-0,58
1945,922	0	-0,654
1948,04	0	-0,587
1950,164	0	-0,635
1952,281	0	-0,7
1954,399	0	-0,753
1956,523	-0,5	-0,835
1958,635	-1	-1,099
1960,753	-1	-1,084
1962,865	-1	-1,214
1964,989	-1	-1,191
1967,107	-1,5	-1,324
1969,224	-1,5	-1,341
1971,336	-2	-1,456
1973,46	-2	-1,483
1975,578	-1,5	-1,442
1977,69	-1,5	-1,408
1979,808	-1	-1,324
1981,926	-2	-1,575
1984,044	-2	-1,538
1986,162	-2,5	-1,613
1988,279	-2,5	-1,645
1990,397	-4	-1,901
1992,515	-3,5	-1,811
1994,633	-3	-1,742
1996,751	-3,5	-1,848
1998,869	-3	-1,79
2000,987	-2,5	-1,678
2003,104	-3	-1,684
2005,222	-2,5	-1,68
2007,34	-2,5	-1,686
2009,452	-3	-1,748
2011,57	-3	-1,679
2013,688	-2,5	-1,658
2015,806	-2	-1,509
2017,924	-2	-1,43
2020,042	-1	-1,234
2022,165	-1	-1,123
2024,277	-0,5	-1,022
2026,395	-0,5	-0,948
2028,513	-0,5	-0,964
2030,631	-0,5	-0,928
2032,749	-0,5	-0,961
2034,873	-0,5	-0,92
2036,985	-0,5	-0,956
2039,102	-0,5	-0,903
2041,22	0	-0,818
2043,338	0	-0,782
2045,456	0	-0,733
2047,574	0	-0,702
2049,692	0	-0,788
2051,804	0	-0,829
2053,928	0	-0,672
2056,045	0	-0,624
2058,163	0	-0,555
2060,281	0	-0,551
2062,399	0	-0,534
2064,517	0	-0,529
2066,629	0	-0,559
2068,753	0	-0,446
2070,871	0	-0,36
2072,988	0,5	-0,324
2075,106	0,5	-0,324
2077,218	0,5	-0,276
2079,336	1	-0,215
2081,454	1	-0,18
2083,566	1	-0,14
2085,69	1	-0,148
2087,808	1,5	-0,11
2089,919	1,5	-0,113
2092,037	1,5	-0,098
2094,155	1,5	-0,105
2096,273	1,5	-0,113
2098,391	1	-0,115
2100,509	1	-0,153
2102,627	1	-0,18
2104,745	0,5	-0,218
2106,857	0,5	-0,256
2108,98	0,5	-0,242
2111,098	1	-0,173
2113,21	0,5	-0,221
2115,328	0,5	-0,2
2117,446	1	-0,188
2119,558	1	-0,256
2121,676	1	-0,232
2123,794	1	-0,262
2125,923	0,5	-0,227
2128,047	0,5	-0,237
2130,165	0,5	-0,222
2132,277	1	-0,236
2134,401	0,5	-0,291
2136,513	0,5	-0,353
2138,631	0,5	-0,47
2140,749	0,5	-0,343
2142,872	0,5	-0,393
2144,99	0,5	-0,394
2147,108	0	-0,372
2149,22	0,5	-0,418
2151,338	0	-0,532
2153,462	0,5	-0,304
2155,58	1	-0,241
2157,698	1	-0,271
2159,827	1	-0,184
2161,945	1	-0,148
2164,063	1	-0,139
2166,175	1	-0,148
2168,287	1	-0,14
2170,411	1,5	-0,126
2172,523	1,5	-0,11
2174,641	1,5	-0,103
2176,765	1	-0,098
2178,882	1	-0,135
2181	1	-0,138
2183,118	1	-0,126
2185,236	1,5	-0,096
2187,354	2	-0,05
2189,472	2,5	-0,026
2191,59	2,5	-0,016
2193,708	2,5	-0,01
2195,825	2	-0,009
2197,943	2,5	-0,01
2200,061	2,5	-0,008
2202,179	2	-0,007
2204,303	2	-0,005
2206,421	2,5	-0,004
2208,533	2,5	-0,003
2210,651	2,5	-0,002
2212,768	2,5	-0,002
2214,886	2,5	-0,001
2217,004	2	-0,001
2219,122	2,5	-0,001
2221,24	2,5	-0,001
2223,358	2	-0,001
2225,476	2	0
2227,588	2	0
2229,706	2	-0,015
2231,823	2	-0,027
2233,941	2	-0,057
2236,059	2	-0,07
2238,177	2	-0,07
2240,295	2,5	-0,166
2242,419	2	-0,216
2244,531	2	-0,143
2246,649	2,5	-0,156
2248,766	2,5	-0,184
2250,884	2,5	-0,148
2253,002	2	-0,003
2255,12	2	0
2257,238	2	0
2259,362	2	0
2261,48	2,5	0
2263,592	2	-0,001
2265,709	2,5	0
2267,833	2	-0,001
2269,951	2	-0,002
2272,069	2	-0,002
2274,187	2,5	-0,001
2276,299	2,5	-0,001
2278,417	2,5	-0,001
2280,535	2,5	-0,001
2282,652	2,5	-0,001
2284,776	2,5	-0,001
2286,888	2,5	-0,001
2289,006	2,5	0
2291,124	2,5	-0,005
2293,242	2,5	0
2295,36	2,5	0
2297,472	2	-0,124
2299,59	2	-0,264
2301,713	1,5	-0,433
2303,831	2	-0,184
2305,943	2	-0,034
2308,061	2	-0,011
2310,179	2	0
2312,297	2	0
2314,409	2	0
2316,527	2	-0,001
2318,644	2,5	-0,001
2320,768	2	0
2322,886	2,5	0
2325,004	2,5	-0,004
2327,122	2	-0,03
2329,246	2	-0,015
2331,358	2	-0,083
2333,476	2,5	-0,046
2335,593	2,5	-0,046
2337,711	2	-0,076
2339,835	2	-0,142
2341,953	2	-0,004
2344,071	2,5	-0,077
2346,189	2	-0,141
2348,307	2	-0,083
2350,425	2,5	-0,157
2352,542	2	-0,197
2354,66	2,5	-0,218
2356,778	2	-0,257
2358,896	2	-0,212
2361,008	2,5	-0,13
2363,126	2	-0,108
2365,244	2,5	-0,114
2367,368	2,5	-0,178
2369,48	2	-0,179
2371,597	2,5	-0,126
2373,715	2	-0,19
2375,833	2,5	-0,156
2377,951	2	-0,108
2380,069	2	-0,064
2382,187	2	-0,077
2384,299	2,5	-0,058
2386,417	2,5	-0,121
2388,535	2,5	-0,113
2390,652	2,5	-0,089
2392,77	2,5	-0,106
2394,9	2,5	-0,206
2397,018	2	-0,125
2399,136	2	-0,189
2401,254	2	-0,109
2403,366	2	-0,083
2405,477	2,5	-0,012
2407,595	2	0
2409,707	2	-0,001
2411,825	2,5	-0,002
2413,943	2,5	-0,006
2416,067	2,5	-0,007
2418,185	2,5	-0,007
2420,297	2,5	-0,01
2422,421	2	-0,01
2424,538	2	-0,01
2426,65	2,5	-0,012
2428,768	2,5	-0,015
2430,88	2,5	-0,024
2433,004	2,5	-0,018
2435,122	2,5	-0,015
2437,24	2,5	-0,013
2439,358	2,5	-0,015
2441,475	2,5	-0,012
2443,599	2,5	-0,009
2445,717	2,5	-0,006
2447,835	2,5	-0,004
2449,947	2,5	-0,005
2452,071	2,5	-0,004
2454,189	2,5	-0,004
2456,301	2,5	-0,004
2458,412	2,5	-0,004
2460,536	2,5	-0,003
2462,654	2,5	-0,003
2464,772	2,5	-0,003
2466,89	2,5	-0,002
2469,008	2,5	-0,002
2471,126	2,5	-0,002
2473,244	2,5	-0,002
2475,355	2,5	-0,002
2477,473	2,5	-0,002
2479,597	2,5	-0,001
2481,715	2,5	-0,001
2483,827	2,5	-0,001
2485,945	2	-0,001
2488,063	2,5	-0,001
2490,181	2	-0,001
2492,299	2,5	-0,001
2494,416	2	-0,001
2496,534	2,5	-0,001
2498,652	2,5	-0,001
2500,77	2,5	0
2502,888	2,5	0
2505	2	0
2507,118	2	-0,013
2509,236	2	-0,012
2511,353	2,5	-0,012
2513,471	2	-0,015
2515,589	2	-0,046
2517,707	2,5	-0,096
2519,825	2	-0,036
2521,943	2	-0,036
2524,055	2	-0,004
2526,167	2	0
2528,284	2	0
2530,408	2	-0,001
2532,52	2	-0,001
2534,638	2	-0,001
2536,756	2	-0,001
2538,874	2	-0,001
2540,986	2,5	0
2543,098	2,5	-0,001
2545,215	2,5	-0,001
2547,333	2	0
2549,451	2,5	0
2551,563	2,5	0
2553,675	2,5	0
2555,793	2	-0,009
2557,917	2,5	-0,088
2560,035	2,5	-0,089
2562,153	2,5	-0,243
2564,27	1,5	-0,394
2566,394	1,5	-0,44
2568,512	2	-0,471
2570,63	2	-0,434
2572,748	2	-0,369
2574,866	1,5	-0,4
2576,984	1,5	-0,443
2579,102	1,5	-0,453
2581,219	1,5	-0,448
2583,331	1,5	-0,401
2585,461	1,5	-0,494
2587,579	2	-0,434
2589,697	1,5	-0,487
2591,815	0,5	-0,62
2593,933	0,5	-0,635
2596,057	0	-0,787
2598,174	-0,5	-0,946
2600,292	-0,5	-0,967
2602,41	-0,5	-1,026
2604,528	-0,5	-1,073
2606,646	-0,5	-1,094
2608,764	-0,5	-1,184
2610,882	-0,5	-1,045
2613	-0,5	-1,056
2615,117	-0,5	-1,045
2617,241	-0,5	-1,005
2619,359	0	-0,898
2621,477	-0,5	-1,047
2623,595	-0,5	-1,115
2625,713	-0,5	-1,115
2627,831	-0,5	-1,173
2629,949	-1	-1,236
2632,067	-1	-1,263
2634,184	-1	-1,31
2636,302	-1,5	-1,357
2638,42	-1	-1,352
2640,538	-1	-1,432
2642,656	-1,5	-1,554
2644,774	-1,5	-1,516
2646,892	-1,5	-1,51
2649,01	-1,5	-1,504
2651,127	-1,5	-1,532
2653,245	-1,5	-1,53
2655,363	-1,5	-1,578
2657,481	-2	-1,61
2659,599	-1,5	-1,534
2661,717	-1,5	-1,502
2663,835	-1,5	-1,496
2665,953	-1	-1,39
2668,07	-1	-1,309
2670,188	-1	-1,256
2672,306	-1	-1,16
2674,424	-1	-1,149
2676,548	-1	-1,179
2678,666	-1	-1,28
2680,784	-1	-1,342
2682,896	-1	-1,392
2685,013	-1,5	-1,418
2687,137	-1,5	-1,374
2689,255	-1,5	-1,39
2691,373	-1,5	-1,416
2693,491	-1,5	-1,462
2695,609	-1,5	-1,505
2697,733	-1,5	-1,508
2699,851	-1,5	-1,545
2701,969	-1,5	-1,545
2704,086	-1,5	-1,577
2706,204	-1,5	-1,49
2708,322	-1,5	-1,491
2710,446	-1,5	-1,595
2712,564	-2	-1,641
2714,682	-2	-1,737
2716,8	-2	-1,763
2718,924	-2,5	-1,932
2721,035	-2,5	-1,991
2723,153	-2,5	-2,087
2725,271	-3	-2,117
2727,383	-3	-2,183
2729,507	-3,5	-2,336
2731,625	-3,5	-2,34
2733,743	-4	-2,409
2735,861	-4	-2,472
2737,972	-4,5	-2,527
2740,09	-4,5	-2,531
2742,214	-4,5	-2,556
2744,332	-4,5	-2,63
2746,45	-5	-2,683
2748,568	-5	-2,757
2750,692	-6	-2,919
2752,804	-7	-3,054
2754,922	-7	-3,086
2757,039	-8,5	-3,244
2759,157	-9	-3,32
2761,275	-9,5	-3,35
2763,399	-10	-3,408
2765,517	-10	-3,39
2767,635	-9,5	-3,36
2769,753	-10	-3,4
2771,865	-9	-3,358
2773,988	-9,5	-3,392
2776,1	-10	-3,396
2778,218	-10	-3,419
2780,336	-10,5	-3,445
2782,454	-10,5	-3,459
2784,572	-10,5	-3,471
2786,69	-11	-3,481
2788,808	-11	-3,482
2790,925	-11	-3,486
2793,037	-11	-3,487
2795,161	-11	-3,491
2797,279	-11	-3,491
2799,397	-11	-3,493
2801,509	-11	-3,493
2803,627	-11	-3,494
2805,751	-11	-3,493
2807,868	-11	-3,492
2809,986	-11	-3,494
2812,104	-11	-3,495
2814,222	-11	-3,494
2816,34	-11	-3,496
2818,458	-11	-3,491
2820,576	-11	-3,49
2822,688	-11	-3,491
2824,806	-11	-3,492
2826,917	-11	-3,489
2829,041	-10,5	-3,479
2831,159	-10,5	-3,482
2833,271	-10,5	-3,483
2835,389	-11	-3,483
2837,507	-10,5	-3,473
2839,631	-10,5	-3,474
2841,749	-10,5	-3,476
2843,866	-10,5	-3,481
2845,984	-10	-3,468
2848,102	-10,5	-3,478
2850,22	-10,5	-3,482
2852,338	-10,5	-3,484
2854,456	-10,5	-3,486
2856,568	-10,5	-3,484
2858,68	-10,5	-3,485
2860,797	-10,5	-3,488
2862,921	-10,5	-3,488
2865,039	-10,5	-3,489
2867,151	-10,5	-3,489
2869,269	-10,5	-3,492
2871,381	-10,5	-3,492
2873,499	-10,5	-3,494
2875,611	-10,5	-3,493
2877,728	-10,5	-3,496
2879,846	-10,5	-3,496
2881,964	-10,5	-3,496
2884,076	-10,5	-3,496
2886,2	-10,5	-3,497
2888,318	-10,5	-3,498
2890,436	-10,5	-3,498
2892,554	-10,5	-3,498
2894,678	-10,5	-3,499
2896,795	-10,5	-3,499
2898,913	-10,5	-3,499
2901,031	-10,5	-3,499
2903,149	-10,5	-3,499
2905,267	-10,5	-3,499
2907,391	-10,5	-3,499
2909,503	-10,5	-3,499
2911,621	-10,5	-3,499
2913,732	-10,5	-3,499
2915,85	-10,5	-3,499
2917,968	-10,5	-3,5
2920,086	-10,5	-3,499
2922,204	-10,5	-3,499
2924,322	-10	-3,499
2926,434	-10	-3,499
2928,546	-10	-3,499
2930,663	-10	-3,498
2932,781	-10	-3,498
2934,893	-10	-3,499
2937,005	-10	-3,498
2939,123	-10	-3,498
2941,241	-10	-3,499
2943,353	-10	-3,499
2945,471	-10	-3,499
2947,588	-10	-3,499
2949,706	-10	-3,499
2951,824	-10	-3,499
2953,942	-10	-3,499
2956,06	-10	-3,499
2958,172	-10	-3,499
2960,29	-10	-3,499
2962,402	-10	-3,499
2964,526	-10	-3,499
2966,643	-10	-3,499
2968,761	-10	-3,499
2970,873	-10	-3,499
2972,991	-10	-3,499
2975,109	-10	-3,499
2977,227	-10	-3,499
2979,339	-9,5	-3,499
2981,457	-10	-3,499
2983,574	-9,5	-3,498
2985,698	-10	-3,499
2987,816	-9,5	-3,5
2989,934	-10	-3,466
2992,052	-10	-3,38
2994,17	-10	-3,294
2996,288	-10	-3,228
2998,406	-9	-3,165
3000,517	-9	-3,088
3002,635	-9	-3,04
3004,747	-8,5	-2,995
3006,871	-9	-3,024
3008,989	-8,5	-3,009
3011,107	-7	-2,876
3013,219	-6	-2,827
3015,337	-5,5	-2,778
3017,455	-6	-2,742
3019,578	-5	-2,685
3021,69	-6	-2,78
3023,814	-6	-2,756
3025,926	-6	-2,748
3028,044	-6	-2,782
3030,168	-5,5	-2,715
3032,286	-5	-2,661
3034,398	-4,5	-2,602
3036,515	-4,5	-2,554
3038,633	-4,5	-2,458
3040,751	-4	-2,347
3042,869	-3,5	-2,284
3044,987	-3,5	-2,279
3047,099	-3,5	-2,268
3049,217	-3	-2,182
3051,329	-4	-2,383
3053,452	-4	-2,322
3055,564	-4	-2,293
3057,682	-3	-2,161
3059,8	-2,5	-2,129
3061,918	-2,5	-2,114
3064,036	-2,5	-2,067
3066,154	-2,5	-2,118
3068,272	-2,5	-2,056
3070,389	-2,5	-2,009
3072,501	-2	-1,938
3074,619	-2	-1,933
3076,737	-1,5	-1,897
3078,849	-2,5	-2,001
3080,967	-2	-1,942
3083,085	-2,5	-2,044
3085,203	-2,5	-2,043
3087,321	-2,5	-2,056
3089,438	-2,5	-2,056
3091,556	-2	-2,036
3093,674	-2	-1,998
3095,792	-3	-2,322
3097,91	-3,5	-2,282
3100,034	-3	-2,283
3102,152	-3	-2,278
3104,27	-3	-2,253
3106,387	-4,5	-2,498
3108,505	-6	-2,784
3110,617	-7	-2,985
3112,741	-7	-2,95
3114,859	-6,5	-2,945
3116,971	-6,5	-2,982
3119,089	-7	-2,943
3121,207	-6	-2,892
3123,324	-6,5	-2,912
3125,442	-7	-2,973
3127,56	-8	-3,104
3129,672	-7,5	-3,13
3131,79	-7,5	-3,104
3133,914	-6,5	-3,005
3136,032	-6,5	-2,968
3138,15	-6,5	-2,99
3140,267	-6,5	-2,996
3142,391	-6,5	-3,008
3144,503	-7,5	-3,06
3146,615	-8	-3,172
3148,733	-8	-3,222
3150,851	-8	-3,206
3152,969	-7,5	-3,201
3155,087	-7,5	-3,222
3157,205	-8	-3,24
3159,322	-7,5	-3,217
3161,44	-8	-3,278
3163,558	-7,5	-3,224
3165,676	-7,5	-3,257
3167,788	-7,5	-3,359
3169,912	-7,5	-3,365
3172,024	-8	-3,421
3174,136	-7,5	-3,45
3176,253	-7,5	-3,426
3177,309	2,5	-0,001