File: Cycling_tests/_50perc/_3gap/entrada/_5.txt
Time (s)	Load (N)	Displacement (mm)
0	0	-0,027
2,128	1	-0,178
4,258	1	-0,24
6,369	1	-0,284
8,481	1	-0,286
10,593	0,5	-0,416
12,705	0,5	-0,423
14,817	1	-0,371
16,929	1	-0,32
19,041	1	-0,257
21,153	1,5	-0,294
23,264	1	-0,339
25,376	1,5	-0,352
27,488	1	-0,348
29,6	1	-0,318
31,712	1,5	-0,324
33,824	1	-0,359
35,936	1	-0,441
38,054	1	-0,45
40,165	1,5	-0,345
42,283	1	-0,451
44,401	0	-0,515
46,519	0	-0,61
48,631	0	-0,569
50,749	0	-0,584
52,873	0	-0,736
54,997	-2	-0,889
57,115	-1,5	-0,92
59,226	-2	-0,976
61,344	-3	-1,071
63,456	-3	-1,109
65,58	-3	-1,155
67,692	-2,5	-1,082
69,816	-3,5	-1,148
71,928	-3	-1,22
74,04	-3,5	-1,194
76,163	-3,5	-1,287
78,281	-4	-1,345
80,399	-4,5	-1,462
82,511	-4	-1,511
84,635	-5	-1,631
86,747	-4,5	-1,596
88,859	-4,5	-1,635
90,976	-5	-1,724
93,088	-5	-1,752
95,2	-5,5	-1,84
97,312	-6	-1,924
99,442	-6,5	-2,081
101,566	-6,5	-2,164
103,678	-7,5	-2,192
105,79	-7,5	-2,29
107,908	-8	-2,426
110,019	-9	-2,515
112,137	-9	-2,525
114,273	-10,5	-2,714
116,385	-10	-2,768
118,497	-11	-2,866
120,621	-11,5	-2,944
122,733	-11,5	-2,914
124,857	-12,5	-3,061
126,969	-12,5	-3,12
129,08	-13,5	-3,236
131,198	-14	-3,287
133,31	-13	-3,314
135,422	-14	-3,319
137,534	-15	-3,35
139,646	-14,5	-3,362
141,77	-15	-3,403
143,881	-15	-3,421
145,993	-16	-3,443
148,105	-15,5	-3,437
150,229	-16	-3,452
152,341	-15,5	-3,448
154,459	-16	-3,464
156,577	-16,5	-3,469
158,689	-16,5	-3,473
160,8	-16,5	-3,481
162,918	-16,5	-3,479
165,03	-16,5	-3,482
167,148	-16,5	-3,485
169,26	-16,5	-3,477
171,372	-16	-3,477
173,49	-16	-3,48
175,602	-16,5	-3,481
177,726	-16,5	-3,486
179,837	-16,5	-3,485
181,949	-16	-3,485
184,061	-16	-3,486
186,173	-16	-3,488
188,285	-16	-3,488
190,397	-16	-3,489
192,509	-16,5	-3,484
194,621	-16	-3,481
196,738	-16	-3,48
198,856	-16	-3,474
200,974	-15,5	-3,469
203,086	-15	-3,47
205,204	-15,5	-3,469
207,316	-16	-3,476
209,428	-16	-3,476
211,54	-15,5	-3,479
213,651	-16	-3,485
215,763	-16	-3,482
217,875	-15	-3,483
219,987	-16	-3,482
222,111	-16	-3,482
224,223	-16	-3,482
226,335	-15,5	-3,486
228,447	-15,5	-3,472
230,558	-15	-3,457
232,676	-15	-3,417
234,8	-15	-3,417
236,918	-15	-3,423
239,036	-15	-3,454
241,154	-15	-3,449
243,266	-15	-3,455
245,384	-15	-3,462
247,496	-15	-3,452
249,614	-15,5	-3,461
251,731	-15	-3,46
253,849	-15	-3,406
255,961	-15	-3,417
258,079	-14	-3,355
260,197	-14,5	-3,4
262,309	-15	-3,408
264,427	-15	-3,416
266,544	-14,5	-3,428
268,656	-15	-3,425
270,768	-14,5	-3,407
272,886	-14,5	-3,392
275,004	-14,5	-3,378
277,116	-12	-3,229
279,234	-10,5	-2,966
281,346	-10,5	-2,989
283,469	-10,5	-3,04
285,587	-12	-3,156
287,699	-10,5	-3,062
289,811	-10	-2,93
291,929	-8,5	-2,755
294,047	-8,5	-2,67
296,159	-7,5	-2,612
298,277	-7,5	-2,601
300,395	-8	-2,654
302,506	-8	-2,65
304,624	-7,5	-2,581
306,736	-6	-2,412
308,854	-6	-2,359
310,972	-6	-2,321
313,09	-5,5	-2,086
315,208	-5,5	-2,15
317,32	-4,5	-1,933
319,443	-4	-1,818
321,561	-4,5	-1,889
323,673	-4	-1,8
325,785	-4,5	-1,791
327,897	-3,5	-1,718
330,009	-4	-1,687
332,121	-3,5	-1,577
334,233	-3,5	-1,606
336,344	-3,5	-1,533
338,456	-3	-1,379
340,574	-3	-1,444
342,692	-3	-1,522
344,804	-3	-1,487
346,916	-3	-1,417
349,034	-3	-1,409
351,146	-2	-1,08
353,264	-1	-0,883
355,375	0,5	-0,683
357,493	1,5	-0,49
359,605	1,5	-0,439
361,729	1,5	-0,463
363,841	1,5	-0,455
365,959	1	-0,501
368,083	1,5	-0,483
370,195	1,5	-0,501
372,313	1,5	-0,565
374,43	1	-0,57
376,554	1,5	-0,509
378,672	2,5	-0,283
380,796	2,5	-0,248
382,92	2,5	-0,1
385,038	2,5	-0,241
387,156	2,5	-0,299
389,267	2,5	-0,102
391,391	2,5	-0,166
393,503	2,5	-0,186
395,621	2,5	-0,115
397,745	2	-0,211
399,863	2,5	-0,009
401,981	2,5	-0,028
404,093	2,5	-0,028
406,216	2,5	0
408,334	2,5	-0,061
410,446	2,5	0
412,564	2,5	-0,003
414,682	2,5	-0,003
416,8	2,5	0
418,918	2,5	-0,043
421,03	2,5	-0,137
423,154	2,5	-0,178
425,271	2,5	-0,223
427,389	2,5	-0,196
429,507	2,5	-0,255
431,625	2,5	-0,266
433,743	2	-0,308
435,855	2,5	-0,038
437,973	2,5	-0,115
440,103	2,5	-0,086
442,226	2,5	-0,074
444,338	2,5	-0,186
446,45	2,5	-0,302
448,568	2,5	-0,36
450,686	2	-0,402
452,798	2	-0,323
454,928	2	-0,415
457,046	2	-0,372
459,163	2,5	-0,253
461,275	2,5	-0,277
463,387	2	-0,396
465,511	2,5	-0,2
467,623	2,5	-0,267
469,741	2,5	-0,227
471,859	2,5	-0,271
473,983	2,5	-0,242
476,094	2,5	-0,142
478,218	2,5	-0,152
480,336	2,5	-0,169
482,454	2,5	0
484,572	2,5	-0,002
486,69	3	-0,023
488,814	2,5	0
490,926	2,5	-0,001
493,044	2,5	-0,001
495,161	2,5	-0,001
497,273	3	-0,001
499,391	3	0
501,503	2,5	0
503,615	2,5	0
505,727	2,5	0
507,845	2,5	-0,103
509,969	2,5	-0,08
512,08	2,5	0
514,21	3	-0,028
516,322	2,5	-0,15
518,434	2,5	-0,258
520,546	2	-0,415
522,67	0,5	-0,578
524,788	0	-0,721
526,9	0	-0,802
529,017	-1	-0,91
531,135	-1,5	-1,015
533,259	-1,5	-1,129
535,377	-2	-1,204
537,495	-2,5	-1,272
539,613	-2,5	-1,357
541,737	-3	-1,418
543,855	-3	-1,581
545,985	-3	-1,632
548,096	-3,5	-1,66
550,22	-4	-1,79
552,344	-4	-1,884
554,462	-4	-1,942
556,574	-4	-1,896
558,698	-4	-1,966
560,822	-4,5	-2,072
562,94	-4,5	-2,025
565,063	-4,5	-2,091
567,175	-4,5	-2,065
569,293	-4,5	-1,986
571,405	-4,5	-2,014
573,523	-4,5	-2,088
575,647	-5,5	-2,186
577,765	-5,5	-2,218
579,883	-5,5	-2,35
582,006	-6	-2,427
584,118	-6	-2,435
586,23	-6	-2,441
588,348	-7	-2,552
590,466	-7	-2,553
592,578	-6,5	-2,543
594,696	-7	-2,633
596,814	-7,5	-2,712
598,931	-7,5	-2,686
601,043	-7,5	-2,656
603,161	-7,5	-2,702
605,291	-8,5	-2,836
607,411	-8	-2,815
609,527	-9	-2,911
611,651	-8,5	-2,892
613,769	-8,5	-2,844
615,887	-8,5	-2,866
618,01	-9	-2,974
620,128	-9,5	-3,016
622,246	-10	-3,07
624,364	-10,5	-3,133
626,482	-10,5	-3,175
628,594	-10,5	-3,222
630,706	-11	-3,237
632,824	-11,5	-3,299
634,947	-12	-3,347
637,059	-12	-3,35
639,171	-12	-3,353
641,295	-12,5	-3,402
643,419	-12,5	-3,416
645,531	-13	-3,42
647,655	-13,5	-3,44
649,767	-14	-3,454
651,878	-14	-3,456
653,996	-14	-3,461
656,12	-14	-3,469
658,238	-14	-3,473
660,35	-14	-3,472
662,468	-14	-3,48
664,58	-14,5	-3,481
666,698	-14	-3,482
668,821	-14,5	-3,49
670,945	-14,5	-3,492
673,057	-14,5	-3,494
675,169	-14,5	-3,491
677,299	-14,5	-3,493
679,423	-14,5	-3,494
681,547	-14,5	-3,495
683,665	-14,5	-3,496
685,783	-14,5	-3,496
687,9	-14,5	-3,496
690,024	-14,5	-3,496
692,142	-14,5	-3,496
694,266	-14,5	-3,496
696,39	-14,5	-3,497
698,508	-14,5	-3,498
700,638	-14,5	-3,498
702,75	-14,5	-3,499
704,861	-14	-3,498
706,979	-14,5	-3,499
709,091	-14	-3,499
711,203	-14	-3,499
713,315	-14	-3,498
715,427	-14,5	-3,498
717,545	-14,5	-3,499
719,657	-14,5	-3,499
721,774	-14	-3,499
723,892	-14,5	-3,499
726,01	-14	-3,499
728,128	-14	-3,5
730,24	-14	-3,5
732,364	-14	-3,482
734,476	-14	-3,405
736,606	-14	-3,299
738,723	-14	-3,261
740,847	-13,5	-3,191
742,971	-13,5	-3,14
745,095	-12	-3,046
747,213	-12	-3,035
749,331	-12	-2,934
751,455	-11	-2,932
753,567	-11,5	-2,908
755,685	-11,5	-2,914
757,796	-10,5	-2,859
759,908	-10,5	-2,838
762,038	-9,5	-2,719
764,156	-10,5	-2,879
766,286	-11	-2,878
768,404	-10,5	-2,835
770,528	-10,5	-2,764
772,646	-11	-2,764
774,775	-10	-2,704
776,893	-9,5	-2,656
779,011	-9,5	-2,636
781,147	-8,5	-2,472
783,265	-9	-2,525
785,389	-9	-2,496
787,507	-8	-2,389
789,631	-6,5	-2,307
791,742	-7,5	-2,369
793,872	-6,5	-2,288
795,99	-7	-2,326
798,114	-9	-2,573
800,236	-8,5	-2,511
802,356	-8	-2,491
804,48	-8	-2,429
806,598	-7,5	-2,355
808,715	-7	-2,286
810,833	-6,5	-2,264
812,963	-6	-2,184
815,081	-6	-2,169
817,217	-5,5	-2,042
819,335	-5	-2,021
821,459	-5	-1,991
823,577	-5	-1,998
825,7	-4,5	-1,924
827,824	-4,5	-1,864
829,942	-4	-1,827
832,066	-4	-1,765
834,184	-4	-1,755
836,302	-3,5	-1,68
838,414	-3	-1,669
840,526	-3,5	-1,678
842,638	-3,5	-1,682
844,755	-3	-1,633
846,879	-3	-1,519
849,003	-2,5	-1,383
851,121	-2,5	-1,373
853,245	-2	-1,253
855,363	-1,5	-1,189
857,493	-1	-1,067
859,611	-1	-1,008
861,74	-0,5	-0,88
863,858	-0,5	-0,799
865,982	-0,5	-0,77
868,1	-0,5	-0,749
870,23	0	-0,62
872,354	0	-0,548
874,466	0	-0,513
876,584	0	-0,489
878,701	0	-0,415
880,825	0,5	-0,285
882,949	0,5	-0,209
885,073	1	-0,152
887,191	1,5	-0,123
889,315	1,5	-0,083
891,433	1,5	-0,072
893,581	2	-0,036
895,698	2,5	-0,03
897,816	2,5	-0,023
899,934	2,5	-0,017
902,058	2,5	-0,012
904,17	2,5	-0,012
906,3	2,5	-0,006
908,418	2,5	-0,005
910,536	2,5	-0,004
912,649	3	-0,004
914,771	2,5	-0,004
916,895	3	-0,003
919,007	3	-0,002
921,131	3	-0,002
923,249	3	-0,001
925,367	3	-0,001
927,479	3	-0,001
929,603	3	-0,001
931,714	2,5	-0,001
933,832	2,5	-0,001
935,95	2,5	-0,001
938,076	2,5	0
940,192	3	-0,001
942,316	3	-0,007
944,428	3	-0,007
946,552	2,5	-0,038
948,663	3	-0,033
950,781	2,5	-0,049
952,905	2,5	-0,139
955,029	3	-0,222
957,147	2,5	-0,33
959,277	2	-0,418
961,401	1	-0,539
963,519	1,5	-0,553
965,636	1	-0,585
967,76	0	-0,636
969,878	0	-0,748
971,99	0	-0,797
974,114	-0,5	-0,896
976,232	-1	-0,986
978,356	-1	-0,983
980,474	-0,5	-0,966
982,604	-1,5	-1,079
984,721	-1,5	-1,08
986,845	-2	-1,226
988,957	-1,5	-1,201
991,081	-2	-1,274
993,199	-2	-1,311
995,317	-2	-1,32
997,435	-2,5	-1,384
999,553	-2	-1,399
1001,67	-2,5	-1,457
1003,794	-2,5	-1,486
1005,912	-2,5	-1,523
1008,036	-2,5	-1,655
1010,148	-3	-1,704
1012,272	-3	-1,771
1014,39	-3	-1,658
1016,502	-3	-1,676
1018,625	-3	-1,706
1020,743	-3	-1,68
1022,873	-3	-1,722
1024,997	-3	-1,762
1027,115	-3	-1,863
1029,233	-3,5	-1,889
1031,351	-4	-2,011
1033,469	-4,5	-2,107
1035,586	-4,5	-2,191
1037,704	-5	-2,302
1039,828	-5	-2,386
1041,946	-5,5	-2,47
1044,064	-6	-2,602
1046,188	-6	-2,66
1048,306	-6,5	-2,743
1050,418	-7	-2,756
1052,536	-7,5	-2,792
1054,659	-8	-2,87
1056,777	-7,5	-2,961
1058,895	-8	-2,933
1061,013	-8,5	-2,97
1063,137	-9	-3,042
1065,255	-9	-3,111
1067,373	-10	-3,19
1069,497	-10,5	-3,296
1071,62	-11,5	-3,379
1073,738	-12	-3,386
1075,85	-11,5	-3,389
1077,968	-12	-3,42
1080,086	-12,5	-3,436
1082,21	-13	-3,457
1084,322	-13	-3,463
1086,446	-13,5	-3,469
1088,558	-13,5	-3,473
1090,681	-13,5	-3,48
1092,793	-13,5	-3,482
1094,905	-13,5	-3,483
1097,023	-13,5	-3,485
1099,141	-13,5	-3,487
1101,259	-13,5	-3,49
1103,377	-13,5	-3,492
1105,501	-13,5	-3,492
1107,618	-13,5	-3,494
1109,736	-13,5	-3,493
1111,86	-13,5	-3,494
1113,978	-13,5	-3,494
1116,09	-13,5	-3,494
1118,214	-13,5	-3,496
1120,326	-13,5	-3,496
1122,444	-13,5	-3,496
1124,555	-13,5	-3,496
1126,691	-13,5	-3,497
1128,803	-13,5	-3,497
1130,921	-13,5	-3,497
1133,039	-13,5	-3,497
1135,157	-13,5	-3,498
1137,281	-13,5	-3,498
1139,405	-13,5	-3,499
1141,522	-13,5	-3,499
1143,64	-13,5	-3,499
1145,758	-13,5	-3,5
1147,876	-13,5	-3,5
1149,994	-13,5	-3,485
1152,112	-13,5	-3,398
1154,236	-13,5	-3,308
1156,354	-13,5	-3,29
1158,471	-13	-3,208
1160,589	-13	-3,21
1162,707	-12	-3,101
1164,819	-12,5	-3,117
1166,943	-12,5	-3,087
1169,067	-10,5	-2,955
1171,191	-10	-2,835
1173,303	-10	-2,775
1175,421	-9,5	-2,765
1177,532	-9,5	-2,774
1179,65	-9	-2,705
1181,774	-8,5	-2,653
1183,892	-8,5	-2,67
1186,01	-8	-2,618
1188,128	-7,5	-2,576
1190,246	-7,5	-2,566
1192,37	-7	-2,456
1194,487	-6,5	-2,429
1196,617	-6	-2,324
1198,735	-5,5	-2,237
1200,853	-5	-2,128
1202,971	-5	-2,089
1205,089	-4,5	-2,01
1207,207	-4	-1,968
1209,331	-3,5	-1,859
1211,448	-3	-1,721
1213,566	-3	-1,707
1215,678	-3	-1,736
1217,802	-3	-1,632
1219,914	-2,5	-1,561
1222,038	-2,5	-1,51
1224,162	-2,5	-1,449
1226,28	-2,5	-1,475
1228,397	-2	-1,386
1230,521	-2	-1,26
1232,639	-1,5	-1,181
1234,751	-1	-1,115
1236,875	-0,5	-1,034
1238,999	-0,5	-0,971
1241,111	-0,5	-0,964
1243,235	-0,5	-0,839
1245,353	-0,5	-0,808
1247,47	0	-0,776
1249,588	0	-0,675
1251,706	0	-0,643
1253,824	0	-0,575
1255,942	0	-0,523
1258,054	0	-0,563
1260,172	0	-0,51
1262,29	0	-0,414
1264,407	0	-0,368
1266,531	0	-0,359
1268,649	0	-0,348
1270,767	0	-0,354
1272,885	0,5	-0,268
1274,997	0	-0,233
1277,121	1,5	-0,151
1279,239	0,5	-0,122
1281,356	1,5	-0,112
1283,48	2	-0,072
1285,598	1,5	-0,075
1287,722	2	-0,056
1289,84	2	-0,054
1291,958	2	-0,037
1294,076	2	-0,026
1296,194	2,5	-0,024
1298,305	2,5	-0,021
1300,423	2,5	-0,02
1302,547	2,5	-0,016
1304,665	2,5	-0,017
1306,783	2,5	-0,015
1308,901	2,5	-0,011
1311,025	2,5	-0,01
1313,143	2,5	-0,01
1315,255	2,5	-0,009
1317,372	2,5	-0,006
1319,49	2,5	-0,005
1321,614	2,5	-0,004
1323,732	2,5	-0,004
1325,844	2,5	-0,003
1327,968	2,5	-0,002
1330,086	2,5	-0,002
1332,198	2,5	-0,002
1334,315	2,5	-0,002
1336,433	2,5	-0,001
1338,551	3	-0,001
1340,675	2,5	-0,001
1342,787	2,5	0
1344,911	2,5	-0,003
1347,029	2,5	-0,013
1349,141	2,5	-0,013
1351,258	2,5	-0,067
1353,382	2,5	-0,239
1355,5	2	-0,282
1357,624	2,5	-0,33
1359,742	2	-0,328
1361,866	2	-0,395
1363,99	2	-0,521
1366,108	1	-0,59
1368,231	1,5	-0,53
1370,349	1,5	-0,566
1372,461	1	-0,573
1374,585	0,5	-0,63
1376,703	0	-0,746
1378,827	-0,5	-0,866
1380,951	-1	-0,986
1383,069	-1	-0,959
1385,187	-1	-0,964
1387,304	-1	-0,99
1389,428	-1,5	-1,057
1391,54	-1,5	-1,048
1393,658	-1,5	-1,069
1395,776	-1,5	-1,121
1397,894	-2	-1,194
1400,012	-2	-1,26
1402,13	-2	-1,242
1404,253	-2	-1,288
1406,371	-2,5	-1,288
1408,489	-2	-1,314
1410,607	-2	-1,382
1412,719	-2	-1,39
1414,843	-2,5	-1,457
1416,967	-2,5	-1,507
1419,085	-3	-1,672
1421,196	-3	-1,7
1423,314	-3	-1,742
1425,432	-3	-1,816
1427,55	-3,5	-1,973
1429,668	-3,5	-2,06
1431,786	-4	-2,081
1433,904	-4	-2,112
1436,028	-4,5	-2,233
1438,146	-4,5	-2,281
1440,257	-4,5	-2,313
1442,375	-4,5	-2,312
1444,493	-5	-2,372
1446,611	-5	-2,439
1448,729	-5,5	-2,466
1450,847	-5	-2,518
1452,965	-5,5	-2,539
1455,077	-5,5	-2,531
1457,2	-6	-2,667
1459,318	-6,5	-2,788
1461,43	-7	-2,832
1463,548	-7,5	-2,88
1465,666	-7,5	-2,943
1467,778	-8	-3,035
1469,902	-8	-3,054
1472,02	-9	-3,177
1474,131	-9,5	-3,208
1476,249	-10	-3,274
1478,367	-10	-3,291
1480,479	-10	-3,282
1482,603	-10	-3,337
1484,721	-10,5	-3,372
1486,839	-11,5	-3,399
1488,957	-12	-3,417
1491,08	-12	-3,424
1493,204	-12,5	-3,452
1495,322	-12,5	-3,461
1497,446	-13	-3,465
1499,564	-13	-3,474
1501,682	-13	-3,482
1503,806	-13	-3,485
1505,924	-13	-3,487
1508,042	-13	-3,49
1510,171	-13	-3,494
1512,289	-13	-3,495
1514,413	-13	-3,496
1516,537	-13	-3,497
1518,655	-13	-3,498
1520,773	-13	-3,498
1522,897	-13	-3,499
1525,015	-13	-3,499
1527,132	-13	-3,499
1529,256	-13	-3,5
1531,368	-13	-3,5
1533,492	-13	-3,495
1535,616	-13	-3,382
1537,734	-13	-3,289
1539,846	-12,5	-3,244
1541,964	-12	-3,135
1544,081	-12	-3,034
1546,199	-12	-3,066
1548,323	-10,5	-2,909
1550,441	-10,5	-2,877
1552,559	-10,5	-2,818
1554,677	-9	-2,739
1556,789	-9	-2,717
1558,901	-9	-2,683
1561,024	-7,5	-2,595
1563,142	-7	-2,51
1565,266	-6,5	-2,412
1567,384	-6	-2,385
1569,502	-5,5	-2,317
1571,614	-6	-2,319
1573,732	-5	-2,162
1575,856	-4,5	-2,042
1577,973	-4	-1,952
1580,091	-4	-1,894
1582,209	-4	-1,873
1584,327	-3,5	-1,857
1586,439	-3,5	-1,802
1588,563	-3	-1,677
1590,681	-3	-1,699
1592,793	-3	-1,686
1594,917	-3	-1,556
1597,034	-2,5	-1,477
1599,146	-2	-1,459
1601,276	-1,5	-1,272
1603,388	-1,5	-1,275
1605,506	-1	-1,154
1607,624	-1	-1,09
1609,742	-0,5	-1,038
1611,854	-0,5	-0,973
1613,977	-0,5	-0,789
1616,095	-0,5	-0,805
1618,207	-0,5	-0,74
1620,325	0	-0,623
1622,449	0	-0,46
1624,561	0	-0,459
1626,673	0	-0,453
1628,797	0	-0,322
1630,914	0	-0,349
1633,032	0	-0,3
1635,144	0,5	-0,299
1637,262	0,5	-0,271
1639,38	0,5	-0,254
1641,498	1	-0,192
1643,622	1	-0,16
1645,734	1	-0,143
1647,852	1,5	-0,094
1649,969	1,5	-0,101
1652,087	1,5	-0,086
1654,205	2	-0,059
1656,329	2	-0,046
1658,447	2,5	-0,038
1660,559	2,5	-0,041
1662,683	2,5	-0,028
1664,801	2,5	-0,025
1666,918	2,5	-0,024
1669,036	2,5	-0,018
1671,154	2,5	-0,015
1673,272	3	-0,012
1675,39	3	-0,009
1677,514	2,5	-0,006
1679,626	3	-0,006
1681,744	3	-0,004
1683,861	3	-0,003
1685,985	2,5	-0,002
1688,097	3	-0,002
1690,215	2,5	-0,002
1692,333	3	-0,001
1694,445	3	-0,002
1696,563	2,5	-0,001
1698,693	3	-0,001
1700,81	2,5	-0,001
1702,928	3	0
1705,046	2,5	0
1707,164	2,5	0
1709,282	3	-0,001
1711,406	2,5	-0,038
1713,524	2,5	-0,131
1715,642	3	-0,175
1717,76	2,5	-0,28
1719,877	2	-0,318
1721,989	2	-0,379
1724,107	1,5	-0,42
1726,231	1,5	-0,44
1728,349	2	-0,465
1730,461	1,5	-0,473
1732,579	0,5	-0,6
1734,691	0	-0,67
1736,808	0	-0,67
1738,92	0	-0,676
1741,044	0	-0,765
1743,162	0	-0,733
1745,28	0	-0,781
1747,398	-1	-0,871
1749,51	-1	-0,904
1751,628	-0,5	-0,936
1753,745	-1	-1,026
1755,869	-1,5	-1,13
1757,981	-1,5	-1,111
1760,099	-1,5	-1,184
1762,217	-1,5	-1,21
1764,341	-2	-1,346
1766,453	-2	-1,375
1768,571	-2,5	-1,4
1770,701	-2,5	-1,598
1772,818	-2,5	-1,635
1774,93	-3	-1,642
1777,054	-3	-1,751
1779,172	-3	-1,826
1781,296	-3	-1,982
1783,408	-3	-2,006
1785,532	-4	-2,114
1787,65	-4	-2,119
1789,767	-4	-2,138
1791,885	-3,5	-2,156
1794,009	-3,5	-2,143
1796,127	-4	-2,159
1798,251	-4,5	-2,284
1800,369	-4,5	-2,416
1802,487	-5	-2,47
1804,605	-5	-2,537
1806,722	-5	-2,558
1808,852	-5,5	-2,666
1810,97	-6	-2,714
1813,088	-6	-2,755
1815,206	-6,5	-2,851
1817,324	-6,5	-2,952
1819,442	-7	-2,984
1821,554	-7,5	-3,011
1823,671	-8	-3,096
1825,789	-8	-3,143
1827,907	-9	-3,225
1830,025	-9,5	-3,29
1832,143	-9	-3,278
1834,267	-10	-3,332
1836,385	-10,5	-3,376
1838,509	-11	-3,413
1840,621	-11	-3,416
1842,738	-11,5	-3,438
1844,862	-12	-3,459
1846,986	-12	-3,468
1849,098	-12	-3,47
1851,216	-12	-3,471
1853,34	-12	-3,478
1855,458	-12	-3,482
1857,57	-12	-3,484
1859,687	-12,5	-3,484
1861,805	-12,5	-3,486
1863,923	-12,5	-3,489
1866,035	-12,5	-3,49
1868,153	-12,5	-3,49
1870,277	-12,5	-3,491
1872,395	-12,5	-3,493
1874,507	-12,5	-3,494
1876,624	-12,5	-3,495
1878,748	-12,5	-3,496
1880,866	-12,5	-3,496
1882,978	-12,5	-3,496
1885,096	-12,5	-3,495
1887,208	-12,5	-3,497
1889,332	-12,5	-3,497
1891,45	-12,5	-3,497
1893,562	-12,5	-3,497
1895,679	-12,5	-3,498
1897,797	-12,5	-3,498
1899,915	-12,5	-3,498
1902,027	-12,5	-3,498
1904,145	-12,5	-3,499
1906,263	-12,5	-3,499
1908,381	-12,5	-3,499
1910,499	-12,5	-3,5
1912,616	-12,5	-3,465
1914,734	-12,5	-3,43
1916,846	-12,5	-3,405
1918,964	-12,5	-3,316
1921,082	-12,5	-3,299
1923,2	-12	-3,217
1925,318	-12,5	-3,157
1927,436	-12,5	-3,147
1929,553	-12	-3,153
1931,665	-12	-3,172
1933,783	-11,5	-3,038
1935,901	-11,5	-3,03
1938,025	-10,5	-2,957
1940,143	-10	-2,904
1942,261	-10	-2,857
1944,373	-9,5	-2,78
1946,49	-9	-2,712
1948,614	-8,5	-2,683
1950,732	-8,5	-2,677
1952,85	-8	-2,598
1954,968	-7,5	-2,544
1957,08	-7	-2,474
1959,198	-6	-2,389
1961,31	-7	-2,372
1963,433	-6	-2,327
1965,551	-5,5	-2,21
1967,669	-5,5	-2,204
1969,787	-5,5	-2,136
1971,911	-4,5	-2,027
1974,035	-4,5	-1,982
1976,153	-4	-1,95
1978,271	-3,5	-1,886
1980,388	-3,5	-1,802
1982,506	-3,5	-1,829
1984,618	-3,5	-1,902
1986,736	-3	-1,848
1988,86	-3	-1,766
1990,978	-3	-1,777
1993,09	-3	-1,77
1995,208	-3	-1,739
1997,332	-3	-1,688
1999,45	-2,5	-1,628
2001,567	-3	-1,634
2003,685	-2,5	-1,618
2005,809	-2,5	-1,579
2007,927	-2,5	-1,564
2010,045	-2,5	-1,528
2012,163	-2,5	-1,522
2014,287	-2	-1,381
2016,398	-1,5	-1,38
2018,516	-2	-1,337
2020,628	-2	-1,346
2022,752	-1,5	-1,248
2024,864	-1,5	-1,219
2026,982	-1,5	-1,199
2029,1	-1	-1,125
2031,218	-1	-1,119
2033,341	-1	-1,032
2035,453	-1	-1,014
2037,577	-0,5	-0,937
2039,695	-0,5	-0,884
2041,813	-0,5	-0,836
2043,925	-0,5	-0,819
2046,043	-0,5	-0,734
2048,155	0	-0,663
2050,273	0	-0,653
2052,39	0	-0,583
2054,508	0	-0,499
2056,62	0	-0,444
2058,744	0	-0,334
2060,862	0,5	-0,24
2062,974	0,5	-0,202
2065,098	0,5	-0,175
2067,21	1	-0,164
2069,327	1	-0,139
2071,445	1,5	-0,105
2073,569	1,5	-0,09
2075,681	1,5	-0,08
2077,799	1,5	-0,082
2079,917	1,5	-0,07
2082,035	1,5	-0,067
2084,153	1,5	-0,064
2086,27	2	-0,055
2088,388	2	-0,054
2090,506	2	-0,041
2092,624	2	-0,032
2094,736	2,5	-0,027
2096,86	2	-0,018
2098,984	2,5	-0,016
2101,102	2,5	-0,015
2103,22	2,5	-0,013
2105,337	2,5	-0,008
2107,461	3	-0,006
2109,579	2,5	-0,005
2111,691	3	-0,003
2113,809	3	-0,003
2115,927	2,5	-0,003
2118,051	2,5	-0,002
2120,169	2,5	-0,002
2122,292	2,5	-0,001
2124,404	2,5	-0,001
2126,528	2,5	-0,001
2128,64	2,5	-0,001
2130,764	2,5	0
2132,888	2,5	-0,055
2135,006	2,5	-0,115
2137,124	2,5	-0,165
2139,235	2,5	-0,228
2141,353	2,5	-0,283
2143,477	2	-0,441
2145,595	1,5	-0,457
2147,707	1,5	-0,517
2149,825	0	-0,618
2151,943	0,5	-0,681
2154,061	0	-0,755
2156,178	0	-0,776
2158,29	0	-0,784
2160,402	-0,5	-0,821
2162,52	-0,5	-0,896
2164,638	-0,5	-0,88
2166,756	0	-0,922
2168,868	-1	-0,997
2170,986	-1,5	-1,093
2173,098	-1,5	-1,116
2175,209	-1,5	-1,138
2177,327	-1,5	-1,176
2179,445	-1,5	-1,297
2181,563	-2	-1,351
2183,681	-2	-1,42
2185,799	-2	-1,445
2187,923	-2,5	-1,581
2190,035	-2,5	-1,588
2192,152	-2,5	-1,619
2194,264	-3	-1,696
2196,382	-3	-1,748
2198,506	-3	-1,777
2200,624	-3	-1,772
2202,742	-3	-1,836
2204,866	-3	-1,866
2206,984	-3	-1,956
2209,101	-3,5	-2,019
2211,219	-3,5	-2,05
2213,337	-3,5	-2,076
2215,455	-4	-2,193
2217,573	-4	-2,23
2219,691	-4	-2,282
2221,809	-4,5	-2,356
2223,933	-4,5	-2,382
2226,044	-4,5	-2,446
2228,162	-5	-2,52
2230,28	-5	-2,516
2232,398	-4,5	-2,524
2234,522	-5,5	-2,581
2236,64	-5	-2,57
2238,764	-5,5	-2,701
2240,876	-5,5	-2,718
2242,994	-6	-2,798
2245,111	-6	-2,898
2247,229	-6,5	-2,935
2249,353	-7	-2,981
2251,465	-7	-3,003
2253,583	-8	-3,099
2255,695	-7	-3,084
2257,813	-7,5	-3,101
2259,931	-8,5	-3,229
2262,06	-9,5	-3,31
2264,178	-10	-3,307
2266,296	-9,5	-3,347
2268,414	-10,5	-3,396
2270,538	-11	-3,428
2272,656	-11	-3,446
2274,78	-12	-3,462
2276,898	-12	-3,465
2279,021	-12	-3,475
2281,133	-11,5	-3,475
2283,251	-12	-3,479
2285,369	-12	-3,482
2287,487	-12	-3,486
2289,611	-12	-3,49
2291,729	-12	-3,492
2293,853	-12	-3,494
2295,971	-12	-3,495
2298,088	-12	-3,496
2300,206	-12	-3,496
2302,324	-12	-3,498
2304,436	-12	-3,498
2306,554	-12	-3,498
2308,672	-12	-3,499
2310,784	-12	-3,499
2312,908	-12	-3,499
2315,025	-12	-3,5
2317,149	-12	-3,495
2319,267	-12	-3,405
2321,379	-12	-3,354
2323,497	-12	-3,232
2325,615	-11,5	-3,14
2327,739	-11	-3,04
2329,857	-10	-2,955
2331,974	-9,5	-2,908
2334,092	-10	-2,866
2336,216	-8,5	-2,762
2338,334	-7,5	-2,634
2340,452	-7,5	-2,565
2342,57	-7	-2,481
2344,688	-7,5	-2,46
2346,812	-6	-2,334
2348,935	-4,5	-2,22
2351,047	-5	-2,186
2353,165	-4,5	-2,128
2355,289	-4,5	-2,029
2357,413	-3,5	-1,936
2359,531	-3,5	-1,858
2361,643	-3	-1,866
2363,761	-3	-1,829
2365,885	-2,5	-1,73
2368,002	-2,5	-1,741
2370,126	-2,5	-1,679
2372,244	-2	-1,59
2374,368	-2	-1,556
2376,48	-2	-1,538
2378,598	-1,5	-1,468
2380,716	-1,5	-1,394
2382,834	-1,5	-1,348
2384,957	-1	-1,297
2387,075	-1	-1,248
2389,187	-1	-1,289
2391,305	-1,5	-1,317
2393,429	-1,5	-1,308
2395,547	-1	-1,267
2397,665	-1	-1,224
2399,783	-1	-1,235
2401,894	-1	-1,159
2404,018	-1	-1,104
2406,136	-0,5	-0,987
2408,254	-0,5	-0,933
2410,372	-0,5	-0,907
2412,49	0	-0,848
2414,608	0	-0,78
2416,726	-0,5	-0,77
2418,849	0	-0,716
2420,961	0	-0,664
2423,079	0	-0,612
2425,197	0	-0,512
2427,315	0	-0,438
2429,439	0,5	-0,318
2431,557	0,5	-0,286
2433,681	0,5	-0,24
2435,793	1	-0,256
2437,904	0,5	-0,231
2440,022	0,5	-0,208
2442,14	1	-0,168
2444,264	1	-0,139
2446,382	1,5	-0,108
2448,494	1,5	-0,105
2450,618	2	-0,076
2452,73	2	-0,059
2454,841	2	-0,057
2456,959	2,5	-0,044
2459,077	2,5	-0,033
2461,195	2,5	-0,03
2463,319	2,5	-0,022
2465,431	3	-0,022
2467,549	2,5	-0,023
2469,673	2,5	-0,015
2471,79	3	-0,014
2473,908	3	-0,011
2476,026	3	-0,009
2478,144	2,5	-0,007
2480,256	3	-0,005
2482,374	3	-0,003
2484,492	3	-0,002
2486,616	3	-0,002
2488,733	3	-0,002
2490,851	3	-0,001
2492,969	3	-0,001
2495,093	3	-0,001
2497,211	3	-0,001
2499,323	3	-0,001
2501,447	3	0
2503,571	2,5	-0,085
2505,695	3	-0,181
2507,812	3	-0,28
2509,924	2	-0,368
2512,048	1,5	-0,526
2514,166	1	-0,58
2516,284	1	-0,674
2518,402	0	-0,685
2520,52	0	-0,748
2522,632	0	-0,792
2524,749	0	-0,861
2526,873	-0,5	-0,944
2528,985	-1	-0,924
2531,103	-1	-0,966
2533,227	-1,5	-1,086
2535,345	-1	-1,112
2537,463	-1,5	-1,102
2539,581	-1,5	-1,16
2541,704	-1,5	-1,301
2543,828	-2	-1,315
2545,94	-1,5	-1,321
2548,058	-1,5	-1,358
2550,176	-1,5	-1,368
2552,294	-1,5	-1,405
2554,418	-2	-1,536
2556,536	-2	-1,525
2558,647	-2	-1,558
2560,765	-2	-1,632
2562,883	-2,5	-1,658
2565,001	-2	-1,652
2567,119	-2,5	-1,668
2569,237	-2	-1,732
2571,355	-2	-1,741
2573,473	-2,5	-1,81
2575,596	-2	-1,564
2577,714	-2	-1,632
2579,832	-1,5	-1,318
2581,956	-1	-0,981
2584,068	0	-0,685
2586,198	1,5	-0,494
2588,316	1,5	-0,53
2590,428	2	-0,383
2592,546	1,5	-0,479
2594,663	1,5	-0,51
2596,775	1	-0,569
2598,905	0,5	-0,62
2601,023	0,5	-0,646
2603,135	2	-0,37
2605,259	1,5	-0,48
2607,377	2,5	-0,237
2609,501	2	-0,35
2611,618	1,5	-0,492
2613,736	1	-0,54
2615,848	1	-0,595
2617,966	0,5	-0,626
2620,09	0	-0,694
2622,208	0	-0,726
2624,326	0	-0,778
2626,444	-0,5	-0,895
2628,561	-1	-0,996
2630,679	-1	-1,096
2632,803	-1,5	-1,242
2634,921	-1,5	-1,296
2637,045	-1,5	-1,442
2639,169	-1,5	-1,504
2641,287	-2	-1,535
2643,405	-1,5	-1,507
2645,522	-2	-1,587
2647,634	-2,5	-1,658
2649,752	-2,5	-1,818
2651,876	-2,5	-1,873
2653,994	-3	-1,922
2656,112	-3	-2,011
2658,236	-3	-2,121
2660,348	-3	-2,107
2662,472	-3	-2,221
2664,589	-3,5	-2,306
2666,701	-4	-2,333
2668,819	-4	-2,477
2670,937	-4,5	-2,518
2673,061	-4,5	-2,575
2675,179	-5	-2,606
2677,303	-5	-2,7
2679,415	-6	-2,798
2681,532	-6	-2,909
2683,656	-6,5	-2,948
2685,768	-6	-2,966
2687,88	-7,5	-3,107
2689,998	-8	-3,196
2692,116	-8,5	-3,271
2694,234	-9	-3,319
2696,352	-9	-3,319
2698,469	-9	-3,368
2700,581	-9	-3,345
2702,699	-9,5	-3,363
2704,817	-9,5	-3,378
2706,929	-10	-3,388
2709,047	-10	-3,411
2711,165	-10	-3,413
2713,283	-10	-3,428
2715,401	-10,5	-3,443
2717,512	-10,5	-3,44
2719,63	-11	-3,452
2721,748	-11	-3,462
2723,866	-11	-3,47
2725,978	-11	-3,474
2728,102	-11	-3,48
2730,22	-10,5	-3,462
2732,338	-10,5	-3,439
2734,455	-9	-3,353
2736,579	-9	-3,342
2738,697	-9	-3,352
2740,809	-9,5	-3,373
2742,927	-10	-3,388
2745,045	-10	-3,41
2747,169	-10,5	-3,418
2749,287	-10,5	-3,418
2751,398	-10,5	-3,434
2753,522	-10,5	-3,454
2755,64	-11	-3,467
2757,752	-11	-3,464
2759,876	-11	-3,476
2762	-11	-3,48
2764,112	-10,5	-3,446
2766,224	-10,5	-3,459
2768,341	-9	-3,387
2770,459	-10	-3,428
2772,577	-9	-3,357
2774,695	-8	-3,301
2776,813	-9	-3,366
2778,925	-9	-3,341
2781,043	-9	-3,359
2783,167	-8,5	-3,333
2785,279	-8,5	-3,345
2787,396	-9,5	-3,394
2789,52	-10	-3,437
2791,638	-10	-3,442
2793,756	-10	-3,456
2795,874	-10	-3,454
2797,992	-10,5	-3,459
2800,11	-10,5	-3,457
2802,234	-10	-3,458
2804,351	-10	-3,463
2806,475	-10,5	-3,467
2808,593	-10	-3,469
2810,711	-10	-3,445
2812,829	-9,5	-3,434
2814,947	-9,5	-3,416
2817,071	-10	-3,437
2819,183	-10,5	-3,46
2821,3	-10,5	-3,479
2823,418	-10,5	-3,486
2825,548	-10,5	-3,493
2827,666	-10,5	-3,494
2829,784	-10,5	-3,496
2831,902	-10,5	-3,498
2834,02	-10,5	-3,498
2836,138	-10,5	-3,499
2838,256	-10,5	-3,499
2840,367	-10,5	-3,499
2842,491	-10,5	-3,5
2844,609	-10,5	-3,499
2846,727	-10,5	-3,499
2848,851	-10,5	-3,499
2850,969	-10,5	-3,491
2853,081	-10	-3,45
2855,199	-10,5	-3,466
2857,316	-10,5	-3,36
2859,428	-10,5	-3,343
2861,546	-10	-3,274
2863,658	-10,5	-3,202
2865,776	-10	-3,137
2867,894	-9,5	-3,047
2870,018	-9	-2,996
2872,136	-9	-3,001
2874,253	-8,5	-2,906
2876,371	-9	-2,975
2878,489	-9	-3,041
2880,607	-8,5	-2,945
2882,737	-8	-2,869
2884,855	-8	-2,848
2886,973	-8,5	-2,924
2889,097	-8	-2,866
2891,214	-6,5	-2,654
2893,344	-6,5	-2,754
2895,462	-6	-2,643
2897,58	-5,5	-2,605
2899,698	-4,5	-2,462
2901,822	-4,5	-2,37
2903,94	-5	-2,47
2906,064	-4,5	-2,378
2908,181	-4,5	-2,357
2910,306	-4	-2,279
2912,423	-4	-2,275
2914,547	-4	-2,261
2916,665	-4	-2,24
2918,783	-3,5	-2,204
2920,907	-3	-2,014
2923,025	-3	-2,126
2925,137	-2,5	-2,029
2927,26	-3	-2,069
2929,378	-3	-2,005
2931,502	-2,5	-1,859
2933,626	-3	-2,03
2935,744	-3	-2,149
2937,862	-3,5	-2,244
2939,986	-3,5	-2,289
2942,11	-4	-2,232
2944,227	-5,5	-2,616
2946,345	-5,5	-2,569
2948,463	-5,5	-2,564
2950,587	-6	-2,64
2952,705	-6	-2,661
2954,829	-5,5	-2,615
2956,947	-5,5	-2,595
2959,065	-6,5	-2,764
2961,176	-6,5	-2,78
2963,306	-6	-2,689
2965,424	-6	-2,689
2967,542	-5,5	-2,648
2969,666	-5,5	-2,586
2971,784	-5,5	-2,591
2973,902	-9,5	-3,277
2976,02	-9,5	-3,238
2978,138	-9,5	-3,419
2980,249	-9,5	-3,432
2982,367	-9	-3,466
2984,485	-9	-3,31
2986,615	-8,5	-3,182
2988,733	-7,5	-2,995
2990,851	-7	-2,99
2992,975	-6	-2,833
2995,093	-9	-3,432
2997,216	-9	-3,387
2999,334	-9	-3,288
3001,452	-8,5	-3,333
3003,564	-9	-3,21
3005,688	-9	-3,222
3007,806	-8	-3,077
3009,924	-6,5	-2,886
3012,036	-8	-3,055
3014,153	-8	-3,119
3016,271	-7,5	-3,081
3018,401	-7,5	-2,98
3020,513	-6	-2,92
3022,637	-5,5	-2,81
3024,755	-5,5	-2,703
3026,867	-5	-2,686
3028,979	-4,5	-2,615
3031,09	-4	-2,518
3033,208	-4	-2,578
3035,326	-5	-2,684
3037,45	-5	-2,783
3039,568	-5	-2,783
3041,686	-5,5	-2,751
3043,804	-8	-3,482
3045,934	-8	-3,393
3048,052	-8	-3,419
3050,175	-8	-3,267
3052,293	-8	-3,489
3054,417	-8	-3,232
3056,529	-7	-3,121
3058,647	-6,5	-3,068
3060,765	-5,5	-2,834
3062,883	-6	-2,894
3065,001	-5	-2,756
3067,118	-4,5	-2,639
3069,236	-5	-2,794
3071,36	-4,5	-2,621
3073,478	-5,5	-2,919
3075,59	-7	-3,223
3077,708	-6,5	-3,089
3079,826	-7	-3,234
3081,95	-7,5	-3,447
3084,067	-7,5	-3,432
3086,185	-7,5	-3,4
3088,303	-7,5	-3,444
3090,433	-7,5	-3,22
3092,551	-7,5	-3,5
3094,669	-7,5	-3,499
3096,787	-7,5	-3,499
3098,905	-7,5	-3,499
3101,016	-7,5	-3,499
3103,134	-7,5	-3,498
3105,27	-7,5	-3,498
3107,382	-7,5	-3,498
3109,494	-7,5	-3,497
3111,612	-7,5	-3,498
3113,73	-7,5	-3,498
3115,854	-7,5	-3,498
3117,966	-7,5	-3,498
3120,083	-7,5	-3,498
3122,201	-7,5	-3,498
3124,313	-7,5	-3,498
3126,431	-7,5	-3,499
3128,555	-7,5	-3,489
3130,679	-7,5	-3,5
3132,797	-7,5	-3,495
3134,915	-7,5	-3,5
3137,026	-7,5	-3,5
3139,144	-7,5	-3,499
3141,268	-7,5	-3,5
3143,38	-7,5	-3,5
3145,492	-7,5	-3,5
3147,61	-7,5	-3,5
3149,722	-7,5	-3,499
3151,846	-7,5	-3,431
3153,963	-7	-3,17
3156,075	-6	-3,019
3158,199	-5,5	-2,908
3160,311	-5	-2,891
3162,435	-4,5	-2,685
3164,559	-3,5	-2,549
3165,399	2,5	-0,001