File: Cycling_tests/_newS/_2G60/entrada/_1.txt
Time (s)	Load (N)	Displacement (mm)
0	-0,1	-0,036
2,177	0,46	-0,405
4,289	0,56	-0,391
6,407	0,68	-0,369
8,519	0,56	-0,44
10,631	0,72	-0,399
12,743	1,1	-0,395
14,855	0,96	-0,402
16,967	0,74	-0,426
19,078	0,5	-0,57
21,19	-0,16	-0,636
23,308	-0,48	-0,747
25,42	-0,84	-0,835
27,532	-1,26	-0,931
29,644	-1,5	-0,932
31,756	-1,3	-0,96
33,868	-1,42	-0,931
35,979	-1,42	-1,033
38,091	-1,84	-1,061
40,209	-1,8	-1,125
42,339	-2,24	-1,237
44,457	-2,68	-1,381
46,569	-3,66	-1,516
48,681	-3,92	-1,591
50,799	-4,08	-1,665
52,917	-4,32	-1,756
55,034	-4,72	-1,802
57,152	-5,32	-1,903
59,27	-5,56	-2,02
61,388	-5,76	-2,11
63,506	-6,46	-2,194
65,618	-6,24	-2,281
67,73	-7,16	-2,361
69,85	-6,88	-2,462
71,959	-8,18	-2,522
74,077	-8,14	-2,571
76,195	-8,88	-2,676
78,313	-9,42	-2,798
80,425	-9,9	-2,88
82,543	-10,66	-2,959
84,655	-10,88	-3,035
86,773	-11,18	-3,114
88,884	-12,2	-3,21
91,002	-12,74	-3,299
93,114	-13,38	-3,364
95,232	-14,14	-3,418
97,356	-14,82	-3,448
99,48	-15,28	-3,471
101,598	-15,4	-3,477
103,709	-15,34	-3,478
105,822	-15,38	-3,483
107,939	-15,46	-3,488
110,063	-15,46	-3,491
112,181	-15,46	-3,493
114,293	-15,46	-3,496
116,417	-15,42	-3,497
118,535	-15,4	-3,498
120,647	-15,38	-3,498
122,776	-15,36	-3,499
124,888	-15,34	-3,499
127,012	-15,32	-3,5
129,124	-15,28	-3,485
131,254	-15,26	-3,399
133,366	-15,22	-3,399
135,478	-15,24	-3,353
137,602	-15,2	-3,171
139,725	-14,3	-3,061
141,843	-14,64	-2,954
143,961	-12,38	-2,886
146,085	-11,78	-2,755
148,197	-11,28	-2,755
150,327	-10,28	-2,567
152,439	-10,24	-2,565
154,563	-9,88	-2,418
156,686	-9,4	-2,378
158,81	-8,64	-2,275
160,94	-7,46	-2,156
163,059	-7,3	-2,088
165,17	-6,76	-1,969
167,294	-5,44	-1,758
169,418	-4,5	-1,596
171,536	-3,32	-1,394
173,66	-2,8	-1,221
175,771	-2,44	-1,108
177,895	-1,52	-0,918
180,013	-1	-0,834
182,131	-0,72	-0,623
184,255	0,28	-0,47
186,379	1,08	-0,278
188,497	1,56	-0,169
190,633	2,46	-0,077
192,756	2,74	-0,035
194,88	2,82	-0,02
196,998	2,92	-0,012
199,128	2,96	-0,007
201,252	2,96	-0,005
203,37	2,96	-0,004
205,494	2,96	-0,002
207,612	2,94	-0,002
209,724	2,94	-0,001
211,847	2,94	-0,003
213,965	2,92	-0,028
216,083	2,92	-0,172
218,201	2,92	-0,28
220,325	2,36	-0,445
222,449	1,88	-0,586
224,567	1,44	-0,713
226,691	-0,02	-0,897
228,814	-0,26	-1,023
230,932	-1	-1,118
233,056	-1,34	-1,206
235,168	-1,12	-1,26
237,292	-2,18	-1,402
239,404	-1,76	-1,392
241,522	-2,34	-1,51
243,652	-3,14	-1,681
245,769	-3,74	-1,781
247,899	-4,48	-1,984
250,023	-4,8	-2,125
252,141	-4,92	-2,205
254,265	-5,76	-2,351
256,389	-7,38	-2,551
258,513	-7,88	-2,72
260,637	-9,3	-2,957
262,772	-10,8	-3,157
264,89	-11,52	-3,296
267,02	-12,78	-3,398
269,138	-13,18	-3,412
271,262	-13,42	-3,44
273,386	-14,04	-3,466
275,504	-14,32	-3,478
277,628	-14,48	-3,488
279,745	-14,52	-3,493
281,881	-14,54	-3,496
284,005	-14,54	-3,498
286,129	-14,5	-3,498
288,247	-14,5	-3,499
290,365	-14,46	-3,5
292,495	-14,44	-3,425
294,625	-14,44	-3,344
296,743	-14,4	-3,255
298,872	-13,3	-3,023
301,002	-11,24	-2,754
303,12	-11,6	-2,734
305,245	-10,7	-2,758
307,368	-9,38	-2,574
309,492	-8,5	-2,427
311,61	-8,84	-2,454
313,727	-8,1	-2,379
315,851	-7,54	-2,212
317,975	-7,26	-2,178
320,106	-5,98	-2,038
322,229	-6,3	-2,04
324,353	-6,1	-2,015
326,477	-6,66	-2,054
328,589	-6,7	-2,134
330,719	-7,08	-2,064
332,848	-6,06	-1,988
334,972	-5,72	-1,937
337,102	-5,06	-1,782
339,226	-5,32	-1,868
341,356	-4,88	-1,766
343,48	-5,14	-1,754
345,598	-4,98	-1,768
347,728	-4,48	-1,752
349,839	-5,5	-1,806
351,969	-4,7	-1,766
354,099	-4,14	-1,625
356,229	-3,1	-1,412
358,347	-2,88	-1,402
360,465	-3,36	-1,478
362,583	-2,74	-1,376
364,701	-2,58	-1,377
366,842	-2,06	-1,194
368,966	-1,8	-1,143
371,096	-1,76	-1,034
373,226	-1,1	-0,948
375,344	-1,5	-1,023
377,468	-1,38	-1,008
379,598	-1,14	-0,929
381,728	-0,96	-0,884
383,851	-1,02	-0,917
385,987	-0,9	-0,85
388,111	-0,48	-0,753
390,235	-0,04	-0,633
392,365	0,76	-0,394
394,495	1,16	-0,281
396,613	1,58	-0,225
398,737	1,38	-0,212
400,864	2,36	-0,128
402,991	2,8	-0,072
405,12	2,98	-0,051
407,25	3,2	-0,028
409,38	3,3	-0,015
411,504	3,3	-0,012
413,634	3,34	-0,008
415,752	3,34	-0,006
417,876	3,34	-0,005
419,999	3,34	-0,004
422,129	3,34	-0,002
424,253	3,34	-0,002
426,377	3,32	-0,002
428,495	3,34	-0,002
430,631	3,32	0
432,755	3,32	0
434,879	3,3	-0,102
437,008	3,3	-0,214
439,144	2,92	-0,386
441,268	2,66	-0,443
443,392	2,12	-0,575
445,522	1,22	-0,724
447,652	0,54	-0,906
449,782	0,12	-1,035
451,912	-0,72	-1,217
454,035	-1,56	-1,316
456,159	-1,74	-1,414
458,283	-1,82	-1,444
460,419	-2,26	-1,591
462,543	-2,66	-1,731
464,673	-2,86	-1,745
466,803	-3,38	-1,911
468,933	-4,02	-2,061
471,056	-5,14	-2,287
473,18	-5,5	-2,343
475,298	-5,9	-2,401
477,428	-6,28	-2,572
479,552	-7,1	-2,729
481,676	-7,94	-2,78
483,8	-8,66	-2,976
485,93	-9,5	-3,136
488,054	-9,78	-3,265
490,183	-12,16	-3,403
492,313	-13,38	-3,453
494,449	-13,58	-3,478
496,579	-13,82	-3,488
498,703	-13,86	-3,495
500,827	-13,86	-3,497
502,951	-13,86	-3,498
505,075	-13,82	-3,5
507,198	-13,78	-3,355
509,328	-12,86	-3,08
511,452	-11,18	-2,89
513,576	-12,04	-2,708
515,7	-8,94	-2,518
517,83	-7,82	-2,319
519,96	-6,04	-2,1
522,09	-5,76	-1,85
524,213	-3,58	-1,628
526,337	-3,26	-1,568
528,449	-3,32	-1,46
530,579	-2,26	-1,289
532,703	-1,58	-1,126
534,851	-0,72	-0,912
536,981	-0,1	-0,725
539,111	0,52	-0,549
541,24	1	-0,399
543,37	2,04	-0,215
545,5	2,34	-0,122
547,624	2,64	-0,091
549,748	3,04	-0,056
551,866	3,32	-0,029
554,008	3,4	-0,016
556,132	3,48	-0,01
558,268	3,5	-0,005
560,385	3,5	-0,004
562,515	3,48	-0,002
564,639	3,48	-0,002
566,763	3,46	-0,001
568,887	3,46	0
571,011	3,44	-0,025
573,141	3,42	-0,232
575,271	2,6	-0,529
577,394	1,72	-0,681
579,518	0,66	-0,908
581,654	-0,4	-1,157
583,79	-1,52	-1,39
585,914	-1,74	-1,537
588,038	-2,16	-1,631
590,168	-3,18	-1,817
592,298	-3,38	-1,914
594,422	-3,38	-1,97
596,545	-4,22	-2,181
598,675	-4,88	-2,331
600,799	-5,42	-2,429
602,935	-6,54	-2,604
605,053	-7,08	-2,785
607,171	-8,28	-2,938
609,295	-7,88	-3,057
611,418	-9,46	-3,205
613,542	-10,32	-3,305
615,672	-11,44	-3,358
617,802	-11,56	-3,413
619,932	-12,52	-3,434
622,062	-13,08	-3,466
624,192	-13,48	-3,484
626,316	-13,5	-3,488
628,446	-13,56	-3,493
630,575	-13,58	-3,495
632,705	-13,58	-3,497
634,826	-13,58	-3,498
636,947	-13,56	-3,498
639,071	-13,56	-3,499
641,201	-13,54	-3,394
643,325	-13,14	-3,212
645,449	-11,3	-2,969
647,572	-10,08	-2,725
649,696	-8,94	-2,569
651,82	-7,06	-2,278
653,95	-5,76	-2,06
656,08	-4,8	-1,856
658,216	-3,72	-1,608
660,34	-2,66	-1,391
662,476	-1,54	-1,154
664,605	-0,64	-0,903
666,741	0,02	-0,659
668,865	1,1	-0,458
671,001	1,76	-0,189
673,131	2,64	-0,107
675,267	3,26	-0,043
677,397	3,4	-0,025
679,527	3,54	-0,016
681,663	3,58	-0,008
683,792	3,6	-0,005
685,916	3,58	-0,003
688,034	3,58	-0,002
690,158	3,58	-0,001
692,288	3,54	-0,001
694,43	3,54	-0,085
696,56	2,86	-0,369
698,69	2,02	-0,631
700,813	1,7	-0,82
702,943	0,3	-0,981
705,079	-0,66	-1,215
707,203	-1,24	-1,387
709,327	-2,06	-1,614
711,445	-2,32	-1,736
713,581	-3,36	-1,937
715,711	-4,36	-2,21
717,834	-4,68	-2,335
719,97	-5,94	-2,562
722,094	-6,96	-2,746
724,206	-7,22	-2,837
726,336	-8,06	-2,982
728,46	-8,36	-3,154
730,59	-10,1	-3,293
732,714	-10,16	-3,345
734,855	-11,88	-3,43
736,979	-12,74	-3,45
739,103	-12,86	-3,468
741,233	-13,16	-3,484
743,363	-13,34	-3,492
745,499	-13,36	-3,495
747,635	-13,36	-3,497
749,771	-13,34	-3,499
751,889	-13,32	-3,499
754,012	-13,32	-3,402
756,142	-12,9	-3,211
758,272	-11,9	-2,947
760,402	-9,72	-2,76
762,526	-9,5	-2,629
764,65	-7,82	-2,398
766,78	-6,02	-2,184
768,898	-6,18	-2,035
771,027	-4,54	-1,833
773,151	-4,02	-1,738
775,281	-3,44	-1,52
777,405	-2,3	-1,323
779,541	-1,34	-1,151
781,665	-1,22	-1,058
783,789	-0,82	-0,943
785,925	0	-0,763
788,054	0,86	-0,57
790,172	0,8	-0,448
792,302	1,98	-0,224
794,438	2,78	-0,115
796,568	3	-0,068
798,692	3,42	-0,032
800,816	3,58	-0,02
802,952	3,64	-0,011
805,075	3,66	-0,007
807,193	3,66	-0,005
809,317	3,66	-0,004
811,441	3,66	-0,002
813,565	3,66	-0,001
815,695	3,62	0
817,813	3,62	-0,01
819,937	3,6	-0,175
822,06	3,02	-0,375
824,19	2,46	-0,606
826,326	0,92	-0,914
828,45	-0,1	-1,172
830,568	-0,7	-1,385
832,698	-2	-1,63
834,828	-2,88	-1,902
836,952	-4,54	-2,203
839,087	-5,28	-2,516
841,205	-6,72	-2,761
843,341	-8,02	-3,052
845,477	-10,08	-3,306
847,601	-11,38	-3,394
849,731	-12,74	-3,459
851,861	-12,94	-3,48
853,985	-13,1	-3,489
856,114	-13,18	-3,494
858,244	-13,2	-3,498
860,374	-13,16	-3,499
862,504	-13,14	-3,348
864,622	-12,84	-3,16
866,746	-10,9	-2,884
868,87	-8,18	-2,588
871,012	-6,7	-2,284
873,136	-4,98	-1,983
875,265	-3,74	-1,709
877,395	-2,74	-1,485
879,525	-1,68	-1,198
881,661	-0,3	-0,853
883,791	0,68	-0,569
885,909	1,62	-0,347
888,039	2,04	-0,18
890,169	3,14	-0,079
892,292	3,38	-0,054
894,428	3,62	-0,022
896,552	3,68	-0,012
898,694	3,72	-0,006
900,83	3,72	-0,002
902,948	3,7	-0,002
905,072	3,68	-0,001
907,196	3,68	0
909,319	3,66	-0,137
911,449	2,96	-0,439
913,585	2,04	-0,688
915,715	0,6	-0,951
917,845	0,06	-1,132
919,975	-0,88	-1,346
922,093	-1,58	-1,505
924,223	-2,36	-1,776
926,358	-3,2	-2,031
928,488	-4,62	-2,278
930,606	-4,44	-2,426
932,736	-5,74	-2,602
934,86	-6,38	-2,722
936,978	-7,08	-2,817
939,108	-8,04	-3
941,232	-9,18	-3,188
943,362	-9,38	-3,31
945,485	-11,3	-3,389
947,609	-11,92	-3,424
949,739	-12,52	-3,461
951,863	-12,58	-3,474
953,993	-12,88	-3,483
956,129	-13,02	-3,491
958,253	-13,02	-3,494
960,377	-13,02	-3,496
962,5	-13,02	-3,497
964,624	-13,02	-3,499
966,754	-13	-3,5
968,878	-12,98	-3,371
971,008	-12,08	-3,106
973,138	-10,94	-2,919
975,268	-9,46	-2,73
977,404	-7,62	-2,498
979,533	-6,26	-2,251
981,657	-6,08	-2,148
983,775	-4,56	-1,899
985,905	-3,22	-1,684
988,029	-2,82	-1,522
990,165	-1,78	-1,31
992,289	-0,9	-1,068
994,407	-0,16	-0,876
996,53	0,04	-0,65
998,654	1,26	-0,403
1000,784	2,54	-0,169
1002,908	2,94	-0,09
1005,038	3,36	-0,048
1007,156	3,52	-0,029
1009,28	3,68	-0,015
1011,41	3,76	-0,007
1013,545	3,76	-0,002
1015,663	3,74	-0,001
1017,793	3,74	0
1019,917	3,74	-0,091
1022,041	3,2	-0,304
1024,171	2,36	-0,577
1026,295	1,42	-0,846
1028,425	-0,28	-1,161
1030,561	-1,3	-1,406
1032,69	-1,7	-1,646
1034,808	-2,52	-1,82
1036,932	-3,32	-2,047
1039,062	-4,14	-2,235
1041,192	-4,2	-2,469
1043,31	-6	-2,634
1045,434	-6,64	-2,822
1047,558	-8,38	-3,032
1049,681	-9	-3,207
1051,811	-10,4	-3,364
1053,935	-11,22	-3,435
1056,053	-12,1	-3,46
1058,177	-12,62	-3,479
1060,307	-12,74	-3,491
1062,431	-12,74	-3,494
1064,549	-12,76	-3,496
1066,678	-12,76	-3,498
1068,814	-12,76	-3,499
1070,938	-12,72	-3,46
1073,062	-12,72	-3,264
1075,186	-12,12	-3,114
1077,316	-9,64	-2,851
1079,44	-8,5	-2,688
1081,57	-7,5	-2,433
1083,705	-5,64	-2,167
1085,823	-5,64	-2,104
1087,947	-4,32	-1,925
1090,077	-3,32	-1,718
1092,201	-2,4	-1,512
1094,319	-1,76	-1,374
1096,443	-1,38	-1,211
1098,573	-0,6	-0,956
1100,703	0,02	-0,837
1102,827	0,48	-0,633
1104,95	0,86	-0,528
1107,086	1,72	-0,305
1109,216	2,06	-0,217
1111,346	2,46	-0,143
1113,47	3,16	-0,07
1115,6	3,44	-0,046
1117,73	3,62	-0,026
1119,854	3,74	-0,015
1121,991	3,76	-0,01
1124,107	3,8	-0,007
1126,249	3,78	-0,003
1128,379	3,76	-0,001
1130,503	3,76	0
1132,627	3,74	-0,108
1134,745	3,74	-0,278
1136,874	2,7	-0,53
1139,004	1,38	-0,786
1141,128	1,02	-0,991
1143,252	-0,36	-1,212
1145,382	-0,66	-1,351
1147,518	-1,74	-1,622
1149,648	-1,52	-1,767
1151,766	-2,86	-1,97
1153,908	-3,4	-2,131
1156,031	-4,2	-2,303
1158,161	-5,42	-2,618
1160,291	-6,92	-2,854
1162,415	-7,36	-3,016
1164,545	-8,48	-3,237
1166,669	-8,84	-3,339
1168,799	-10,62	-3,419
1170,94	-11,54	-3,466
1173,058	-11,78	-3,482
1175,188	-11,82	-3,491
1177,324	-11,86	-3,494
1179,466	-11,8	-3,498
1181,602	-11,76	-3,499
1183,738	-11,72	-3,315
1185,862	-10,96	-3,12
1187,986	-9,64	-2,936
1190,115	-8,3	-2,754
1192,239	-7,12	-2,575
1194,363	-6,22	-2,423
1196,493	-5,04	-2,215
1198,623	-3,9	-1,969
1200,753	-2,74	-1,77
1202,871	-2,22	-1,665
1204,995	-1,7	-1,445
1207,124	-1,38	-1,331
1209,248	-0,66	-1,211
1211,372	-0,24	-1,059
1213,496	0,16	-0,844
1215,626	0,52	-0,694
1217,75	1,38	-0,494
1219,88	1,74	-0,344
1222,01	2,2	-0,218
1224,121	2,58	-0,139
1226,251	3,02	-0,102
1228,387	3,4	-0,053
1230,523	3,66	-0,02
1232,641	3,74	-0,012
1234,771	3,78	-0,006
1236,901	3,78	-0,004
1239,025	3,76	-0,002
1241,143	3,74	-0,001
1243,266	3,74	-0,001
1245,396	3,72	-0,102
1247,532	3,02	-0,416
1249,668	2,22	-0,602
1251,792	1,5	-0,813
1253,922	0,62	-1,038
1256,046	-0,4	-1,242
1258,17	-1,08	-1,421
1260,293	-1,34	-1,584
1262,423	-1,84	-1,776
1264,553	-2,32	-1,89
1266,677	-3,06	-2,147
1268,795	-3,48	-2,301
1270,919	-4,26	-2,512
1273,043	-4,5	-2,68
1275,173	-5,6	-2,855
1277,284	-6,34	-2,964
1279,42	-7,1	-3,18
1281,55	-7,72	-3,305
1283,68	-8,96	-3,405
1285,798	-9,64	-3,435
1287,922	-10,12	-3,461
1290,064	-10,5	-3,485
1292,188	-10,58	-3,493
1294,317	-10,58	-3,496
1296,453	-10,54	-3,498
1298,577	-10,54	-3,499
1300,707	-10,48	-3,426
1302,843	-9,9	-3,188
1304,967	-8,44	-2,946
1307,091	-8	-2,851
1309,221	-6,6	-2,599
1311,35	-5,3	-2,433
1313,486	-4,06	-2,216
1315,616	-3,46	-1,976
1317,74	-2,8	-1,819
1319,864	-1,88	-1,668
1322,006	-1,12	-1,441
1324,13	-0,94	-1,31
1326,26	-0,58	-1,155
1328,384	0,06	-1,008
1330,507	0,5	-0,841
1332,631	0,74	-0,679
1334,755	1,22	-0,495
1336,873	1,68	-0,361
1339,003	2,68	-0,155
1341,127	2,82	-0,102
1343,251	3,28	-0,056
1345,387	3,6	-0,029
1347,516	3,7	-0,015
1349,646	3,74	-0,01
1351,776	3,74	-0,005
1353,912	3,74	-0,003
1356,036	3,74	-0,002
1358,166	3,72	-0,001
1360,296	3,7	-0,006
1362,432	3,68	-0,246
1364,555	3,3	-0,427
1366,685	2,36	-0,577
1368,809	1,6	-0,755
1370,945	1	-0,921
1373,063	0,72	-1,01
1375,187	0,34	-1,108
1377,323	-0,52	-1,305
1379,453	-0,92	-1,486
1381,582	-1,64	-1,701
1383,7	-2,2	-1,865
1385,824	-2,78	-2,086
1387,948	-3,2	-2,275
1390,066	-3,84	-2,445
1392,202	-4,78	-2,689
1394,338	-4,9	-2,9
1396,456	-6,02	-3,049
1398,585	-7,04	-3,271
1400,709	-7,8	-3,362
1402,833	-8,64	-3,423
1404,963	-9,36	-3,458
1407,093	-9,64	-3,476
1409,217	-9,84	-3,488
1411,347	-9,86	-3,492
1413,465	-9,84	-3,494
1415,583	-9,84	-3,496
1417,712	-9,82	-3,498
1419,842	-9,8	-3,499
1421,966	-9,78	-3,45
1424,096	-9,38	-3,221
1426,226	-8,32	-2,994
1428,35	-7,18	-2,824
1430,468	-6,58	-2,65
1432,592	-5,06	-2,451
1434,721	-3,86	-2,258
1436,839	-3,22	-2,12
1438,963	-2,64	-1,958
1441,087	-2,18	-1,811
1443,211	-1,78	-1,668
1445,329	-1,38	-1,553
1447,465	-0,78	-1,358
1449,595	-0,22	-1,202
1451,724	-0,22	-1,079
1453,842	0,34	-0,86
1455,966	0,38	-0,826
1458,09	0,48	-0,764
1460,208	1,1	-0,516
1462,332	2,04	-0,266
1464,462	2,46	-0,147
1466,598	3,08	-0,077
1468,715	3,32	-0,056
1470,845	3,46	-0,033
1472,969	3,58	-0,02
1475,099	3,68	-0,011
1477,217	3,68	-0,009
1479,341	3,68	-0,006
1481,477	3,7	-0,003
1483,601	3,68	-0,002
1485,725	3,68	-0,001
1487,848	3,68	-0,001
1489,972	3,66	-0,001
1492,09	3,66	-0,059
1494,22	3,38	-0,295
1496,35	2,56	-0,472
1498,474	2,08	-0,592
1500,592	1,38	-0,73
1502,716	0,86	-0,909
1504,839	0,5	-1,046
1506,969	-0,04	-1,121
1509,105	-0,74	-1,434
1511,229	-1,44	-1,607
1513,365	-1,32	-1,772
1515,489	-1,92	-1,918
1517,613	-2,64	-2,106
1519,743	-2,98	-2,278
1521,86	-3,4	-2,394
1523,996	-3,56	-2,527
1526,126	-4,36	-2,714
1528,25	-5,06	-2,897
1530,368	-5,6	-3,01
1532,504	-6,12	-3,205
1534,634	-7	-3,304
1536,764	-7,94	-3,407
1538,881	-8,44	-3,434
1541,005	-8,82	-3,459
1543,135	-9,2	-3,478
1545,271	-9,32	-3,487
1547,407	-9,36	-3,493
1549,538	-9,34	-3,497
1551,655	-9,34	-3,498
1553,797	-9,32	-3,497
1555,933	-9,3	-3,344
1558,056	-9,04	-3,195
1560,186	-8,04	-3,049
1562,31	-6,88	-2,88
1564,44	-6,48	-2,762
1566,564	-5,66	-2,604
1568,7	-4,32	-2,361
1570,824	-3,36	-2,129
1572,954	-2,22	-1,879
1575,077	-1,68	-1,694
1577,213	-0,96	-1,462
1579,337	-0,64	-1,32
1581,455	-0,36	-1,22
1583,579	-0,12	-1,099
1585,709	0,34	-0,95
1587,833	0,6	-0,83
1589,957	0,8	-0,614
1592,086	1,6	-0,442
1594,204	1,98	-0,311
1596,334	2,26	-0,196
1598,458	2,58	-0,131
1600,588	3,06	-0,083
1602,712	3,22	-0,063
1604,842	3,04	-0,07
1606,972	3,36	-0,045
1609,089	3,48	-0,032
1611,213	3,56	-0,022
1613,337	3,58	-0,014
1615,469	3,64	-0,009
1617,591	3,66	-0,006
1619,715	3,66	-0,005
1621,833	3,66	-0,004
1623,969	3,64	-0,002
1626,092	3,64	-0,001
1628,21	3,64	-0,001
1630,352	3,6	-0,125
1632,488	3,28	-0,323
1634,606	3,38	-0,263
1636,736	3,38	-0,389
1638,866	2,88	-0,522
1640,996	2,36	-0,673
1643,114	1,84	-0,752
1645,237	1,26	-0,898
1647,367	0,52	-1,081
1649,491	-0,12	-1,264
1651,621	-0,88	-1,468
1653,745	-1,04	-1,599
1655,863	-1,1	-1,571
1657,999	-1,4	-1,805
1660,135	-1,86	-1,99
1662,264	-2,64	-2,219
1664,382	-3	-2,346
1666,518	-3,1	-2,447
1668,642	-3,8	-2,594
1670,76	-4,22	-2,706
1672,884	-4,54	-2,815
1675,014	-4,96	-2,975
1677,132	-5,78	-3,151
1679,255	-6,48	-3,293
1681,385	-7,6	-3,381
1683,503	-7,1	-3,408
1685,633	-7,62	-3,444
1687,757	-8,4	-3,452
1689,875	-8,52	-3,458
1692,005	-8,66	-3,472
1694,141	-8,94	-3,486
1696,258	-8,94	-3,49
1698,388	-8,98	-3,494
1700,518	-8,98	-3,497
1702,642	-8,96	-3,498
1704,772	-8,96	-3,499
1706,902	-8,92	-3,5
1709,02	-8,92	-3,438
1711,15	-8,9	-3,354
1713,274	-8,4	-3,118
1715,403	-7,22	-2,892
1717,521	-5,4	-2,712
1719,651	-4,66	-2,514
1721,781	-3,64	-2,348
1723,899	-2,96	-2,184
1726,035	-2,06	-1,95
1728,153	-2,44	-1,908
1730,277	-1,72	-1,762
1732,406	-1,26	-1,553
1734,536	-0,8	-1,43
1736,666	-0,34	-1,178
1738,778	0,06	-1,044
1740,908	0,52	-0,794
1743,044	1,22	-0,503
1745,162	1,42	-0,433
1747,286	1,68	-0,313
1749,415	2,44	-0,159
1751,533	2,76	-0,113
1753,663	3,2	-0,054
1755,787	3,42	-0,028
1757,917	3,54	-0,018
1760,035	3,58	-0,012
1762,159	3,62	-0,007
1764,283	3,62	-0,004
1766,406	3,62	-0,003
1768,542	3,6	-0,001
1770,684	3,58	0
1772,808	3,58	-0,078
1774,932	3,32	-0,245
1777,056	2,78	-0,436
1779,18	2	-0,605
1781,304	1,4	-0,805
1783,434	0,5	-0,965
1785,557	0,18	-1,106
1787,675	-0,3	-1,228
1789,805	-0,46	-1,368
1791,935	-1,14	-1,576
1794,059	-1,1	-1,702
1796,189	-1,44	-1,888
1798,319	-1,92	-2,023
1800,443	-2,02	-2,101
1802,572	-2,62	-2,282
1804,69	-3,04	-2,42
1806,808	-2,92	-2,467
1808,938	-3,68	-2,665
1811,062	-4,28	-2,85
1813,18	-4,62	-2,934
1815,31	-5,36	-3,067
1817,44	-6,16	-3,272
1819,557	-6,86	-3,349
1821,681	-7,66	-3,422
1823,811	-8,24	-3,452
1825,929	-8,46	-3,467
1828,053	-8,56	-3,477
1830,189	-8,68	-3,488
1832,313	-8,68	-3,491
1834,443	-8,68	-3,494
1836,572	-8,68	-3,496
1838,69	-8,68	-3,498
1840,82	-8,66	-3,499
1842,944	-8,64	-3,5
1845,068	-8,62	-3,394
1847,21	-7,64	-3,123
1849,334	-7,36	-2,908
1851,464	-5,66	-2,745
1853,593	-4,46	-2,558
1855,723	-3,86	-2,376
1857,847	-2,84	-2,202
1859,977	-2,18	-1,968
1862,107	-1,42	-1,754
1864,231	-1	-1,575
1866,355	-0,72	-1,438
1868,479	-0,4	-1,282
1870,597	-0,08	-1,139
1872,72	0,26	-0,955
1874,838	0,88	-0,72
1876,968	1,48	-0,466
1879,098	2	-0,232
1881,216	2,32	-0,173
1883,352	2,94	-0,085
1885,482	3,16	-0,052
1887,6	3,28	-0,042
1889,723	3,36	-0,025
1891,853	3,48	-0,013
1893,977	3,54	-0,009
1896,101	3,56	-0,006
1898,237	3,56	-0,004
1900,373	3,56	-0,003
1902,491	3,54	-0,002
1904,621	3,54	-0,001
1906,744	3,54	0
1908,874	3,52	-0,053
1911,004	3,16	-0,343
1913,128	2,76	-0,496
1915,264	1,32	-0,751
1917,394	0,8	-0,953
1919,512	0,28	-1,091
1921,642	0,06	-1,257
1923,766	-0,56	-1,42
1925,895	-0,8	-1,575
1928,019	-1,2	-1,753
1930,149	-1,72	-1,919
1932,273	-1,9	-2,028
1934,403	-2,5	-2,236
1936,527	-2,7	-2,336
1938,657	-3,04	-2,522
1940,787	-4,12	-2,811
1942,922	-4,76	-2,954
1945,04	-5,02	-3,102
1947,176	-5,4	-3,261
1949,3	-6,74	-3,376
1951,424	-7,58	-3,416
1953,548	-7,6	-3,443
1955,666	-7,98	-3,463
1957,796	-8,32	-3,481
1959,931	-8,4	-3,49
1962,055	-8,44	-3,494
1964,191	-8,46	-3,497
1966,327	-8,42	-3,498
1968,451	-8,44	-3,499
1970,581	-8,42	-3,5
1972,711	-8,4	-3,371
1974,829	-8,38	-3,326
1976,952	-7,82	-3,07
1979,076	-6,82	-2,902
1981,206	-5,46	-2,735
1983,336	-4,68	-2,544
1985,466	-3,48	-2,323
1987,59	-2,74	-2,113
1989,72	-1,74	-1,842
1991,838	-1,48	-1,661
1993,967	-0,84	-1,453
1996,091	-0,56	-1,317
1998,209	-0,38	-1,248
2000,339	-0,06	-1,14
2002,475	0,08	-0,987
2004,593	0,2	-0,94
2006,729	0,58	-0,78
2008,853	0,9	-0,603
2010,982	1,48	-0,399
2013,112	1,84	-0,227
2015,236	2,18	-0,148
2017,366	2,8	-0,084
2019,496	3,26	-0,033
2021,614	3,36	-0,024
2023,744	3,4	-0,022
2025,874	3,4	-0,014
2027,992	3,5	-0,009
2030,127	3,52	-0,004
2032,257	3,52	-0,002
2034,381	3,5	-0,001
2036,505	3,5	-0,001
2038,635	3,5	0
2040,753	3,48	0
2042,877	3,5	0
2045,013	3,48	0
2047,131	3,48	0
2049,254	3,48	-0,097
2051,378	3,46	-0,032
2053,508	3,48	-0,019
2055,632	3,48	-0,255
2057,756	3,46	-0,258
2059,886	3	-0,446
2062,004	2,26	-0,58
2064,133	1,38	-0,73
2066,257	1,28	-0,732
2068,375	1,52	-0,696
2070,499	1,56	-0,709
2072,629	0,98	-0,912
2074,753	0,34	-1,032
2076,883	0,5	-1,022
2079,013	0,1	-1,125
2081,131	0,4	-1,146
2083,26	0,2	-1,179
2085,396	0,34	-1,077
2087,52	0,2	-1,139
2089,644	0,42	-1,067
2091,78	0,54	-1,039
2093,898	0,52	-1,061
2096,028	0,8	-1,004
2098,164	0,82	-0,987
2100,281	0,78	-0,966
2102,411	0,56	-0,95
2104,535	0,64	-0,991
2106,665	0,78	-0,976
2108,795	0,76	-0,918
2110,919	0,8	-0,948
2113,043	0,84	-0,941
2115,167	0,52	-1,022
2117,284	0,78	-0,98
2119,414	0,06	-1,135
2121,538	-0,36	-1,314
2123,656	-0,04	-1,228
2125,786	-0,06	-1,241
2127,904	0,3	-1,101
2130,04	-0,06	-1,213
2132,164	0,78	-0,95
2134,287	0,98	-0,921
2136,411	0,8	-0,902
2138,535	0,72	-0,93
2140,659	1,78	-0,658
2142,783	2,86	-0,395
2144,907	3,46	-0,054
2147,031	3,46	0
2149,167	3,46	-0,043
2151,29	3,44	0
2153,414	3,46	0
2155,538	3,46	-0,001
2157,656	3,48	-0,002
2159,78	3,48	-0,002
2161,898	3,48	-0,002
2164,022	3,48	-0,003
2166,146	3,48	-0,004
2168,27	3,48	-0,004
2170,399	3,48	-0,005
2172,523	3,48	-0,006
2174,647	3,48	-0,007
2176,771	3,48	-0,007
2178,895	3,44	-0,01
2181,025	3,44	-0,01
2183,149	3,44	-0,012
2185,273	3,44	-0,012
2187,402	3,42	-0,013
2189,532	3,4	-0,016
2191,65	3,38	-0,022
2193,768	3,32	-0,022
2195,898	3,24	-0,028
2198,028	3,22	-0,035
2200,152	3,04	-0,052
2202,282	2,64	-0,077
2204,412	2,92	-0,062
2206,535	2,44	-0,079
2208,665	2,88	-0,076
2210,789	2,62	-0,096
2212,913	2,56	-0,102
2215,043	2,44	-0,1
2217,161	2,46	-0,102
2219,285	2,6	-0,111
2221,408	2,4	-0,135
2223,526	1,88	-0,248
2225,668	1,92	-0,234
2227,792	1,6	-0,324
2229,916	1,34	-0,418
2232,04	0,86	-0,634
2234,158	0,92	-0,613
2236,288	1,5	-0,388
2238,412	1,48	-0,385
2240,529	1,78	-0,277
2242,647	2,12	-0,195
2244,771	2,4	-0,132
2246,895	2,76	-0,082
2249,013	2,86	-0,072
2251,137	3,02	-0,052
2253,261	2,72	-0,077
2255,379	2,76	-0,077
2257,52	3,1	-0,042
2259,644	3,2	-0,041
2261,774	3,28	-0,027
2263,916	3,34	-0,016
2266,04	3,38	-0,013
2268,17	3,4	-0,008
2270,288	3,36	-0,014
2272,418	3,34	-0,012
2274,553	3,42	-0,006
2276,671	3,44	-0,004
2278,795	3,42	-0,003
2280,913	3,42	-0,002
2283,037	3,42	-0,003
2285,161	3,42	-0,004
2287,279	3,42	-0,004
2289,421	3,42	-0,003
2291,55	3,42	-0,003
2293,674	3,42	-0,002
2295,81	3,42	-0,003
2297,94	3,42	-0,004
2300,07	3,4	-0,004
2302,2	3,42	-0,004
2304,324	3,42	-0,004
2306,448	3,42	-0,004
2308,565	3,42	-0,005
2310,689	3,42	-0,004
2312,819	3,42	-0,003
2314,943	3,4	-0,004
2317,073	3,42	-0,004
2319,197	3,42	-0,004
2321,327	3,4	-0,004
2323,463	3,4	-0,003
2325,587	3,4	-0,003
2327,71	3,4	-0,002
2329,834	3,4	-0,003
2331,952	3,4	-0,004
2334,088	3,4	-0,004
2336,212	3,4	-0,004
2338,336	3,38	-0,006
2340,466	3,4	-0,004
2342,59	3,4	-0,003
2344,726	3,4	-0,002
2346,849	3,4	-0,002
2348,973	3,4	-0,002
2351,103	3,4	-0,002
2353,221	3,4	-0,002
2355,345	3,4	-0,003
2357,469	3,4	-0,003
2359,587	3,4	-0,005
2361,728	3,38	-0,006
2363,852	3,36	-0,008
2365,982	3,3	-0,015
2368,112	3,3	-0,014
2370,236	3,26	-0,025
2372,366	3,2	-0,028
2374,508	3,2	-0,026
2376,626	3,16	-0,032
2378,749	3,18	-0,029
2380,867	3,1	-0,035
2382,991	3,02	-0,043
2385,121	3,18	-0,032
2387,245	3,2	-0,028
2389,381	3,26	-0,021
2391,511	3,26	-0,017
2393,635	3,32	-0,013
2395,765	3,34	-0,01
2397,882	3,3	-0,016
2400,012	3,32	-0,014
2402,142	3,34	-0,008
2404,266	3,32	-0,01
2406,402	3,34	-0,008
2408,568	3,36	-0,004
2410,686	3,36	-0,004
2412,816	3,34	-0,003
2414,939	3,34	-0,002
2417,081	3,34	-0,002
2419,199	3,34	-0,002
2421,335	3,36	-0,002
2423,465	3,34	-0,002
2425,595	3,34	-0,002
2427,731	3,34	-0,001
2429,867	3,34	-0,001
2431,996	3,32	-0,001
2434,12	3,32	-0,001
2436,25	3,32	-0,001
2438,374	3,34	-0,001
2440,516	3,32	-0,001
2442,634	3,34	-0,001
2444,77	3,32	-0,001
2446,894	3,32	-0,001
2449,017	3,34	-0,001
2451,153	3,34	-0,001
2453,277	3,32	-0,001
2455,413	3,32	-0,001
2457,537	3,32	-0,001
2459,655	3,32	-0,001
2461,779	3,32	-0,001
2463,903	3,32	-0,001
2466,026	3,32	-0,001
2468,156	3,32	-0,001
2470,268	3,32	-0,002
2472,398	3,32	-0,002
2474,528	3,32	-0,002
2476,658	3,32	-0,003
2478,782	3,32	-0,003
2480,906	3,32	-0,002
2483,03	3,32	-0,003
2485,153	3,32	-0,004
2487,283	3,3	-0,005
2489,407	3,3	-0,006
2491,531	3,3	-0,005
2493,655	3,3	-0,008
2495,773	3,26	-0,013
2497,897	3,22	-0,018
2500,021	3,18	-0,021
2502,144	3,04	-0,034
2504,268	2,98	-0,049
2506,392	2,68	-0,08
2508,522	2,5	-0,084
2510,64	2,4	-0,098
2512,764	1,98	-0,155
2514,894	1,82	-0,218
2517,012	1,44	-0,366
2519,141	1,26	-0,402
2521,265	1,28	-0,474
2523,383	0,68	-0,697
2525,513	0,7	-0,738
2527,637	0,52	-0,816
2529,767	0,38	-0,957
2531,885	0,34	-0,989
2534,009	0,16	-1,067
2536,133	-0,2	-1,27
2538,256	-0,58	-1,395
2540,38	-0,76	-1,456
2542,498	-0,86	-1,525
2544,622	-1,28	-1,719
2546,752	-1,16	-1,707
2548,876	-1,44	-1,822
2551	-1,56	-1,849
2553,13	-1,36	-1,818
2555,253	-1,7	-1,948
2557,371	-1,92	-2,033
2559,501	-2,28	-2,122
2561,631	-2,06	-2,099
2563,749	-2,76	-2,355
2565,879	-3,54	-2,524
2568,003	-3,72	-2,644
2570,127	-4,18	-2,741
2572,25	-5,68	-2,893
2574,368	-6,76	-2,941
2576,498	-5,14	-2,864
2578,628	-5,22	-2,95
2580,746	-6,26	-3,045
2582,882	-5,88	-3,062
2585	-6,48	-3,132
2587,13	-6,54	-3,169
2589,253	-7	-3,204
2591,389	-6,48	-3,15
2593,513	-6,98	-3,4
2595,631	-6,98	-3,496
2597,767	-6,98	-3,376
2599,897	-6,98	-3,342
2602,027	-6,96	-3,4
2604,157	-6,98	-3,494
2606,274	-6,98	-3,499
2608,398	-6,98	-3,499
2610,516	-6,98	-3,498
2612,64	-6,96	-3,499
2614,77	-6,96	-3,499
2616,894	-6,96	-3,499
2619,024	-6,94	-3,499
2621,142	-6,94	-3,499
2623,278	-6,94	-3,5
2625,407	-6,94	-3,5
2627,537	-6,92	-3,5
2629,655	-6,92	-3,499
2631,779	-6,92	-3,499
2633,909	-6,92	-3,5
2636,033	-6,92	-3,5
2638,169	-6,92	-3,5
2640,299	-6,9	-3,5
2642,416	-6,9	-3,497
2644,54	-6,88	-3,492
2646,67	-6,88	-3,475
2648,794	-6,88	-3,432
2650,912	-6,88	-3,5
2653,042	-6,88	-3,492
2655,166	-6,86	-3,5
2657,284	-6,86	-3,5
2659,407	-6,86	-3,5
2661,525	-6,86	-3,5
2663,655	-6,84	-3,5
2665,785	-6,86	-3,5
2667,909	-6,84	-3,5
2670,033	-6,82	-3,475
2672,151	-6,82	-3,371
2674,287	-6,82	-3,314
2676,404	-6,8	-3,332
2678,534	-6,8	-3,312
2680,652	-6,82	-3,258
2682,782	-6,56	-3,186
2684,912	-6,54	-3,145
2687,036	-6,08	-3,116
2689,166	-5,78	-3,004
2691,296	-4,78	-2,895
2693,426	-5,02	-2,905
2695,555	-4,48	-2,844
2697,679	-4,76	-2,874
2699,803	-5,74	-2,83
2701,921	-4,66	-2,86
2704,045	-4,98	-2,895
2706,169	-4,98	-2,881
2708,293	-6,52	-3,081
2710,417	-5,88	-3,11
2712,534	-6,06	-3,17
2714,664	-6,74	-3,278
2716,782	-6,74	-3,278
2718,912	-6,02	-3,156
2721,03	-6,22	-3,14
2723,166	-5,6	-2,997
2725,296	-5,3	-2,91
2727,42	-4,96	-2,94
2729,549	-4,44	-2,79
2731,673	-3,94	-2,754
2733,803	-3,96	-2,711
2735,927	-3,58	-2,613
2738,045	-3,9	-2,619
2740,175	-3,54	-2,59
2742,299	-3,38	-2,54
2744,429	-3,56	-2,544
2746,559	-3,74	-2,633
2748,682	-3,94	-2,662
2750,812	-3,94	-2,719
2752,936	-3,74	-2,658
2755,078	-3,74	-2,644
2757,196	-3,98	-2,729
2759,326	-4,32	-2,75
2761,45	-3,96	-2,734
2763,579	-3,84	-2,683
2765,709	-3,74	-2,703
2767,827	-3,76	-2,638
2769,951	-3,92	-2,759
2772,069	-4,08	-2,8
2774,193	-3,92	-2,749
2776,311	-4,4	-2,857
2778,435	-4,68	-2,912
2780,553	-4,64	-2,908
2782,676	-4,5	-2,852
2784,8	-5,6	-2,923
2786,918	-5,9	-3,019
2789,054	-4,9	-2,955
2791,178	-4,58	-2,858
2793,302	-3,92	-2,721
2795,432	-3,5	-2,657
2797,55	-3,28	-2,609
2799,673	-3,7	-2,627
2801,803	-4,36	-2,738
2803,933	-3,76	-2,65
2806,063	-3,9	-2,629
2808,181	-3,82	-2,629
2810,311	-3,1	-2,496
2812,429	-3,16	-2,527
2814,559	-3,3	-2,515
2816,677	-4,02	-2,703
2818,812	-3,22	-2,532
2820,936	-2,94	-2,428
2823,06	-2,9	-2,399
2825,19	-2,42	-2,307
2827,314	-2,46	-2,299
2829,45	-2,56	-2,364
2831,574	-2,34	-2,28
2833,698	-2,14	-2,187
2835,827	-1,86	-2,128
2837,957	-1,8	-2,058
2840,081	-1,76	-2,033
2842,199	-1,64	-1,99
2844,323	-2,58	-2,317
2846,441	-3,04	-2,467
2848,577	-2,54	-2,334
2850,707	-2,76	-2,37
2852,83	-2,76	-2,437
2854,954	-3,12	-2,539
2857,072	-3,7	-2,695
2859,196	-3,84	-2,702
2861,32	-3,6	-2,623
2863,456	-2,88	-2,45
2865,574	-2,44	-2,317
2867,698	-2,14	-2,208
2869,839	-2,4	-2,274
2871,957	-2,12	-2,19
2874,087	-1,8	-2,124
2876,205	-1,6	-2,045
2878,329	-1,66	-2,058
2880,447	-1,52	-2,01
2882,571	-1,54	-1,992
2884,695	-1,54	-1,949
2886,825	-1,34	-1,87
2888,954	-1,34	-1,822
2891,072	-1,6	-1,955
2893,196	-1,22	-1,755
2895,314	-1,2	-1,76
2897,438	-1,18	-1,732
2899,556	-1,2	-1,764
2901,68	-1,06	-1,674
2903,803	-0,92	-1,678
2905,927	-0,96	-1,685
2908,051	-1,2	-1,789
2910,175	-1,48	-1,892
2912,299	-1,6	-1,943
2914,423	-1,6	-2,014
2916,553	-1,64	-1,984
2918,683	-1,7	-1,962
2920,801	-1,74	-2,001
2922,924	-1,3	-1,88
2925,042	-1,36	-1,914
2927,178	-1,42	-1,871
2929,296	-1,26	-1,813
2931,426	-1,24	-1,844
2933,55	-0,96	-1,698
2935,668	-0,82	-1,619
2937,798	-0,76	-1,543
2939,915	-0,68	-1,506
2942,045	-0,6	-1,521
2944,169	-0,72	-1,571
2946,299	-0,48	-1,48
2948,435	-0,34	-1,316
2950,553	-0,3	-1,311
2952,677	-0,16	-1,19
2954,801	-0,16	-1,263
2956,924	-0,08	-1,201
2959,048	0,04	-1,091
2961,172	0,18	-0,966
2963,29	0,22	-0,961
2965,414	0,34	-0,863
2967,532	0,4	-0,831
2969,656	0,46	-0,779
2971,792	0,68	-0,648
2973,909	0,78	-0,6
2976,033	0,9	-0,512
2978,151	0,88	-0,539
2980,275	0,78	-0,584
2982,411	0,86	-0,474
2984,529	0,8	-0,521
2986,653	0,8	-0,503
2988,771	0,84	-0,486
2990,901	1,08	-0,406
2993,024	1,14	-0,339
2995,154	1,26	-0,25
2997,272	1,28	-0,255
2999,408	1,66	-0,159
3001,544	2,06	-0,105
3003,662	2	-0,115
3005,792	1,86	-0,122
3007,916	1,94	-0,136
3010,045	1,98	-0,112
3012,163	1,56	-0,145
3014,293	1,72	-0,141
3016,411	1,5	-0,192
3018,541	1,3	-0,308
3020,677	1,44	-0,271
3022,801	1,06	-0,432
3024,925	1,26	-0,324
3027,042	1,24	-0,334
3029,184	1,2	-0,354
3031,308	0,8	-0,551
3033,432	0,62	-0,65
3035,55	0,42	-0,778
3037,68	0,5	-0,804
3039,798	0,22	-0,999
3041,928	0,2	-0,95
3044,057	0,18	-1,019
3046,175	0,08	-1,089
3048,299	0,08	-1,074
3050,417	-0,08	-1,198
3052,547	-0,14	-1,195
3054,671	-0,04	-1,209
3056,795	-0,28	-1,349
3058,925	-0,44	-1,401
3061,042	-0,92	-1,588
3063,166	-0,68	-1,538
3065,29	-0,84	-1,629
3067,414	-0,84	-1,702
3069,538	-0,88	-1,704
3071,668	-0,82	-1,618
3073,786	-0,92	-1,688
3075,91	-0,86	-1,738
3078,028	-1,06	-1,794
3080,163	-1,06	-1,77
3082,281	-1,72	-2,065
3084,405	-1,88	-2,15
3086,547	-1,56	-1,999
3088,677	-1,78	-2,073
3090,801	-1,9	-2,105
3092,919	-2	-2,159
3095,043	-2	-2,145
3097,16	-2,28	-2,253
3099,284	-2,42	-2,196
3101,414	-2,12	-2,223
3103,538	-2	-2,171
3105,68	-1,64	-2,024
3107,798	-1,72	-2,068
3109,916	-1,76	-2,065
3112,04	-2	-2,172
3114,181	-1,76	-2,063
3116,299	-1,66	-2,037
3118,423	-1,48	-1,932
3120,547	-1,38	-1,972
3122,677	-1,38	-1,924
3124,801	-1,38	-1,898
3126,919	-1,28	-1,874
3129,043	-1,42	-1,918
3131,161	-1,3	-1,874
3133,29	-1,06	-1,809
3135,408	-0,96	-1,774
3137,538	-0,98	-1,734
3139,656	-1,08	-1,794
3141,786	-0,86	-1,724
3143,904	-0,94	-1,686
3146,028	-0,78	-1,678
3148,158	-0,76	-1,608
3150,287	-0,54	-1,528
3152,405	-0,34	-1,375
3154,535	-0,48	-1,453
3156,659	-0,42	-1,401
3157,283	2,96	-0,001