File: Cycling_tests/_newS/_2G60/entrada/_3.txt
Time (s)	Load (N)	Displacement (mm)
0	-0,16	-0,035
2,189	0,76	-0,002
4,433	0,94	-0,18
6,593	1,04	-0,25
8,765	1,12	-0,07
10,93	1,22	0
13,09	1,34	-0,001
15,25	1,38	0
17,416	1,44	-0,001
19,582	1,48	-0,001
21,742	1,5	0
23,908	1,56	-0,001
26,068	1,6	0
28,233	1,62	-0,001
30,399	1,66	-0,148
32,559	1,66	-0,185
34,731	1,7	-0,272
36,897	1,7	-0,056
39,057	1,74	-0,063
41,223	1,78	-0,018
43,389	1,82	-0,077
45,566	1,82	-0,13
47,726	1,84	-0,076
49,898	1,86	-0,173
52,064	1,88	-0,126
54,242	1,92	-0,253
56,408	1,92	-0,226
58,568	1,94	-0,182
60,74	1,96	-0,238
62,905	1,96	-0,254
65,077	1,98	-0,082
67,237	2,02	0
69,397	2,08	-0,001
71,563	2,12	-0,002
73,735	2,14	-0,005
75,901	2,14	-0,008
78,066	2,14	-0,01
80,238	2,16	-0,014
82,398	2,06	-0,026
84,582	2,16	-0,018
86,748	2,1	-0,021
88,914	2,2	-0,016
91,074	2,2	-0,018
93,246	2,22	-0,016
95,405	2,2	-0,017
97,565	2,2	-0,02
99,737	2,24	-0,018
101,909	2,3	-0,011
104,075	2,3	-0,011
106,241	2,3	-0,011
108,413	2,34	-0,008
110,579	2,34	-0,007
112,751	2,36	-0,005
114,928	2,36	-0,003
117,1	2,38	-0,003
119,26	2,36	-0,002
121,426	2,38	-0,002
123,586	2,38	-0,002
125,746	2,4	-0,002
127,912	2,4	-0,001
130,089	2,4	-0,001
132,255	2,38	0
134,433	2,38	0
136,599	2,38	-0,014
138,777	2,38	-0,141
140,949	2,36	-0,277
143,121	1,96	-0,374
145,299	1,86	-0,472
147,471	0,9	-0,576
149,642	0,82	-0,735
151,826	-0,42	-0,836
153,986	0,1	-0,806
156,152	-0,38	-0,87
158,324	-0,66	-0,954
160,49	-0,82	-1,008
162,656	-1,26	-1,06
164,833	-1,92	-1,254
167,023	-2,3	-1,369
169,201	-2,52	-1,478
171,373	-3,12	-1,59
173,557	-3,3	-1,698
175,735	-4,04	-1,818
177,919	-4,74	-1,999
180,091	-5,22	-2,108
182,268	-5,58	-2,233
184,446	-6,58	-2,373
186,612	-7,04	-2,464
188,778	-6,84	-2,502
190,95	-7,58	-2,564
193,116	-7,76	-2,67
195,282	-8,5	-2,732
197,46	-8,1	-2,758
199,643	-9,76	-2,932
201,821	-10,38	-3,028
204,005	-10,66	-3,106
206,171	-9,78	-3,164
208,343	-11,6	-3,246
210,515	-11,84	-3,292
212,693	-12,28	-3,348
214,865	-13,02	-3,362
217,037	-12,96	-3,381
219,208	-13,32	-3,406
221,38	-14,16	-3,432
223,558	-14,02	-3,451
225,736	-14,52	-3,468
227,902	-14,6	-3,471
230,08	-14,8	-3,48
232,246	-14,78	-3,484
234,423	-14,86	-3,487
236,607	-14,88	-3,488
238,785	-14,88	-3,491
240,963	-14,88	-3,492
243,135	-14,88	-3,494
245,319	-14,9	-3,496
247,491	-14,88	-3,497
249,657	-14,86	-3,497
251,841	-14,84	-3,498
254,012	-14,82	-3,499
256,19	-14,8	-3,499
258,368	-14,76	-3,499
260,546	-14,76	-3,499
262,718	-14,74	-3,489
264,908	-14,7	-3,288
267,086	-14,46	-3,114
269,258	-13,54	-3,076
271,435	-14,38	-2,952
273,613	-12,48	-2,87
275,785	-11,58	-2,83
277,951	-12,04	-2,781
280,123	-10,86	-2,699
282,295	-10,68	-2,653
284,467	-9,52	-2,558
286,645	-8,96	-2,428
288,816	-7,72	-2,313
290,994	-8,08	-2,242
293,172	-7,22	-2,143
295,35	-6,54	-2,067
297,528	-6,06	-1,948
299,706	-5,82	-1,846
301,878	-4,86	-1,762
304,062	-4,04	-1,598
306,233	-3,58	-1,487
308,418	-2,82	-1,354
310,595	-2,26	-1,261
312,767	-2	-1,094
314,946	-1,32	-0,943
317,129	-1,08	-0,82
319,301	-0,6	-0,748
321,479	0	-0,612
323,65	0,4	-0,462
325,822	0,48	-0,439
328,012	1,12	-0,228
330,184	1,72	-0,132
332,362	2,08	-0,103
334,528	2,06	-0,082
336,712	2,48	-0,052
338,878	2,62	-0,044
341,049	2,68	-0,033
343,227	2,8	-0,023
345,411	2,86	-0,015
347,583	2,9	-0,012
349,761	2,92	-0,01
351,939	2,92	-0,006
354,111	2,94	-0,005
356,289	2,94	-0,003
358,466	2,92	-0,002
360,638	2,92	-0,002
362,816	2,9	-0,001
365	2,88	-0,001
367,166	2,88	-0,001
369,344	2,88	0
371,522	2,88	-0,124
373,694	2,76	-0,257
375,877	2,18	-0,397
378,049	2,26	-0,518
380,215	1,58	-0,578
382,393	0,78	-0,67
384,571	0,5	-0,772
386,743	0,5	-0,787
388,915	0,16	-0,919
391,087	-0,08	-0,971
393,258	-0,9	-1,118
395,43	-1,14	-1,169
397,608	-1,34	-1,283
399,786	-1,62	-1,37
401,964	-2,16	-1,536
404,136	-2,48	-1,582
406,302	-2,52	-1,662
408,48	-3,12	-1,803
410,645	-3,2	-1,867
412,829	-3,94	-1,968
415,001	-4,12	-2,03
417,173	-4,38	-2,138
419,345	-4,16	-2,182
421,517	-5,2	-2,318
423,701	-5,68	-2,392
425,867	-5,4	-2,404
428,045	-6,16	-2,522
430,216	-7,28	-2,705
432,394	-7,64	-2,772
434,566	-8,2	-2,899
436,756	-9,26	-3,077
438,934	-10,42	-3,222
441,112	-10,4	-3,266
443,284	-10,62	-3,298
445,461	-10,94	-3,356
447,645	-12,2	-3,413
449,817	-12,82	-3,422
451,995	-13,08	-3,446
454,18	-13,4	-3,457
456,351	-13,66	-3,462
458,523	-13,62	-3,473
460,695	-13,86	-3,479
462,872	-13,86	-3,482
465,05	-14	-3,489
467,228	-13,94	-3,488
469,406	-14,02	-3,492
471,578	-14,02	-3,494
473,756	-14,02	-3,496
475,934	-14,02	-3,497
478,106	-14,02	-3,497
480,283	-14,02	-3,498
482,461	-14	-3,498
484,639	-14	-3,499
486,811	-13,98	-3,499
488,995	-13,96	-3,499
491,167	-13,94	-3,5
493,345	-13,92	-3,5
495,523	-13,92	-3,439
497,706	-13,7	-3,25
499,878	-13,62	-3,143
502,056	-12,62	-3,013
504,24	-11,16	-2,864
506,412	-10,52	-2,774
508,59	-9,58	-2,678
510,768	-8,98	-2,563
512,946	-8,64	-2,454
515,117	-7,26	-2,292
517,295	-7,16	-2,231
519,485	-5,92	-2,1
521,657	-6,42	-2,091
523,841	-4,9	-1,921
526,025	-4,14	-1,783
528,197	-4,16	-1,684
530,369	-3,22	-1,558
532,552	-2,7	-1,366
534,73	-2,1	-1,253
536,92	-1,04	-1,042
539,092	-1,12	-0,952
541,264	-0,7	-0,891
543,442	-0,08	-0,745
545,614	0,1	-0,638
547,798	0,52	-0,459
549,963	0,68	-0,422
552,147	1,12	-0,31
554,325	1,62	-0,216
556,503	1,86	-0,152
558,681	2,18	-0,122
560,859	2,62	-0,081
563,037	2,66	-0,051
565,203	2,8	-0,055
567,381	2,92	-0,036
569,552	2,88	-0,037
571,736	3	-0,024
573,914	3	-0,021
576,098	3,12	-0,015
578,27	3,1	-0,013
580,46	3,14	-0,008
582,644	3,16	-0,004
584,821	3,16	-0,003
586,999	3,14	-0,002
589,177	3,14	-0,002
591,349	3,12	-0,001
593,527	3,12	-0,001
595,711	3,12	0
597,889	3,1	0
600,061	3,1	-0,009
602,238	3,1	-0,13
604,41	3,08	-0,162
606,582	3,12	-0,267
608,76	2,6	-0,392
610,932	2,28	-0,503
613,116	1,74	-0,604
615,294	1,7	-0,665
617,472	1,24	-0,725
619,649	1,04	-0,811
621,833	0,16	-0,992
624,023	-0,46	-1,146
626,201	-1,36	-1,322
628,391	-1,62	-1,448
630,563	-1,82	-1,484
632,747	-2,14	-1,596
634,913	-1,9	-1,606
637,09	-2,28	-1,678
639,268	-2,78	-1,775
641,458	-3,34	-1,932
643,654	-4,54	-2,196
645,838	-4,76	-2,338
648,01	-4,76	-2,347
650,188	-4,3	-2,392
652,366	-5,16	-2,43
654,544	-6,32	-2,624
656,723	-6,72	-2,693
658,893	-6,82	-2,699
661,077	-7,56	-2,831
663,243	-7,7	-2,848
665,415	-8,26	-2,953
667,587	-8,72	-3,062
669,765	-9,28	-3,197
671,936	-9,92	-3,226
674,108	-9,92	-3,255
676,286	-9,9	-3,28
678,464	-10,9	-3,348
680,654	-12,14	-3,4
682,832	-12,76	-3,435
685,01	-12,68	-3,455
687,182	-12,92	-3,469
689,36	-13,12	-3,48
691,537	-13,34	-3,484
693,709	-13,34	-3,485
695,893	-13,44	-3,491
698,071	-13,46	-3,494
700,255	-13,46	-3,494
702,427	-13,46	-3,496
704,599	-13,46	-3,496
706,764	-13,44	-3,496
708,936	-13,46	-3,496
711,114	-13,46	-3,498
713,292	-13,44	-3,498
715,47	-13,42	-3,499
717,643	-13,42	-3,499
719,832	-13,4	-3,499
722,004	-13,4	-3,5
724,188	-13,38	-3,5
726,365	-13,34	-3,456
728,555	-13,32	-3,288
730,733	-12,52	-3,101
732,905	-12,72	-3,097
735,083	-11,26	-2,945
737,267	-10,72	-2,819
739,445	-10,58	-2,748
741,617	-9,64	-2,764
743,794	-9,56	-2,729
745,966	-9,22	-2,642
748,144	-9,42	-2,618
750,316	-9	-2,631
752,506	-8,52	-2,447
754,678	-7,8	-2,422
756,868	-6,44	-2,285
759,04	-6,62	-2,208
761,223	-6,3	-2,164
763,413	-5,24	-2,06
765,597	-4,62	-1,869
767,769	-3,92	-1,8
769,947	-3,06	-1,65
772,143	-2,8	-1,463
774,321	-2,36	-1,392
776,493	-1,78	-1,276
778,676	-1,7	-1,18
780,854	-1,48	-1,163
783,038	-0,86	-0,978
785,222	-0,98	-0,945
787,394	-0,56	-0,883
789,566	-0,46	-0,911
791,744	-0,82	-0,883
793,922	-0,58	-0,844
796,105	-0,1	-0,8
798,283	-0,46	-0,768
800,467	0,22	-0,655
802,639	0,34	-0,583
804,811	0,74	-0,462
806,983	0,92	-0,368
809,161	1,28	-0,242
811,333	1,44	-0,256
813,522	1,92	-0,154
815,7	2	-0,128
817,884	2,7	-0,081
820,068	2,84	-0,069
822,246	2,82	-0,064
824,43	2,96	-0,048
826,602	3,02	-0,044
828,78	3	-0,038
830,963	3,22	-0,023
833,147	3,26	-0,014
835,331	3,28	-0,01
837,509	3,28	-0,008
839,681	3,3	-0,008
841,853	3,3	-0,008
844,031	3,28	-0,008
846,215	3,3	-0,006
848,404	3,32	-0,004
850,57	3,3	-0,005
852,748	3,3	-0,004
854,926	3,3	-0,003
857,104	3,3	-0,002
859,276	3,3	-0,002
861,466	3,3	-0,002
863,644	3,28	-0,001
865,821	3,26	-0,001
868,011	3,28	-0,001
870,183	3,28	-0,001
872,367	3,26	0
874,539	3,26	0
876,717	3,26	-0,089
878,895	3,28	-0,26
881,079	2,64	-0,385
883,25	2,6	-0,442
885,429	2,18	-0,54
887,6	2,16	-0,528
889,772	2,08	-0,558
891,956	1,86	-0,637
894,128	1,78	-0,61
896,3	1,74	-0,624
898,472	1,9	-0,612
900,643	2,18	-0,693
902,827	1,1	-0,733
905,011	0,98	-0,796
907,177	1,14	-0,722
909,355	1,26	-0,828
911,533	0,86	-0,827
913,711	1,48	-0,824
915,883	0,42	-0,902
918,054	0,76	-0,942
920,232	0,26	-0,992
922,41	0,02	-1,064
924,582	-0,38	-1,121
926,754	0	-1,119
928,932	0,08	-1,105
931,104	-0,22	-1,109
933,282	-0,38	-1,121
935,453	-0,32	-1,146
937,625	-0,28	-1,124
939,803	-0,56	-1,19
941,975	-0,56	-1,215
944,165	-0,56	-1,229
946,337	-1,18	-1,333
948,515	-1,3	-1,346
950,687	-0,84	-1,334
952,877	-1,48	-1,427
955,048	-1,46	-1,464
957,232	-1,66	-1,622
959,404	-1,76	-1,562
961,594	-2,26	-1,71
963,766	-2,44	-1,799
965,938	-2,32	-1,712
968,122	-2,24	-1,776
970,299	-2,68	-1,846
972,483	-3,02	-2,006
974,661	-3,66	-2,13
976,845	-3,84	-2,172
979,017	-4,04	-2,235
981,189	-4,24	-2,277
983,373	-4,9	-2,362
985,545	-4,28	-2,333
987,716	-4,68	-2,364
989,888	-4,66	-2,388
992,06	-4,92	-2,499
994,232	-5,68	-2,572
996,41	-6,42	-2,782
998,588	-6,82	-2,889
1000,76	-7,72	-2,978
1002,926	-7,26	-3
1005,116	-8,82	-3,167
1007,287	-9,24	-3,258
1009,465	-10,22	-3,327
1011,649	-10,66	-3,388
1013,821	-11,54	-3,416
1016,011	-12,06	-3,446
1018,177	-12,4	-3,468
1020,361	-12,42	-3,474
1022,526	-12,44	-3,472
1024,71	-12,72	-3,48
1026,882	-12,54	-3,479
1029,066	-12,54	-3,478
1031,238	-12,64	-3,478
1033,428	-12,62	-3,484
1035,612	-12,76	-3,487
1037,778	-12,7	-3,484
1039,955	-12,8	-3,49
1042,127	-12,72	-3,488
1044,305	-12,76	-3,49
1046,483	-12,76	-3,489
1048,649	-12,76	-3,49
1050,815	-12,72	-3,488
1052,993	-12,74	-3,488
1055,171	-12,74	-3,491
1057,348	-12,8	-3,494
1059,526	-12,78	-3,494
1061,698	-12,78	-3,494
1063,876	-12,78	-3,496
1066,048	-12,78	-3,496
1068,226	-12,76	-3,497
1070,398	-12,76	-3,497
1072,57	-12,76	-3,498
1074,747	-12,76	-3,498
1076,931	-12,72	-3,499
1079,115	-12,7	-3,499
1081,293	-12,68	-3,499
1083,465	-12,72	-3,499
1085,637	-12,68	-3,499
1087,821	-12,68	-3,499
1089,993	-12,68	-3,499
1092,17	-12,66	-3,499
1094,348	-12,66	-3,5
1096,532	-12,62	-3,462
1098,698	-12,62	-3,492
1100,882	-12,62	-3,467
1103,048	-12,62	-3,462
1105,226	-12,6	-3,401
1107,404	-12,6	-3,346
1109,575	-12,58	-3,244
1111,753	-12,56	-3,156
1113,919	-12,04	-3,107
1116,103	-11,54	-3,038
1118,281	-11,58	-3,004
1120,453	-9,74	-2,856
1122,625	-8,58	-2,762
1124,797	-8,76	-2,742
1126,963	-9,26	-2,736
1129,134	-8,5	-2,701
1131,306	-7,92	-2,681
1133,478	-7,98	-2,586
1135,656	-6,84	-2,447
1137,834	-6,94	-2,386
1140	-6,26	-2,294
1142,172	-5,48	-2,228
1144,349	-5,74	-2,204
1146,527	-4,64	-2,069
1148,699	-4,8	-2,077
1150,871	-3,96	-1,961
1153,049	-3,66	-1,869
1155,233	-3,2	-1,778
1157,405	-2,64	-1,71
1159,589	-2,7	-1,663
1161,766	-2,2	-1,565
1163,944	-1,92	-1,526
1166,122	-1,78	-1,455
1168,294	-1,7	-1,408
1170,472	-1,06	-1,232
1172,656	-0,98	-1,158
1174,834	-0,6	-1,059
1177,006	-0,42	-1,062
1179,177	-0,72	-1,057
1181,361	-0,24	-0,898
1183,539	0,18	-0,885
1185,705	0,26	-0,837
1187,877	0,3	-0,717
1190,055	0,42	-0,609
1192,227	1	-0,562
1194,399	0,76	-0,542
1196,573	1,06	-0,495
1198,749	1,54	-0,361
1200,914	1,22	-0,388
1203,092	1,76	-0,241
1205,27	2,26	-0,158
1207,442	2,28	-0,154
1209,62	2,5	-0,13
1211,792	2,48	-0,118
1213,964	2,7	-0,109
1216,141	2,56	-0,112
1218,319	2,68	-0,106
1220,497	2,96	-0,076
1222,681	3,12	-0,06
1224,853	3	-0,055
1227,031	3,2	-0,04
1229,209	3,3	-0,031
1231,387	3,32	-0,024
1233,564	3,4	-0,017
1235,748	3,4	-0,015
1237,926	3,42	-0,01
1240,104	3,42	-0,011
1242,276	3,42	-0,015
1244,454	3,4	-0,013
1246,626	3,42	-0,01
1248,798	3,46	-0,007
1250,957	3,46	-0,008
1253,135	3,44	-0,006
1255,307	3,44	-0,005
1257,491	3,44	-0,003
1259,669	3,44	-0,003
1261,859	3,42	-0,002
1264,043	3,42	-0,001
1266,215	3,4	-0,001
1268,392	3,4	-0,001
1270,57	3,4	-0,001
1272,736	3,4	-0,001
1274,908	3,4	-0,001
1277,086	3,38	-0,001
1279,264	3,36	0
1281,436	3,36	-0,006
1283,614	3,36	-0,131
1285,785	3,36	-0,153
1287,975	2,92	-0,29
1290,147	3,1	-0,37
1292,319	2,78	-0,432
1294,497	2,2	-0,509
1296,669	2,48	-0,506
1298,847	2,16	-0,536
1301,019	2,3	-0,581
1303,19	2,24	-0,596
1305,374	1,3	-0,707
1307,552	0,66	-0,832
1309,73	0,72	-0,94
1311,902	0,08	-1,083
1314,074	-0,42	-1,177
1316,252	-0,74	-1,253
1318,436	-0,74	-1,343
1320,607	-0,66	-1,422
1322,779	-1,08	-1,506
1324,957	-1,24	-1,587
1327,129	-1,44	-1,697
1329,313	-2,08	-1,884
1331,485	-1,98	-1,908
1333,669	-2,44	-2,078
1335,847	-2,3	-2,112
1338,024	-2,74	-2,167
1340,202	-2,88	-2,222
1342,38	-3,16	-2,283
1344,552	-3,28	-2,287
1346,724	-3,12	-2,29
1348,908	-3,34	-2,386
1351,074	-3,88	-2,482
1353,258	-4,16	-2,587
1355,43	-4,6	-2,671
1357,595	-4,36	-2,625
1359,779	-4,64	-2,736
1361,945	-4,6	-2,757
1364,129	-5,14	-2,811
1366,295	-5,1	-2,832
1368,467	-4,82	-2,927
1370,645	-5,64	-3,018
1372,822	-6,28	-3,154
1374,994	-6,92	-3,243
1377,172	-7,62	-3,331
1379,356	-8,18	-3,394
1381,534	-8,44	-3,433
1383,712	-8,84	-3,442
1385,878	-8,66	-3,451
1388,068	-8,92	-3,461
1390,246	-9,12	-3,474
1392,417	-9,16	-3,476
1394,595	-9,24	-3,482
1396,785	-9,24	-3,491
1398,963	-9,24	-3,486
1401,141	-9,22	-3,489
1403,313	-9,2	-3,484
1405,497	-9,22	-3,488
1407,674	-9,2	-3,491
1409,85	-9,22	-3,493
1412,024	-9,2	-3,495
1414,202	-9,2	-3,497
1416,374	-9,18	-3,498
1418,54	-9,18	-3,498
1420,712	-9,14	-3,498
1422,884	-9,12	-3,498
1425,067	-9,1	-3,499
1427,239	-9,08	-3,499
1429,405	-9,04	-3,5
1431,595	-9,02	-3,439
1433,767	-9	-3,285
1435,945	-8,5	-3,164
1438,111	-8,38	-3,125
1440,289	-7,3	-2,985
1442,478	-6,52	-2,816
1444,662	-5,46	-2,63
1446,834	-4,76	-2,552
1449,024	-3,38	-2,317
1451,202	-2,86	-2,216
1453,374	-2,7	-2,112
1455,558	-2,26	-1,978
1457,73	-1,76	-1,868
1459,907	-1,44	-1,776
1462,091	-1,26	-1,703
1464,269	-0,92	-1,588
1466,441	-0,88	-1,51
1468,631	-0,3	-1,304
1470,809	0	-1,181
1472,987	0,16	-1,098
1475,153	0,24	-1,024
1477,33	0,52	-0,894
1479,52	0,8	-0,704
1481,698	1,08	-0,574
1483,876	1,38	-0,446
1486,054	1,4	-0,44
1488,226	1,7	-0,356
1490,392	1,58	-0,376
1492,582	2,28	-0,183
1494,759	2,38	-0,131
1496,943	2,54	-0,097
1499,121	2,84	-0,066
1501,293	2,92	-0,047
1503,483	3,18	-0,025
1505,667	3,24	-0,016
1507,845	3,26	-0,014
1510,017	3,26	-0,011
1512,2	3,3	-0,007
1514,384	3,3	-0,005
1516,556	3,3	-0,004
1518,734	3,3	-0,003
1520,918	3,28	-0,002
1523,09	3,28	-0,002
1525,262	3,28	-0,001
1527,44	3,26	-0,001
1529,611	3,28	-0,001
1531,789	3,26	0
1533,961	3,26	-0,014
1536,139	3,24	-0,077
1538,311	3,24	-0,202
1540,495	2,94	-0,356
1542,661	2,62	-0,356
1544,845	2,08	-0,505
1547,022	1,84	-0,586
1549,194	1,46	-0,703
1551,378	0,54	-0,883
1553,55	0,28	-0,978
1555,728	-0,22	-1,202
1557,9	-0,74	-1,33
1560,084	-0,88	-1,472
1562,256	-1,32	-1,593
1564,452	-1,62	-1,866
1566,623	-2,04	-1,992
1568,801	-2,16	-2,031
1570,973	-2,36	-2,189
1573,151	-2,48	-2,244
1575,319	-2,8	-2,302
1577,501	-2,82	-2,398
1579,685	-3,1	-2,531
1581,856	-3,26	-2,55
1584,04	-3,46	-2,626
1586,212	-3,4	-2,651
1588,39	-3,56	-2,7
1590,562	-3,84	-2,741
1592,734	-4,02	-2,75
1594,912	-4,02	-2,843
1597,09	-3,96	-2,812
1599,273	-4,68	-2,936
1601,451	-4,56	-2,99
1603,647	-5,32	-3,156
1605,819	-5,94	-3,245
1607,997	-6,26	-3,286
1610,169	-6,14	-3,308
1612,341	-6,48	-3,348
1614,513	-6,94	-3,351
1616,696	-7,24	-3,388
1618,868	-7,38	-3,416
1621,034	-7,66	-3,415
1623,212	-7,1	-3,428
1625,378	-7,76	-3,427
1627,55	-7,6	-3,43
1629,716	-7,48	-3,43
1631,9	-7,72	-3,446
1634,078	-8,1	-3,455
1636,255	-8,28	-3,469
1638,427	-8,04	-3,469
1640,611	-8,24	-3,472
1642,783	-8,32	-3,476
1644,961	-8,34	-3,478
1647,139	-8,44	-3,484
1649,329	-8,38	-3,488
1651,507	-8,34	-3,486
1653,672	-8,42	-3,483
1655,85	-8,44	-3,487
1658,034	-8,42	-3,488
1660,206	-8,32	-3,486
1662,384	-8,42	-3,49
1664,568	-8,44	-3,494
1666,746	-8,44	-3,495
1668,918	-8,42	-3,494
1671,089	-8,4	-3,495
1673,273	-8,4	-3,497
1675,451	-8,4	-3,497
1677,617	-8,38	-3,497
1679,801	-8,4	-3,498
1681,973	-8,38	-3,498
1684,145	-8,38	-3,498
1686,317	-8,38	-3,498
1688,494	-8,36	-3,498
1690,66	-8,36	-3,498
1692,838	-8,32	-3,499
1695,022	-8,3	-3,499
1697,194	-8,28	-3,499
1699,366	-8,3	-3,499
1701,55	-8,26	-3,499
1703,728	-8,26	-3,499
1705,9	-8,24	-3,499
1708,071	-8,24	-3,499
1710,243	-8,24	-3,499
1712,415	-8,24	-3,499
1714,593	-8,22	-3,499
1716,771	-8,22	-3,499
1718,943	-8,2	-3,494
1721,109	-8,18	-3,5
1723,28	-8,2	-3,5
1725,452	-8,18	-3,498
1727,63	-8,18	-3,489
1729,814	-8,16	-3,462
1731,989	-8,16	-3,486
1734,152	-8,16	-3,5
1736,342	-8,14	-3,31
1738,514	-8,14	-3,312
1740,685	-7,8	-3,258
1742,863	-7,62	-3,099
1745,047	-6,82	-3,035
1747,231	-6,84	-2,934
1749,397	-6,28	-2,928
1751,581	-4,88	-2,698
1753,753	-4,38	-2,643
1755,937	-3,98	-2,541
1758,108	-3,48	-2,474
1760,292	-3,14	-2,383
1762,47	-2,7	-2,274
1764,636	-2,4	-2,162
1766,814	-2,1	-2,087
1769,004	-1,54	-1,945
1771,188	-1,3	-1,838
1773,36	-1,4	-1,808
1775,537	-1,18	-1,733
1777,709	-0,94	-1,664
1779,887	-0,74	-1,588
1782,059	-0,86	-1,483
1784,243	-0,34	-1,398
1786,415	-0,14	-1,234
1788,581	-0,16	-1,208
1790,759	0,08	-1,073
1792,943	0,24	-0,993
1795,108	0,36	-0,881
1797,286	0,48	-0,842
1799,47	0,56	-0,768
1801,636	0,56	-0,734
1803,814	0,66	-0,698
1805,986	0,72	-0,608
1808,158	0,86	-0,573
1810,33	1,16	-0,446
1812,513	1,34	-0,335
1814,679	1,34	-0,307
1816,869	1,64	-0,235
1819,047	1,88	-0,186
1821,225	2,08	-0,149
1823,397	2,18	-0,104
1825,581	2,62	-0,074
1827,764	2,74	-0,055
1829,93	2,74	-0,049
1832,114	2,88	-0,033
1834,292	2,96	-0,024
1836,464	3,02	-0,02
1838,642	3,04	-0,02
1840,82	3,04	-0,021
1842,998	3,06	-0,016
1845,169	3,06	-0,012
1847,347	3,1	-0,009
1849,525	3,1	-0,008
1851,709	3,12	-0,006
1853,881	3,1	-0,005
1856,059	3,12	-0,004
1858,225	3,1	-0,003
1860,409	3,12	-0,003
1862,58	3,1	-0,003
1864,758	3,1	-0,002
1866,924	3,1	-0,002
1869,108	3,1	-0,002
1871,286	3,1	-0,002
1873,452	3,1	-0,002
1875,63	3,1	-0,002
1877,808	3,1	-0,002
1879,985	3,08	-0,001
1882,169	3,08	-0,001
1884,353	3,08	0
1886,519	3,08	-0,001
1888,697	3,06	0
1890,869	3,06	0
1893,053	3,06	0
1895,231	3,04	-0,1
1897,408	3,04	-0,179
1899,592	3,04	-0,283
1901,764	2,72	-0,331
1903,936	2,68	-0,313
1906,114	2,28	-0,454
1908,28	2,32	-0,471
1910,446	2,52	-0,466
1912,624	2,06	-0,511
1914,795	1,48	-0,573
1916,979	0,96	-0,738
1919,157	0,66	-0,856
1921,329	0,54	-0,903
1923,513	0,08	-1,041
1925,691	-0,02	-1,182
1927,875	-0,5	-1,267
1930,047	-0,42	-1,276
1932,23	-0,42	-1,382
1934,402	-0,42	-1,451
1936,592	-0,8	-1,528
1938,77	-0,64	-1,582
1940,948	-0,72	-1,622
1943,12	-0,92	-1,647
1945,298	-1,06	-1,729
1947,476	-1,2	-1,858
1949,647	-1,34	-1,942
1951,831	-1,58	-2,038
1954,009	-1,44	-2,05
1956,181	-1,6	-2,106
1958,359	-1,9	-2,241
1960,537	-1,9	-2,227
1962,703	-2,14	-2,336
1964,887	-2,16	-2,398
1967,065	-2,08	-2,372
1969,236	-2,28	-2,398
1971,408	-1,98	-2,338
1973,586	-2,08	-2,345
1975,77	-2,3	-2,388
1977,936	-2,18	-2,372
1980,12	-2,42	-2,468
1982,298	-2,44	-2,481
1984,469	-2,7	-2,548
1986,647	-2,56	-2,581
1988,819	-2,88	-2,666
1990,985	-2,76	-2,655
1993,157	-3,04	-2,718
1995,335	-3,3	-2,789
1997,513	-3,14	-2,844
1999,697	-3,7	-2,923
2001,875	-4,18	-3,047
2004,046	-3,96	-3,051
2006,218	-4,28	-3,091
2008,396	-4,36	-3,106
2010,562	-4,1	-3,17
2012,734	-4,9	-3,233
2014,906	-4,6	-3,223
2017,078	-4,48	-3,222
2019,244	-4,32	-3,206
2021,421	-4,76	-3,288
2023,605	-5,34	-3,334
2025,783	-5,2	-3,347
2027,961	-5,24	-3,345
2030,127	-5,34	-3,32
2032,305	-5,58	-3,382
2034,483	-5,78	-3,397
2036,667	-6,38	-3,417
2038,832	-6,34	-3,424
2041,004	-6,2	-3,428
2043,182	-6,46	-3,441
2045,354	-6,7	-3,453
2047,532	-6,88	-3,466
2049,704	-6,74	-3,463
2051,888	-6,9	-3,464
2054,06	-6,9	-3,47
2056,237	-6,9	-3,47
2058,403	-6,28	-3,463
2060,593	-6,8	-3,474
2062,771	-6,92	-3,479
2064,937	-6,94	-3,476
2067,115	-6,94	-3,476
2069,299	-6,86	-3,479
2071,465	-6,96	-3,477
2073,636	-6,96	-3,479
2075,814	-6,98	-3,482
2077,98	-6,64	-3,478
2080,164	-6,84	-3,482
2082,342	-6,84	-3,481
2084,514	-6,98	-3,485
2086,686	-6,94	-3,486
2088,864	-6,98	-3,488
2091,035	-6,96	-3,489
2093,213	-6,96	-3,491
2095,391	-6,96	-3,493
2097,557	-6,94	-3,49
2099,735	-6,94	-3,492
2101,901	-6,94	-3,493
2104,085	-6,96	-3,495
2106,263	-6,96	-3,496
2108,446	-6,96	-3,497
2110,612	-6,96	-3,496
2112,79	-6,94	-3,497
2114,968	-6,92	-3,498
2117,146	-6,92	-3,498
2119,318	-6,92	-3,498
2121,49	-6,9	-3,498
2123,662	-6,9	-3,499
2125,839	-6,86	-3,499
2128,017	-6,86	-3,5
2130,183	-6,86	-3,5
2132,361	-6,82	-3,492
2134,545	-6,8	-3,408
2136,717	-6,8	-3,36
2138,889	-6,8	-3,355
2141,067	-6,78	-3,312
2143,238	-6,78	-3,258
2145,422	-5,86	-3,128
2147,6	-5,72	-2,987
2149,766	-4,88	-2,949
2151,938	-5,22	-2,934
2154,11	-4,48	-2,851
2156,282	-4,16	-2,838
2158,454	-4,82	-2,828
2160,631	-4,4	-2,767
2162,803	-3,68	-2,663
2164,987	-3,26	-2,551
2167,159	-2,68	-2,44
2169,337	-2,36	-2,353
2171,515	-2,08	-2,165
2173,687	-1,82	-2,114
2175,859	-1,66	-2,095
2178,036	-1,56	-2,082
2180,208	-1,82	-2,075
2182,386	-1,5	-2,008
2184,564	-1,34	-1,957
2186,736	-1,1	-1,894
2188,902	-1,02	-1,825
2191,086	-0,92	-1,762
2193,27	-0,74	-1,644
2195,435	-0,54	-1,596
2197,607	-0,54	-1,534
2199,785	-0,34	-1,43
2201,957	-0,2	-1,369
2204,141	-0,06	-1,252
2206,313	0,02	-1,142
2208,491	0,12	-1,06
2210,663	0,2	-1,062
2212,846	0,34	-0,929
2215,018	0,4	-0,936
2217,19	0,3	-0,932
2219,374	0,54	-0,847
2221,558	0,72	-0,698
2223,73	0,7	-0,652
2225,908	0,84	-0,569
2228,08	1,04	-0,487
2230,245	1,18	-0,369
2232,423	1,34	-0,293
2234,589	1,24	-0,314
2236,773	1,64	-0,224
2238,945	1,82	-0,15
2241,135	2,1	-0,11
2243,301	1,82	-0,12
2245,485	2	-0,09
2247,662	2,08	-0,081
2249,828	1,94	-0,092
2252	2,14	-0,078
2254,178	2,28	-0,065
2256,344	2,34	-0,056
2258,522	2,52	-0,04
2260,694	2,52	-0,046
2262,866	2,6	-0,032
2265,043	2,64	-0,028
2267,221	2,68	-0,025
2269,393	2,76	-0,02
2271,571	2,8	-0,014
2273,755	2,82	-0,01
2275,921	2,8	-0,013
2278,093	2,8	-0,014
2280,271	2,8	-0,012
2282,454	2,84	-0,008
2284,632	2,84	-0,008
2286,81	2,86	-0,006
2289	2,86	-0,005
2291,166	2,86	-0,004
2293,344	2,86	-0,003
2295,516	2,86	-0,003
2297,688	2,86	-0,003
2299,859	2,86	-0,002
2302,025	2,86	-0,002
2304,197	2,86	-0,002
2306,375	2,86	-0,002
2308,547	2,86	-0,002
2310,719	2,86	-0,002
2312,897	2,86	-0,002
2315,063	2,86	-0,002
2317,234	2,84	-0,001
2319,406	2,84	-0,001
2321,572	2,84	-0,001
2323,75	2,84	-0,001
2325,928	2,84	-0,001
2328,1	2,82	-0,001
2330,272	2,82	0
2332,456	2,8	0
2334,621	2,8	-0,173
2336,811	2,18	-0,415
2338,989	1,28	-0,647
2341,155	1,18	-0,737
2343,339	0,72	-0,838
2345,517	0,66	-0,883
2347,689	0,28	-0,923
2349,867	0,08	-1,053
2352,039	0,08	-1,138
2354,21	0,1	-1,092
2356,4	0,02	-1,192
2358,578	-0,42	-1,417
2360,75	-0,62	-1,522
2362,928	-0,8	-1,695
2365,112	-1,1	-1,997
2367,29	-1,22	-2,148
2369,473	-1,66	-2,334
2371,651	-1,96	-2,495
2373,823	-2,28	-2,706
2376,007	-3,04	-2,924
2378,191	-3,74	-3,164
2380,363	-4,1	-3,289
2382,535	-4,88	-3,376
2384,719	-5,3	-3,421
2386,885	-5,78	-3,448
2389,062	-5,7	-3,476
2391,24	-6,04	-3,484
2393,406	-6,14	-3,484
2395,59	-6,14	-3,485
2397,762	-6,12	-3,486
2399,934	-6,12	-3,49
2402,112	-6,18	-3,492
2404,29	-6,16	-3,492
2406,455	-6,14	-3,493
2408,639	-6,14	-3,494
2410,817	-6,16	-3,494
2412,983	-6,16	-3,493
2415,155	-6,12	-3,493
2417,333	-6,16	-3,494
2419,511	-6,16	-3,496
2421,688	-6,16	-3,496
2423,872	-6,16	-3,497
2426,044	-6,14	-3,498
2428,234	-6,16	-3,498
2430,412	-6,14	-3,499
2432,584	-6,14	-3,499
2434,756	-6,14	-3,499
2436,934	-6,12	-3,499
2439,106	-6,12	-3,499
2441,289	-6,12	-3,499
2443,467	-6,1	-3,5
2445,633	-6,08	-3,5
2447,817	-6,08	-3,48
2449,989	-6,08	-3,42
2452,167	-6,06	-3,427
2454,351	-6,06	-3,318
2456,535	-5,98	-3,17
2458,7	-5,32	-3,126
2460,884	-4,88	-2,988
2463,05	-4,58	-2,918
2465,234	-4,28	-2,848
2467,412	-3,78	-2,761
2469,59	-3,56	-2,728
2471,762	-3,08	-2,654
2473,94	-2,82	-2,599
2476,123	-2,42	-2,45
2478,289	-2,46	-2,444
2480,473	-2,3	-2,359
2482,651	-2,18	-2,302
2484,829	-2	-2,281
2487,007	-1,62	-2,135
2489,179	-1,28	-2,02
2491,357	-1,22	-1,907
2493,54	-0,72	-1,716
2495,706	-0,8	-1,732
2497,884	-0,72	-1,687
2500,068	-0,6	-1,58
2502,234	-0,66	-1,607
2504,412	-0,6	-1,589
2506,584	-0,48	-1,543
2508,756	-0,38	-1,518
2510,927	-0,44	-1,493
2513,111	-0,46	-1,488
2515,289	-0,26	-1,357
2517,467	-0,24	-1,361
2519,645	-0,2	-1,333
2521,811	-0,16	-1,263
2523,983	-0,1	-1,264
2526,161	-0,04	-1,231
2528,332	-0,14	-1,243
2530,516	0,08	-1,142
2532,706	0,12	-1,048
2534,878	0,32	-0,928
2537,056	0,3	-0,904
2539,229	0,34	-0,8
2541,4	0,4	-0,795
2543,572	0,36	-0,76
2545,749	0,46	-0,683
2547,921	0,54	-0,664
2550,093	0,54	-0,703
2552,271	0,44	-0,689
2554,443	0,54	-0,665
2556,621	0,6	-0,621
2558,793	0,7	-0,584
2560,977	0,86	-0,442
2563,154	1,16	-0,276
2565,326	1,2	-0,216
2567,504	1,48	-0,144
2569,688	1,58	-0,115
2571,866	1,7	-0,101
2574,038	1,8	-0,103
2576,228	1,92	-0,071
2578,4	2,14	-0,059
2580,577	2,26	-0,048
2582,761	2,38	-0,034
2584,933	2,48	-0,026
2587,117	2,58	-0,015
2589,295	2,58	-0,013
2591,473	2,62	-0,01
2593,651	2,62	-0,007
2595,835	2,66	-0,005
2598	2,66	-0,004
2600,178	2,66	-0,004
2602,35	2,66	-0,003
2604,516	2,66	-0,003
2606,7	2,66	-0,003
2608,872	2,66	-0,002
2611,044	2,66	-0,002
2613,222	2,66	-0,002
2615,405	2,66	-0,001
2617,577	2,66	-0,001
2619,761	2,64	-0,001
2621,933	2,64	-0,001
2624,117	2,62	0
2626,289	2,64	0
2628,455	2,62	-0,001
2630,627	2,62	-0,102
2632,804	2,62	-0,171
2634,97	2,26	-0,267
2637,142	2,42	-0,314
2639,326	2,06	-0,426
2641,504	1,82	-0,497
2643,688	1,1	-0,672
2645,866	1,12	-0,717
2648,038	0,74	-0,839
2650,215	0,38	-0,915
2652,393	0,18	-0,996
2654,559	0,42	-1,007
2656,743	0,08	-1,178
2658,921	-0,08	-1,291
2661,093	-0,24	-1,412
2663,271	-0,34	-1,493
2665,461	-0,6	-1,678
2667,632	-0,7	-1,725
2669,804	-0,68	-1,781
2671,976	-0,8	-1,844
2674,148	-0,96	-1,948
2676,326	-1,12	-2,035
2678,492	-1,12	-2,067
2680,67	-1,34	-2,208
2682,842	-1,3	-2,285
2685,019	-1,46	-2,358
2687,191	-1,7	-2,467
2689,363	-1,66	-2,514
2691,541	-1,92	-2,644
2693,725	-2,44	-2,791
2695,903	-2,4	-2,852
2698,075	-2,56	-2,877
2700,259	-2,66	-3,047
2702,43	-3,16	-3,072
2704,614	-3,22	-3,21
2706,786	-3,92	-3,262
2708,958	-3,82	-3,288
2711,136	-4,12	-3,33
2713,302	-4,16	-3,376
2715,492	-4,46	-3,401
2717,67	-5,12	-3,429
2719,841	-5,24	-3,45
2722,013	-5,5	-3,466
2724,191	-5,46	-3,471
2726,357	-5,56	-3,473
2728,535	-5,64	-3,481
2730,701	-5,62	-3,484
2732,879	-5,72	-3,49
2735,057	-5,78	-3,494
2737,228	-5,78	-3,494
2739,412	-5,78	-3,496
2741,584	-5,78	-3,496
2743,762	-5,8	-3,496
2745,94	-5,78	-3,497
2748,124	-5,78	-3,498
2750,29	-5,78	-3,498
2752,474	-5,78	-3,498
2754,639	-5,78	-3,499
2756,817	-5,76	-3,499
2758,989	-5,76	-3,499
2761,155	-5,76	-3,499
2763,339	-5,74	-3,5
2765,517	-5,74	-3,494
2767,683	-5,72	-3,499
2769,867	-5,72	-3,402
2772,039	-5,7	-3,265
2774,216	-5,58	-3,17
2776,394	-5,08	-3,08
2778,56	-4,32	-3
2780,738	-4,32	-2,898
2782,916	-3,8	-2,82
2785,082	-3,22	-2,757
2787,26	-2,74	-2,632
2789,431	-2,66	-2,554
2791,609	-2,32	-2,446
2793,781	-1,96	-2,363
2795,947	-2	-2,352
2798,119	-1,78	-2,3
2800,291	-1,68	-2,2
2802,463	-1,36	-2,09
2804,647	-1,14	-1,947
2806,825	-0,96	-1,864
2808,99	-0,92	-1,816
2811,162	-0,76	-1,754
2813,334	-0,62	-1,602
2815,518	-0,38	-1,512
2817,702	-0,2	-1,346
2819,874	-0,3	-1,384
2822,052	-0,16	-1,261
2824,235	-0,08	-1,186
2826,401	-0,02	-1,128
2828,585	0,16	-0,942
2830,751	0,12	-0,942
2832,935	0,3	-0,866
2835,113	0,3	-0,771
2837,279	0,34	-0,822
2839,463	0,42	-0,715
2841,628	0,48	-0,641
2843,818	0,78	-0,44
2845,996	0,88	-0,375
2848,168	0,78	-0,393
2850,346	1,02	-0,245
2852,53	1,28	-0,155
2854,702	1,44	-0,136
2856,88	1,76	-0,088
2859,046	1,86	-0,071
2861,235	2,2	-0,044
2863,413	2,36	-0,026
2865,579	2,36	-0,023
2867,763	2,4	-0,017
2869,929	2,42	-0,015
2872,101	2,46	-0,012
2874,279	2,48	-0,009
2876,457	2,5	-0,006
2878,628	2,5	-0,005
2880,8	2,5	-0,004
2882,972	2,52	-0,003
2885,144	2,5	-0,003
2887,328	2,5	-0,003
2889,5	2,52	-0,002
2891,678	2,52	-0,002
2893,856	2,5	-0,001
2896,027	2,5	-0,001
2898,199	2,5	-0,001
2900,383	2,48	0
2902,549	2,5	0
2904,727	2,48	-0,108
2906,899	2,26	-0,288
2909,089	1,9	-0,494
2911,273	1,22	-0,536
2913,444	0,92	-0,674
2915,628	0,7	-0,796
2917,806	0,54	-0,835
2919,978	0,26	-1,025
2922,156	-0,12	-1,188
2924,328	-0,06	-1,318
2926,5	-0,42	-1,502
2928,672	-0,46	-1,596
2930,843	-0,4	-1,612
2933,033	-0,52	-1,682
2935,199	-0,5	-1,706
2937,371	-0,68	-1,847
2939,555	-0,74	-1,974
2941,727	-0,84	-2,076
2943,905	-1,1	-2,236
2946,083	-1,2	-2,321
2948,26	-1,28	-2,398
2950,438	-1,44	-2,48
2952,61	-1,62	-2,522
2954,788	-1,92	-2,672
2956,978	-2,12	-2,802
2959,15	-2,28	-2,844
2961,34	-2,6	-3,017
2963,518	-2,96	-3,142
2965,683	-3,12	-3,22
2967,855	-3,8	-3,336
2970,027	-4,28	-3,383
2972,199	-4,36	-3,413
2974,377	-4,68	-3,436
2976,543	-4,6	-3,435
2978,727	-4,94	-3,45
2980,905	-4,86	-3,456
2983,07	-5	-3,458
2985,242	-4,84	-3,454
2987,426	-5,14	-3,47
2989,592	-5,12	-3,471
2991,764	-5,12	-3,476
2993,936	-5,24	-3,485
2996,114	-5,3	-3,489
2998,28	-5,3	-3,492
3000,457	-5,34	-3,494
3002,641	-5,32	-3,497
3004,813	-5,34	-3,498
3006,985	-5,34	-3,498
3009,163	-5,34	-3,498
3011,335	-5,34	-3,499
3013,519	-5,32	-3,499
3015,697	-5,32	-3,5
3017,868	-5,3	-3,483
3020,052	-5,3	-3,439
3022,218	-5,3	-3,414
3024,396	-5,3	-3,288
3026,568	-5,3	-3,322
3028,74	-5,3	-3,334
3030,912	-5,28	-3,304
3033,084	-5	-3,248
3035,255	-4,94	-3,18
3037,421	-5,28	-3,163
3039,599	-3,86	-2,919
3041,777	-2,98	-2,728
3043,955	-2,58	-2,603
3046,127	-2,06	-2,466
3048,293	-2,2	-2,493
3050,471	-2,3	-2,433
3052,654	-1,82	-2,25
3054,826	-1,48	-2,13
3057,01	-1,26	-1,998
3059,194	-0,86	-1,758
3061,36	-0,74	-1,64
3063,544	-0,34	-1,428
3065,71	-0,34	-1,371
3067,888	-0,22	-1,298
3070,065	-0,1	-1,216
3072,231	-0,1	-1,185
3074,409	-0,04	-1,145
3076,581	0,08	-1,062
3078,759	0,02	-1,018
3080,931	0,08	-0,993
3083,097	0,06	-1,004
3085,275	0,12	-0,964
3087,465	0,4	-0,738
3089,63	0,52	-0,583
3091,814	0,58	-0,508
3093,98	0,66	-0,518
3096,158	0,64	-0,437
3098,336	0,84	-0,303
3100,508	1,06	-0,209
3102,686	1,48	-0,108
3104,869	1,76	-0,068
3107,041	1,9	-0,061
3109,213	2	-0,042
3111,385	2,04	-0,042
3113,569	2,24	-0,021
3115,735	2,24	-0,018
3117,919	2,34	-0,011
3120,097	2,34	-0,007
3122,262	2,38	-0,006
3124,446	2,38	-0,004
3126,618	2,38	-0,003
3128,796	2,38	-0,002
3130,974	2,38	-0,002
3133,14	2,38	-0,002
3135,324	2,38	-0,001
3137,502	2,38	-0,001
3139,673	2,36	0
3141,851	2,38	-0,14
3144,023	1,96	-0,259
3146,201	1,78	-0,394
3148,379	1,18	-0,561
3150,545	0,66	-0,769
3152,723	0,12	-0,99
3154,895	0,12	-1,136
3157,079	-0,1	-1,38
3159,256	-0,38	-1,644
3161,428	-0,54	-1,797
3163,612	-0,72	-2,014
3165,778	-0,96	-2,186
3167,956	-1,02	-2,156
3170,128	-0,98	-2,249
3172,3	-1,22	-2,338
3174,477	-1,34	-2,419
3176,649	-1,52	-2,577
3178,821	-1,72	-2,645
3180,993	-1,76	-2,733
3183,159	-2,26	-2,898
3185,343	-2,72	-3,102
3187,515	-2,98	-3,152
3189,687	-3,48	-3,336
3191,871	-4,04	-3,408
3194,036	-4,5	-3,432
3196,22	-4,8	-3,461
3198,386	-4,82	-3,467
3200,564	-4,82	-3,475
3202,736	-5,04	-3,48
3204,908	-5,02	-3,482
3207,086	-5,1	-3,489
3209,257	-5,12	-3,492
3211,441	-5,14	-3,494
3213,619	-5,16	-3,496
3215,785	-5,16	-3,497
3217,963	-5,16	-3,498
3220,129	-5,16	-3,499
3222,307	-5,14	-3,499
3224,491	-5,14	-3,499
3226,657	-5,14	-3,499
3228,84	-5,14	-3,499
3231,006	-5,14	-3,499
3233,19	-5,14	-3,479
3235,362	-5,14	-3,475
3237,528	-5,12	-3,466
3239,706	-5,12	-3,401
3240,738	2,34	0