File: ensaios_Ciclicos/_newS/_3G50/entrada/_1.txt
Time (s)	Load (N)	Displacement (mm)
0	-0,1	-0,026
2,139	0,78	-0,086
4,251	1,06	-0,142
6,363	1,22	-0,08
8,481	1,36	-0,019
10,593	1,5	0
12,705	1,58	-0,001
14,817	1,7	-0,001
16,929	1,76	-0,001
19,041	1,82	-0,001
21,176	1,9	0
23,294	1,92	0
25,406	1,98	0
27,524	2,02	0
29,636	2,1	-0,001
31,748	2,14	-0,001
33,86	2,18	-0,001
35,972	2,22	-0,001
38,084	2,26	-0,001
40,201	2,3	-0,001
42,313	2,34	-0,001
44,431	2,38	-0,002
46,549	2,4	-0,001
48,667	2,44	-0,002
50,788	2,46	-0,001
52,903	2,48	-0,001
55,021	2,52	-0,001
57,144	2,54	-0,001
59,268	2,54	-0,001
61,386	2,6	-0,001
63,498	2,6	-0,001
65,616	2,6	0
67,728	2,64	0
69,84	2,66	0
71,964	2,7	-0,001
74,081	2,72	-0,001
76,205	2,74	0
78,317	2,74	0
80,435	2,76	0
82,547	2,78	0
84,659	2,8	0
86,777	2,8	-0,009
88,895	2,84	-0,016
91,012	2,86	-0,016
93,124	2,88	-0,015
95,242	2,88	-0,022
97,36	2,88	-0,11
99,478	2,9	-0,092
101,59	2,92	-0,074
103,708	2,94	0
105,82	2,96	0
107,931	3	-0,001
110,043	3,02	-0,001
112,161	3,04	-0,001
114,273	3,06	-0,002
116,403	3,08	-0,002
118,515	3,1	-0,002
120,633	3,14	-0,003
122,751	3,14	-0,004
124,868	3,16	-0,004
126,986	3,18	-0,004
129,098	3,18	-0,004
131,216	3,22	-0,006
133,328	3,22	-0,008
135,446	3,22	-0,009
137,564	3,22	-0,009
139,688	3,24	-0,007
141,805	3,24	-0,01
143,917	3,26	-0,009
146,035	3,28	-0,01
148,147	3,22	-0,016
150,259	3,12	-0,032
152,377	2,98	-0,042
154,489	2,32	-0,093
156,607	2,16	-0,099
158,719	2,1	-0,137
160,836	1,92	-0,134
162,954	1,72	-0,191
165,078	1,3	-0,223
167,202	0,86	-0,326
169,32	-0,08	-0,496
171,432	-0,96	-0,676
173,556	-1,06	-0,732
175,68	-0,8	-0,712
177,798	-1,26	-0,771
179,921	-1,46	-0,826
182,033	-2	-0,948
184,151	-2	-1,005
186,263	-2,86	-1,069
188,381	-2,62	-1,08
190,493	-3,96	-1,2
192,611	-3,84	-1,361
194,728	-4,58	-1,472
196,849	-5,24	-1,637
198,97	-5,84	-1,682
201,082	-8,32	-1,755
203,2	-7,04	-1,834
205,318	-6,98	-1,878
207,43	-7,32	-1,924
209,548	-7,2	-1,951
211,665	-6,82	-1,925
213,777	-6,98	-1,855
215,901	-6,48	-1,799
218,013	-6,66	-1,835
220,131	-7,82	-1,765
222,243	-6,48	-1,753
224,355	-6,84	-1,795
226,485	-5,28	-1,655
228,609	-4,68	-1,572
230,726	-4,16	-1,455
232,844	-3,68	-1,419
234,956	-4,22	-1,417
237,074	-3,72	-1,374
239,198	-3,94	-1,366
241,31	-2,98	-1,259
243,434	-3,18	-1,139
245,546	-2,5	-1,186
247,67	-2,54	-1,124
249,781	-2,88	-1,176
251,899	-2,62	-1,096
254,011	-2	-1,041
256,129	-1,32	-0,93
258,247	-1,02	-0,834
260,371	-0,44	-0,72
262,495	-0,24	-0,611
264,612	0,02	-0,603
266,724	0,34	-0,536
268,842	0,4	-0,568
270,966	0,14	-0,544
273,078	0	-0,564
275,208	0,62	-0,493
277,326	0,1	-0,573
279,444	0,18	-0,613
281,556	-0,32	-0,635
283,679	-0,08	-0,605
285,791	-0,4	-0,668
287,909	-0,08	-0,648
290,027	-0,4	-0,68
292,145	0,04	-0,627
294,269	0,08	-0,554
296,387	0,6	-0,49
298,504	0,74	-0,428
300,622	0,62	-0,503
302,74	0,58	-0,492
304,852	0,08	-0,586
306,97	-0,02	-0,656
309,082	-0,14	-0,686
311,2	0,1	-0,67
313,318	-0,14	-0,608
315,442	0,28	-0,62
317,565	-0,02	-0,634
319,677	-0,14	-0,642
321,795	-0,04	-0,595
323,907	0,22	-0,604
326,027	0,38	-0,54
328,143	0,4	-0,584
330,261	-0,02	-0,654
332,379	-0,02	-0,706
334,49	-0,56	-0,726
336,614	-0,9	-0,712
338,732	-0,44	-0,691
340,844	-0,2	-0,716
342,962	-0,28	-0,701
345,08	0,46	-0,574
347,198	0,6	-0,58
349,316	0,16	-0,564
351,439	1,36	-0,39
353,551	0,72	-0,444
355,675	0,22	-0,403
357,799	1,52	-0,33
359,911	1,74	-0,26
362,035	1,66	-0,232
364,159	2,42	-0,155
366,283	2,36	-0,172
368,4	2,36	-0,196
370,524	2,18	-0,179
372,648	2,74	-0,125
374,766	2,58	-0,121
376,884	2,92	-0,108
379,014	3,04	-0,074
381,138	3,58	-0,058
383,262	3,68	-0,049
385,386	3,6	-0,044
387,521	3,84	-0,03
389,645	3,8	-0,021
391,769	4	-0,012
393,887	4,02	-0,01
396,011	4,02	-0,007
398,129	4,06	-0,006
400,259	4,04	-0,003
402,389	4,04	-0,002
404,518	4,02	-0,001
406,636	4,02	-0,001
408,754	4,02	-0,001
410,878	4,02	-0,001
413,002	4,04	-0,001
415,132	4,02	-0,001
417,25	4,02	-0,092
419,374	4	-0,141
421,497	3,66	-0,249
423,615	3,52	-0,32
425,733	2,96	-0,458
427,869	2,42	-0,66
429,993	1,1	-0,802
432,117	0,96	-0,874
434,235	0,24	-0,948
436,353	0,28	-1,006
438,476	-0,48	-1,121
440,606	-0,96	-1,239
442,724	-1,3	-1,345
444,86	-2,12	-1,557
446,984	-2,62	-1,645
449,108	-3,24	-1,776
451,244	-3,9	-1,93
453,362	-4,66	-2,035
455,498	-6,06	-2,268
457,621	-6,56	-2,421
459,751	-6,94	-2,602
461,875	-8,84	-2,764
463,999	-9,68	-2,903
466,123	-9,66	-2,942
468,247	-10,68	-3,076
470,365	-10,96	-3,076
472,495	-12,06	-3,233
474,612	-12,48	-3,315
476,742	-13,84	-3,391
478,866	-14,2	-3,43
480,99	-15,74	-3,461
483,12	-15,88	-3,479
485,25	-15,94	-3,488
487,38	-16,08	-3,49
489,492	-16,08	-3,493
491,615	-16,12	-3,495
493,739	-16,12	-3,496
495,863	-16,12	-3,498
497,987	-16,1	-3,498
500,117	-16,08	-3,499
502,241	-16,06	-3,499
504,365	-16,04	-3,5
506,495	-16	-3,348
508,624	-15,98	-3,217
510,748	-15,1	-3,106
512,878	-14,8	-3,002
515,008	-12,78	-2,868
517,132	-11,48	-2,715
519,262	-11,26	-2,598
521,386	-9,66	-2,505
523,516	-9,28	-2,369
525,65	-8,2	-2,18
527,775	-6,9	-2,028
529,905	-5,66	-1,914
532,023	-6,08	-1,856
534,147	-4,64	-1,736
536,277	-3,94	-1,513
538,401	-3,14	-1,376
540,525	-2,44	-1,352
542,643	-3,1	-1,353
544,755	-2,96	-1,294
546,866	-2,46	-1,285
548,978	-2,52	-1,274
551,108	-2,88	-1,257
553,232	-1,78	-1,153
555,356	-1,56	-1,039
557,474	-1,1	-0,975
559,598	-0,68	-0,861
561,721	-0,48	-0,782
563,857	0,86	-0,523
565,987	1,72	-0,34
568,117	2,38	-0,202
570,241	2,74	-0,13
572,365	3,66	-0,084
574,489	3,66	-0,068
576,613	3,84	-0,056
578,731	3,82	-0,055
580,86	3,92	-0,043
582,996	4,2	-0,024
585,108	4,28	-0,015
587,238	4,32	-0,009
589,356	4,32	-0,008
591,48	4,34	-0,006
593,598	4,34	-0,004
595,722	4,34	-0,002
597,845	4,32	-0,001
599,963	4,3	-0,001
602,099	4,3	-0,023
604,241	3,9	-0,244
606,365	3,82	-0,344
608,489	3,42	-0,476
610,619	2,78	-0,593
612,743	2,14	-0,666
614,866	2,2	-0,674
616,99	1,12	-0,852
619,114	1,08	-0,919
621,226	0,56	-0,952
623,344	-0,16	-1,091
625,48	-0,66	-1,202
627,61	-0,76	-1,256
629,74	-0,86	-1,272
631,869	-1,5	-1,455
633,993	-2,18	-1,597
636,123	-2,54	-1,666
638,259	-3,04	-1,765
640,389	-3,3	-1,88
642,519	-3,98	-1,928
644,655	-3,96	-1,982
646,791	-4,58	-2,129
648,921	-5,48	-2,205
651,044	-4,96	-2,191
653,168	-5	-2,189
655,292	-4,22	-2,102
657,41	-4,3	-2,069
659,534	-3,86	-2,036
661,658	-4,7	-2,081
663,782	-4,66	-2,078
665,905	-4,22	-2,056
668,023	-4,54	-2,072
670,147	-4,28	-2,087
672,271	-4,9	-2,193
674,395	-5,06	-2,286
676,513	-5,2	-2,266
678,643	-5,32	-2,277
680,779	-6	-2,336
682,909	-6,92	-2,527
685,038	-7,76	-2,646
687,156	-7,8	-2,682
689,292	-8,26	-2,794
691,416	-9,2	-2,828
693,546	-9,08	-2,904
695,67	-8,96	-2,87
697,806	-9,08	-2,907
699,93	-8,92	-2,973
702,053	-8,96	-2,954
704,183	-9,96	-3,025
706,319	-10,88	-3,119
708,443	-10,4	-3,106
710,567	-9,86	-3,105
712,691	-10,36	-3,139
714,821	-11,58	-3,214
716,939	-10,8	-3,152
719,068	-10,88	-3,178
721,192	-10,86	-3,227
723,316	-12,06	-3,275
725,446	-11,6	-3,298
727,576	-12,48	-3,311
729,694	-12,34	-3,32
731,824	-12,58	-3,343
733,954	-12,38	-3,37
736,084	-12,98	-3,37
738,207	-11,98	-3,348
740,331	-12,1	-3,331
742,455	-12,76	-3,318
744,591	-12,08	-3,338
746,715	-11,82	-3,364
748,839	-12,42	-3,34
750,963	-13,2	-3,381
753,086	-13,08	-3,404
755,204	-13,62	-3,409
757,334	-14,08	-3,41
759,458	-13,52	-3,427
761,582	-13,74	-3,43
763,718	-14,34	-3,437
765,836	-14,24	-3,423
767,96	-14,16	-3,434
770,09	-14,16	-3,438
772,213	-14,56	-3,449
774,337	-14,62	-3,45
776,455	-14,52	-3,454
778,585	-14,88	-3,469
780,709	-14,82	-3,465
782,839	-15	-3,473
784,963	-14,94	-3,469
787,087	-14,8	-3,468
789,21	-15,12	-3,474
791,334	-15,14	-3,476
793,458	-15,12	-3,479
795,588	-15,1	-3,48
797,712	-15,04	-3,477
799,842	-15,06	-3,478
801,966	-14,98	-3,481
804,102	-15,16	-3,483
806,237	-15,3	-3,488
808,361	-15,26	-3,489
810,491	-15,32	-3,489
812,609	-15,22	-3,486
814,744	-15,26	-3,49
816,875	-15,3	-3,491
818,993	-15,3	-3,491
821,111	-15,24	-3,49
823,241	-15,2	-3,491
825,376	-15,32	-3,494
827,506	-15,32	-3,495
829,63	-15,32	-3,496
831,76	-15,32	-3,497
833,878	-15,3	-3,498
836,026	-15,28	-3,499
838,144	-15,28	-3,499
840,268	-15,26	-3,499
842,391	-15,24	-3,499
844,533	-15,24	-3,499
846,663	-15,2	-3,306
848,781	-15,18	-3,274
850,911	-14,54	-3,164
853,035	-14,74	-3,136
855,159	-14,96	-3,089
857,295	-12,84	-2,956
859,418	-12,7	-2,879
861,536	-12,52	-2,904
863,66	-12,32	-2,822
865,784	-10,48	-2,702
867,92	-10,74	-2,624
870,056	-9,26	-2,486
872,186	-8,3	-2,42
874,316	-8,42	-2,351
876,439	-8,64	-2,29
878,563	-7,84	-2,312
880,699	-7,12	-2,159
882,835	-6,78	-2,085
884,965	-5,72	-2
887,089	-5,32	-1,948
889,212	-5,28	-1,881
891,331	-4,68	-1,823
893,461	-5,28	-1,733
895,584	-3,44	-1,617
897,714	-3,3	-1,559
899,844	-2,24	-1,35
901,962	-1,54	-1,244
904,092	-1,66	-1,162
906,216	-1,22	-1,08
908,34	-0,48	-0,916
910,464	-0,08	-0,856
912,587	0,22	-0,789
914,705	0	-0,81
916,841	0,66	-0,705
918,965	0,94	-0,643
921,089	0,66	-0,65
923,219	1,02	-0,544
925,343	1,44	-0,452
927,467	1,56	-0,479
929,602	1,72	-0,411
931,726	1,82	-0,413
933,856	2,1	-0,301
935,988	2,5	-0,232
938,104	2,62	-0,237
940,228	2,82	-0,17
942,346	3,18	-0,152
944,476	3,38	-0,12
946,605	3,54	-0,107
948,723	3,78	-0,096
950,853	3,74	-0,09
952,977	3,74	-0,075
955,119	4,38	-0,045
957,237	4,16	-0,046
959,373	4,42	-0,034
961,497	4,36	-0,031
963,621	4,54	-0,026
965,744	4,52	-0,021
967,868	4,52	-0,023
969,998	4,64	-0,016
972,128	4,64	-0,01
974,252	4,66	-0,009
976,37	4,66	-0,009
978,506	4,66	-0,006
980,63	4,68	-0,005
982,759	4,68	-0,003
984,883	4,68	-0,003
987,019	4,66	-0,002
989,143	4,66	-0,002
991,273	4,66	-0,002
993,409	4,68	-0,001
995,545	4,66	-0,001
997,669	4,66	-0,001
999,804	4,66	0
1001,922	4,64	0
1004,064	4,64	0
1006,182	4,64	0
1008,312	4,62	-0,016
1010,436	4,62	-0,079
1012,578	4,24	-0,231
1014,702	4,42	-0,283
1016,82	4,2	-0,371
1018,961	3,74	-0,532
1021,085	3,02	-0,587
1023,209	3,04	-0,606
1025,333	2,82	-0,711
1027,463	1,98	-0,792
1029,593	1,7	-0,904
1031,723	0,72	-1,038
1033,852	0,96	-1,076
1035,97	0,92	-1,028
1038,094	0,7	-1,047
1040,224	0,26	-1,156
1042,36	-0,2	-1,197
1044,496	-0,64	-1,322
1046,62	-0,6	-1,29
1048,762	-1,06	-1,441
1050,886	-1,26	-1,475
1053,015	-1,58	-1,557
1055,145	-1,24	-1,484
1057,275	-1,12	-1,484
1059,399	-1,62	-1,594
1061,523	-1,22	-1,587
1063,641	-1,3	-1,554
1065,759	-1,22	-1,474
1067,894	-1,66	-1,536
1070,018	-1,28	-1,514
1072,142	-1	-1,442
1074,272	-1,46	-1,512
1076,402	-1,5	-1,556
1078,526	-1,46	-1,612
1080,644	-1,64	-1,617
1082,774	-2,04	-1,645
1084,91	-2,04	-1,771
1087,039	-3,12	-1,916
1089,175	-3,82	-2,096
1091,311	-4,64	-2,213
1093,435	-4,52	-2,242
1095,559	-5,14	-2,356
1097,689	-5,06	-2,448
1099,819	-6,38	-2,576
1101,943	-6,66	-2,612
1104,066	-6,92	-2,722
1106,196	-8,04	-2,823
1108,326	-8,52	-2,985
1110,45	-9,48	-3,023
1112,562	-8,32	-2,983
1114,692	-8,96	-2,974
1116,828	-8,86	-3,106
1118,952	-8,82	-3,108
1121,07	-10,22	-3,146
1123,187	-9,68	-3,124
1125,311	-10,44	-3,206
1127,441	-10,44	-3,222
1129,565	-10,26	-3,256
1131,689	-11,76	-3,318
1133,819	-11,28	-3,346
1135,943	-12,24	-3,385
1138,073	-13,44	-3,421
1140,202	-12,94	-3,424
1142,332	-13,74	-3,442
1144,45	-13,92	-3,447
1146,58	-13,58	-3,448
1148,71	-14,04	-3,457
1150,828	-14,1	-3,458
1152,958	-14	-3,468
1155,082	-13,98	-3,464
1157,217	-14,12	-3,476
1159,347	-14,36	-3,484
1161,471	-14,4	-3,486
1163,595	-14,38	-3,487
1165,719	-14,36	-3,486
1167,843	-14,14	-3,482
1169,967	-14,28	-3,481
1172,103	-14,34	-3,488
1174,22	-14,32	-3,489
1176,35	-14,38	-3,492
1178,474	-14,38	-3,495
1180,604	-14,38	-3,495
1182,728	-14,36	-3,495
1184,852	-14,34	-3,495
1186,982	-14,28	-3,496
1189,112	-14,26	-3,496
1191,236	-14,24	-3,496
1193,359	-14,16	-3,496
1195,483	-14,1	-3,496
1197,601	-14,06	-3,496
1199,737	-14,04	-3,497
1201,867	-13,98	-3,498
1203,997	-13,94	-3,498
1206,127	-13,82	-3,498
1208,257	-13,68	-3,498
1210,374	-13,66	-3,498
1212,516	-13,6	-3,498
1214,64	-13,56	-3,498
1216,77	-13,48	-3,499
1218,9	-13,42	-3,498
1221,03	-13,32	-3,499
1223,16	-13,3	-3,499
1225,29	-13,24	-3,498
1227,407	-13,22	-3,498
1229,543	-13,16	-3,499
1231,685	-13,14	-3,499
1233,815	-13,12	-3,499
1235,933	-13,1	-3,499
1238,069	-13,04	-3,5
1240,211	-13	-3,5
1242,347	-13	-3,5
1244,482	-12,94	-3,499
1246,6	-12,94	-3,5
1248,742	-12,86	-3,5
1250,866	-12,86	-3,5
1253,002	-12,84	-3,499
1255,132	-12,8	-3,5
1257,262	-12,78	-3,45
1259,404	-12,68	-3,369
1261,533	-12,66	-3,332
1263,651	-12,64	-3,399
1265,787	-12,6	-3,299
1267,923	-11,64	-3,136
1270,047	-11,5	-3,057
1272,183	-9,78	-2,899
1274,307	-9,78	-2,805
1276,437	-9,26	-2,734
1278,566	-7,66	-2,595
1280,702	-7,32	-2,49
1282,826	-6,28	-2,322
1284,962	-4,88	-2,216
1287,098	-4,06	-2,046
1289,222	-3,5	-1,96
1291,358	-2,98	-1,827
1293,488	-2,3	-1,656
1295,617	-1,48	-1,538
1297,747	-1,62	-1,472
1299,865	-1,16	-1,393
1302,001	-0,84	-1,288
1304,137	0,14	-1,049
1306,267	0,54	-0,908
1308,403	1,1	-0,766
1310,527	1,18	-0,679
1312,669	1,78	-0,501
1314,792	2,26	-0,365
1316,916	2,88	-0,232
1319,04	3,4	-0,152
1321,17	3,92	-0,084
1323,294	4,06	-0,06
1325,424	4,5	-0,032
1327,542	4,64	-0,019
1329,672	4,64	-0,014
1331,807	4,7	-0,009
1333,943	4,7	-0,005
1336,061	4,72	-0,005
1338,191	4,72	-0,003
1340,321	4,7	-0,002
1342,439	4,68	-0,001
1344,569	4,68	0
1346,693	4,68	0
1348,816	4,66	0
1350,952	4,66	-0,148
1353,07	4,66	-0,27
1355,2	4,36	-0,32
1357,336	3,46	-0,527
1359,454	3,42	-0,49
1361,572	3,96	-0,543
1363,702	2,78	-0,63
1365,826	2,76	-0,664
1367,955	2	-0,798
1370,079	1,58	-0,902
1372,203	1,26	-0,964
1374,333	0,82	-1,066
1376,469	0,22	-1,236
1378,587	-0,16	-1,326
1380,717	-0,8	-1,422
1382,841	-0,9	-1,515
1384,97	-1,4	-1,677
1387,094	-1,92	-1,753
1389,218	-2,32	-1,842
1391,342	-2,28	-1,919
1393,46	-2,54	-1,957
1395,578	-2,88	-2,025
1397,708	-2,88	-2,132
1399,844	-3,74	-2,297
1401,974	-4,62	-2,446
1404,097	-5,04	-2,55
1406,233	-5,74	-2,677
1408,363	-5,5	-2,726
1410,487	-5,28	-2,767
1412,605	-5,68	-2,836
1414,729	-6,2	-2,912
1416,865	-7,16	-3,04
1418,988	-7,14	-3,038
1421,118	-7,92	-3,176
1423,242	-8,28	-3,23
1425,378	-9,62	-3,341
1427,508	-9,92	-3,4
1429,632	-10,08	-3,431
1431,75	-11,1	-3,45
1433,874	-11,46	-3,466
1436,004	-11,62	-3,479
1438,127	-11,68	-3,484
1440,251	-11,72	-3,49
1442,369	-11,78	-3,492
1444,487	-11,74	-3,492
1446,611	-11,78	-3,494
1448,747	-11,78	-3,496
1450,883	-11,76	-3,498
1453,007	-11,72	-3,498
1455,13	-11,7	-3,499
1457,254	-11,7	-3,499
1459,372	-11,66	-3,499
1461,514	-11,64	-3,5
1463,638	-11,64	-3,482
1465,762	-11,62	-3,338
1467,892	-11,56	-3,248
1470,028	-10,06	-3,033
1472,157	-10,16	-2,925
1474,287	-8,38	-2,818
1476,417	-7,64	-2,69
1478,553	-6,06	-2,488
1480,683	-5,72	-2,31
1482,813	-4,46	-2,199
1484,943	-4,26	-2,129
1487,073	-3,46	-2,053
1489,202	-3,6	-1,981
1491,326	-2,76	-1,91
1493,456	-2,62	-1,851
1495,58	-2,48	-1,746
1497,71	-1,56	-1,555
1499,84	-1,4	-1,526
1501,964	-1,04	-1,464
1504,094	-0,74	-1,341
1506,217	-0,32	-1,221
1508,359	-0,12	-1,112
1510,483	0,08	-1,141
1512,607	0,32	-1,069
1514,725	0,28	-1,038
1516,855	0,58	-0,92
1518,985	0,96	-0,796
1521,115	1,08	-0,736
1523,232	1,52	-0,615
1525,356	1,52	-0,611
1527,48	1,64	-0,497
1529,618	2,06	-0,402
1531,746	2,48	-0,348
1533,876	2,88	-0,213
1536,012	3	-0,17
1538,13	3,38	-0,132
1540,254	3,72	-0,094
1542,383	4,18	-0,068
1544,513	4,16	-0,05
1546,637	4,26	-0,043
1548,761	4,44	-0,037
1550,891	4,42	-0,03
1553,015	4,46	-0,026
1555,157	4,56	-0,016
1557,287	4,6	-0,012
1559,416	4,6	-0,01
1561,534	4,62	-0,01
1563,67	4,62	-0,007
1565,8	4,62	-0,004
1567,936	4,62	-0,002
1570,054	4,62	-0,002
1572,184	4,62	-0,002
1574,308	4,62	-0,002
1576,437	4,62	-0,002
1578,555	4,62	-0,002
1580,685	4,62	-0,001
1582,821	4,6	-0,001
1584,939	4,6	-0,001
1587,057	4,6	-0,001
1589,187	4,6	0
1591,317	4,58	0
1593,441	4,56	0
1595,576	4,58	-0,042
1597,706	4,56	-0,168
1599,83	4,58	-0,254
1601,954	4,54	-0,268
1604,09	3,92	-0,445
1606,214	3,96	-0,49
1608,332	3,32	-0,548
1610,456	3,62	-0,578
1612,579	2,54	-0,661
1614,703	2,56	-0,711
1616,839	2,16	-0,717
1618,963	1,76	-0,794
1621,099	1,12	-0,99
1623,229	0,26	-1,198
1625,347	0,5	-1,129
1627,477	0,48	-1,152
1629,612	0,32	-1,257
1631,738	-0,4	-1,34
1633,854	-0,42	-1,408
1635,984	-0,78	-1,542
1638,108	-1,06	-1,666
1640,232	-1,26	-1,682
1642,35	-1,1	-1,681
1644,486	-1,72	-1,839
1646,609	-2,08	-1,981
1648,745	-2,68	-2,124
1650,881	-3	-2,251
1652,999	-3,14	-2,256
1655,147	-3,68	-2,432
1657,277	-4,02	-2,528
1659,413	-4,38	-2,67
1661,525	-4,64	-2,668
1663,66	-5,3	-2,789
1665,784	-5,7	-2,962
1667,92	-6,6	-3,099
1670,038	-7	-3,146
1672,168	-7,18	-3,211
1674,292	-7,18	-3,281
1676,416	-7,98	-3,307
1678,54	-7,62	-3,267
1680,658	-8,04	-3,295
1682,787	-7,08	-3,251
1684,911	-6,84	-3,214
1687,053	-8,36	-3,328
1689,183	-8,24	-3,336
1691,313	-9,2	-3,412
1693,449	-9,32	-3,433
1695,579	-9,74	-3,442
1697,703	-9,76	-3,443
1699,838	-9,96	-3,46
1701,968	-10,06	-3,47
1704,098	-10,14	-3,469
1706,222	-10,2	-3,473
1708,358	-10,3	-3,485
1710,488	-10,3	-3,487
1712,624	-10,36	-3,49
1714,748	-10,34	-3,49
1716,877	-10,36	-3,492
1719,007	-10,36	-3,493
1721,137	-10,36	-3,494
1723,255	-10,36	-3,494
1725,385	-10,36	-3,496
1727,527	-10,34	-3,497
1729,645	-10,32	-3,497
1731,787	-10,3	-3,498
1733,923	-10,3	-3,498
1736,04	-10,28	-3,498
1738,164	-10,28	-3,498
1740,3	-10,26	-3,499
1742,43	-10,26	-3,499
1744,548	-10,26	-3,499
1746,678	-10,22	-3,499
1748,814	-10,18	-3,5
1750,938	-10,18	-3,491
1753,061	-10,18	-3,497
1755,191	-10,16	-3,5
1757,327	-10,16	-3,482
1759,445	-10,16	-3,494
1761,587	-10,14	-3,31
1763,717	-10,12	-3,274
1765,853	-9,78	-3,197
1767,971	-9,58	-3,166
1770,112	-8,82	-3,045
1772,254	-7,22	-2,856
1774,372	-7,6	-2,861
1776,532	-5,86	-2,636
1778,662	-6,1	-2,629
1780,792	-5,1	-2,528
1782,922	-5,22	-2,415
1785,064	-4,52	-2,38
1787,205	-3,32	-2,244
1789,329	-3,6	-2,16
1791,459	-3,62	-2,091
1793,589	-2,36	-1,968
1795,725	-1,74	-1,84
1797,843	-1,76	-1,767
1799,973	-1,44	-1,723
1802,103	-1,54	-1,648
1804,226	-1,28	-1,666
1806,356	-1,08	-1,57
1808,492	-0,56	-1,438
1810,616	-0,42	-1,38
1812,746	-0,52	-1,405
1814,87	-0,38	-1,35
1816,994	-0,22	-1,274
1819,112	-0,24	-1,304
1821,236	-0,52	-1,383
1823,371	-0,36	-1,355
1825,501	-0,32	-1,302
1827,625	0,04	-1,256
1829,761	-0,16	-1,188
1831,885	0,06	-1,18
1834,015	0,22	-1,073
1836,145	0,6	-0,98
1838,268	0,52	-1,004
1840,392	0,5	-0,985
1842,522	0,88	-0,899
1844,652	0,68	-0,929
1846,776	0,7	-0,9
1848,912	0,78	-0,9
1851,03	0,64	-0,965
1853,166	0,82	-0,918
1855,284	0,76	-0,95
1857,407	0,98	-0,841
1859,543	1,28	-0,751
1861,667	1,24	-0,748
1863,791	1,34	-0,691
1865,927	1,5	-0,655
1868,057	1,64	-0,554
1870,181	2,18	-0,433
1872,311	2,24	-0,368
1874,44	2,72	-0,268
1876,558	2,28	-0,232
1878,694	2,88	-0,187
1880,818	2,36	-0,302
1882,948	2,06	-0,449
1885,078	1,96	-0,438
1887,202	2,08	-0,403
1889,332	2,1	-0,344
1891,449	2,08	-0,364
1893,579	2,42	-0,304
1895,721	2,84	-0,196
1897,839	3,1	-0,158
1899,969	3,16	-0,131
1902,093	3,26	-0,11
1904,223	3,54	-0,096
1906,347	3,84	-0,067
1908,476	3,96	-0,048
1910,594	3,9	-0,055
1912,718	4,24	-0,036
1914,842	4,18	-0,039
1916,96	4,18	-0,038
1919,09	4,22	-0,032
1921,214	4,22	-0,03
1923,344	4,26	-0,03
1925,468	4,3	-0,025
1927,603	4,38	-0,016
1929,733	4,4	-0,013
1931,851	4,42	-0,011
1933,993	4,44	-0,009
1936,123	4,44	-0,009
1938,253	4,46	-0,004
1940,371	4,46	-0,004
1942,507	4,46	-0,002
1944,63	4,46	-0,002
1946,754	4,44	-0,001
1948,872	4,44	-0,001
1951,002	4,44	-0,001
1953,126	4,44	-0,001
1955,256	4,42	-0,001
1957,386	4,42	-0,001
1959,516	4,4	-0,002
1961,633	4,42	-0,079
1963,757	4,4	-0,136
1965,875	4,38	-0,244
1968,017	3,84	-0,387
1970,147	3,12	-0,521
1972,277	2,62	-0,634
1974,389	2,48	-0,737
1976,525	1,5	-0,917
1978,654	0,68	-1,088
1980,772	1,06	-1,087
1982,908	0,5	-1,183
1985,026	0,32	-1,236
1987,156	-0,04	-1,316
1989,28	0,18	-1,261
1991,404	-0,1	-1,387
1993,522	-0,26	-1,412
1995,639	-0,26	-1,396
1997,769	-0,46	-1,488
1999,905	-0,82	-1,626
2002,023	-0,94	-1,667
2004,153	-1,4	-1,786
2006,271	-1,2	-1,78
2008,401	-1,74	-1,957
2010,525	-1,92	-2,034
2012,655	-2,34	-2,168
2014,778	-2,66	-2,293
2016,908	-2,48	-2,284
2019,032	-2,9	-2,34
2021,15	-2,66	-2,351
2023,28	-3,1	-2,442
2025,398	-3,24	-2,503
2027,528	-3,42	-2,576
2029,652	-3,48	-2,605
2031,782	-3,9	-2,67
2033,905	-3,96	-2,71
2036,035	-4,38	-2,765
2038,165	-4,58	-2,86
2040,289	-4,82	-2,938
2042,419	-4,72	-2,971
2044,549	-4,72	-3,021
2046,667	-5,1	-2,999
2048,797	-5,4	-3,017
2050,926	-5,34	-3,054
2053,044	-4,86	-3,032
2055,174	-5,5	-3,035
2057,304	-5,56	-3,094
2059,434	-5,6	-3,152
2061,558	-6,02	-3,162
2063,688	-5,88	-3,157
2065,806	-5,16	-3,093
2067,935	-5,5	-3,121
2070,059	-4,76	-2,97
2072,183	-4,72	-2,978
2074,307	-5,14	-2,997
2076,449	-4,94	-2,963
2078,573	-5,12	-3,025
2080,697	-5,5	-3,128
2082,833	-5,76	-3,166
2084,956	-5,48	-3,12
2087,08	-5,26	-3,091
2089,21	-5,64	-3,13
2091,34	-5,24	-3,087
2093,458	-4,92	-3,002
2095,582	-5,18	-3,08
2097,712	-5,18	-3,033
2099,83	-5,02	-2,98
2101,971	-5,4	-3,078
2104,095	-5,4	-3,093
2106,219	-5,08	-3,041
2108,349	-5,48	-3,085
2110,479	-5,16	-3,066
2112,609	-5,54	-3,097
2114,727	-5,14	-2,997
2116,851	-5,08	-2,994
2118,98	-4,76	-2,97
2121,098	-4,1	-2,894
2123,24	-4,58	-3,025
2125,358	-4,84	-3,076
2127,482	-4,86	-3,006
2129,612	-5,04	-2,996
2131,736	-4,46	-2,978
2133,854	-4,6	-2,893
2135,99	-4,78	-2,918
2138,119	-4,86	-2,998
2140,237	-4,28	-2,942
2142,361	-4,6	-2,937
2144,497	-4,82	-3,055
2146,621	-4,34	-2,951
2148,757	-4,44	-2,961
2150,881	-4,56	-3,001
2152,999	-4,42	-2,953
2155,122	-4,92	-2,999
2157,252	-4,82	-3,021
2159,37	-4,78	-2,994
2161,494	-4,98	-3,066
2163,624	-5,14	-3,046
2165,742	-5,48	-3,121
2167,878	-5,46	-3,193
2170,008	-5,96	-3,243
2172,125	-5,92	-3,225
2174,255	-6,06	-3,282
2176,385	-6,36	-3,29
2178,503	-6,3	-3,272
2180,627	-6,16	-3,266
2182,769	-6,52	-3,316
2184,893	-6,6	-3,335
2187,023	-7,34	-3,379
2189,14	-6,28	-3,368
2191,27	-7	-3,4
2193,4	-7,86	-3,413
2195,53	-7,9	-3,429
2197,648	-7,38	-3,42
2199,778	-7,98	-3,443
2201,908	-8,18	-3,447
2204,032	-8,1	-3,445
2206,156	-7,84	-3,449
2208,291	-8,46	-3,47
2210,409	-8,44	-3,468
2212,539	-8,4	-3,478
2214,675	-8,52	-3,483
2216,793	-8,6	-3,484
2218,929	-8,64	-3,486
2221,059	-8,58	-3,485
2223,183	-8,62	-3,485
2225,318	-8,62	-3,488
2227,454	-8,6	-3,49
2229,572	-8,6	-3,491
2231,708	-8,62	-3,492
2233,844	-8,64	-3,493
2235,962	-8,62	-3,492
2238,098	-8,62	-3,494
2240,222	-8,62	-3,495
2242,339	-8,62	-3,495
2244,469	-8,62	-3,496
2246,593	-8,6	-3,496
2248,711	-8,6	-3,496
2250,841	-8,6	-3,496
2252,971	-8,6	-3,496
2255,095	-8,58	-3,496
2257,213	-8,58	-3,496
2259,336	-8,56	-3,496
2261,46	-8,56	-3,495
2263,59	-8,56	-3,496
2265,72	-8,56	-3,496
2267,838	-8,54	-3,496
2269,968	-8,54	-3,496
2272,104	-8,52	-3,498
2274,222	-8,5	-3,498
2276,357	-8,5	-3,498
2278,493	-8,5	-3,498
2280,617	-8,48	-3,498
2282,753	-8,46	-3,499
2284,877	-8,48	-3,499
2286,989	-8,48	-3,498
2289,113	-8,46	-3,498
2291,237	-8,44	-3,498
2293,361	-8,46	-3,498
2295,484	-8,46	-3,498
2297,614	-8,44	-3,499
2299,738	-8,4	-3,499
2301,868	-8,4	-3,499
2303,992	-8,4	-3,499
2306,11	-8,38	-3,499
2308,234	-8,36	-3,499
2310,358	-8,38	-3,5
2312,475	-8,36	-3,5
2314,605	-8,34	-3,466
2316,735	-8,3	-3,455
2318,865	-8,3	-3,294
2320,989	-8,3	-3,296
2323,119	-8,3	-3,29
2325,237	-7,76	-3,212
2327,373	-7,76	-3,132
2329,496	-7,32	-3,093
2331,614	-7,28	-3,104
2333,738	-7,38	-3,052
2335,868	-7,16	-2,95
2337,992	-5,84	-2,857
2340,128	-5,06	-2,656
2342,246	-4,92	-2,65
2344,37	-4,66	-2,578
2346,493	-3,98	-2,532
2348,611	-3,82	-2,505
2350,747	-3,32	-2,316
2352,877	-2,72	-2,234
2355,001	-2,5	-2,158
2357,125	-2,34	-2,089
2359,255	-1,88	-2,019
2361,379	-1,4	-1,835
2363,503	-1,36	-1,806
2365,632	-0,92	-1,694
2367,756	-0,7	-1,59
2369,886	-0,46	-1,445
2372,016	-0,08	-1,326
2374,134	0	-1,309
2376,264	0,08	-1,209
2378,395	0,5	-1,065
2380,518	0,46	-1,067
2382,641	0,56	-0,995
2384,759	0,86	-0,857
2386,901	1,16	-0,71
2389,019	1,32	-0,642
2391,137	1,32	-0,659
2393,267	1,64	-0,567
2395,397	1,82	-0,45
2397,515	1,8	-0,459
2399,65	2,06	-0,375
2401,78	2,22	-0,262
2403,898	2,32	-0,254
2406,022	2,48	-0,198
2408,152	3,28	-0,1
2410,27	3,46	-0,087
2412,4	3,62	-0,06
2414,53	3,9	-0,04
2416,653	3,98	-0,029
2418,783	4,04	-0,02
2420,901	4,06	-0,018
2423,037	4,12	-0,012
2425,161	4,12	-0,008
2427,285	4,16	-0,007
2429,409	4,14	-0,005
2431,533	4,16	-0,004
2433,663	4,14	-0,002
2435,792	4,14	-0,002
2437,91	4,14	-0,001
2440,04	4,12	-0,001
2442,158	4,14	-0,001
2444,288	4,12	-0,009
2446,418	4,1	-0,139
2448,536	4,1	-0,179
2450,66	4,1	-0,243
2452,777	4,1	-0,253
2454,919	3,44	-0,46
2457,049	2,72	-0,585
2459,179	2,58	-0,745
2461,297	1,84	-0,782
2463,421	1,62	-0,882
2465,539	1,46	-0,891
2467,669	0,8	-1,02
2469,792	0,58	-1,097
2471,922	0,08	-1,266
2474,052	-0,04	-1,345
2476,182	-0,46	-1,473
2478,3	-0,28	-1,478
2480,436	-0,52	-1,622
2482,566	-0,86	-1,687
2484,69	-1	-1,758
2486,813	-1,06	-1,835
2488,937	-1,02	-1,833
2491,067	-1,22	-1,908
2493,191	-1,4	-2,001
2495,309	-1,54	-2,066
2497,445	-2	-2,229
2499,587	-2,56	-2,471
2501,705	-2,64	-2,487
2503,834	-2,66	-2,552
2505,97	-3,08	-2,668
2508,094	-3,46	-2,804
2510,23	-4,04	-2,947
2512,348	-4,32	-3,011
2514,478	-4,48	-3,102
2516,614	-5,04	-3,29
2518,732	-5,74	-3,316
2520,856	-6,12	-3,367
2522,979	-5,8	-3,387
2525,103	-6,68	-3,416
2527,239	-7,18	-3,444
2529,363	-7,42	-3,464
2531,493	-7,48	-3,471
2533,623	-7,64	-3,479
2535,753	-7,68	-3,486
2537,871	-7,74	-3,49
2539,994	-7,78	-3,493
2542,112	-7,78	-3,494
2544,248	-7,76	-3,497
2546,378	-7,76	-3,498
2548,496	-7,76	-3,498
2550,626	-7,74	-3,499
2552,762	-7,72	-3,499
2554,88	-7,7	-3,499
2557,015	-7,68	-3,475
2559,133	-7,66	-3,446
2561,257	-7,66	-3,358
2563,387	-7,38	-3,194
2565,505	-7,28	-3,19
2567,647	-5,98	-2,96
2569,765	-5,34	-2,883
2571,901	-4,7	-2,781
2574,024	-5,04	-2,741
2576,148	-4,08	-2,627
2578,272	-3,92	-2,57
2580,402	-3,2	-2,464
2582,526	-2,82	-2,354
2584,65	-2,24	-2,169
2586,768	-1,74	-2,027
2588,898	-1,4	-1,95
2591,028	-1,16	-1,801
2593,151	-0,9	-1,681
2595,281	-0,32	-1,474
2597,411	-0,02	-1,28
2599,535	0,42	-1,114
2601,665	0,54	-1,005
2603,801	0,78	-0,826
2605,919	0,86	-0,805
2608,049	1,14	-0,612
2610,172	1,34	-0,497
2612,308	1,68	-0,364
2614,438	2,16	-0,24
2616,562	2,4	-0,173
2618,686	2,76	-0,112
2620,81	2,84	-0,099
2622,928	3,06	-0,078
2625,064	3,56	-0,044
2627,199	3,84	-0,022
2629,323	3,86	-0,018
2631,453	3,92	-0,014
2633,571	3,9	-0,012
2635,707	3,94	-0,009
2637,837	3,96	-0,007
2639,961	3,98	-0,004
2642,085	3,98	-0,003
2644,202	3,98	-0,002
2646,326	3,96	-0,002
2648,462	3,96	-0,001
2650,586	3,94	0
2652,716	3,92	-0,102
2654,846	3,94	-0,272
2656,97	3,5	-0,367
2659,112	2,48	-0,519
2661,247	1,98	-0,705
2663,377	1,22	-0,86
2665,507	0,82	-1,074
2667,637	0,14	-1,278
2669,761	-0,02	-1,356
2671,897	-0,42	-1,536
2674,027	-0,24	-1,51
2676,157	-0,84	-1,745
2678,292	-1,22	-1,919
2680,422	-1,26	-2,037
2682,552	-1,82	-2,229
2684,688	-2,06	-2,426
2686,806	-2,2	-2,467
2688,93	-2,78	-2,609
2691,054	-3,2	-2,766
2693,172	-3,22	-2,761
2695,296	-3,4	-2,838
2697,413	-3,78	-2,944
2699,555	-4,42	-3,197
2701,679	-4,74	-3,279
2703,803	-5,22	-3,351
2705,933	-6,14	-3,413
2708,057	-6,54	-3,443
2710,181	-6,82	-3,464
2712,311	-7,1	-3,479
2714,434	-7,16	-3,486
2716,564	-7,18	-3,49
2718,694	-7,24	-3,494
2720,812	-7,26	-3,495
2722,93	-7,24	-3,496
2725,054	-7,24	-3,497
2727,19	-7,22	-3,498
2729,32	-7,22	-3,499
2731,437	-7,2	-3,499
2733,561	-7,18	-3,499
2735,691	-7,18	-3,433
2737,809	-7,18	-3,294
2739,945	-6,18	-3,109
2742,081	-5,48	-2,9
2744,205	-4,38	-2,786
2746,329	-3,84	-2,661
2748,453	-3,38	-2,536
2750,576	-3,04	-2,426
2752,7	-3,08	-2,323
2754,824	-2,06	-2,219
2756,948	-1,94	-2,15
2759,078	-1,82	-2,064
2761,202	-1,42	-1,892
2763,326	-0,98	-1,793
2765,444	-0,7	-1,648
2767,567	-0,44	-1,535
2769,691	-0,34	-1,474
2771,821	-0,22	-1,361
2773,951	0,02	-1,28
2776,075	0,18	-1,166
2778,205	0,5	-1,043
2780,329	0,68	-0,918
2782,453	0,84	-0,809
2784,582	1,3	-0,626
2786,706	1,48	-0,51
2788,83	1,96	-0,291
2790,96	2	-0,186
2793,096	2,5	-0,122
2795,22	2,78	-0,083
2797,344	3,38	-0,052
2799,462	3,46	-0,045
2801,597	3,58	-0,026
2803,727	3,74	-0,016
2805,851	3,78	-0,011
2807,981	3,82	-0,008
2810,105	3,84	-0,005
2812,235	3,84	-0,004
2814,365	3,84	-0,002
2816,483	3,84	-0,002
2818,613	3,84	-0,001
2820,73	3,84	-0,001
2822,854	3,82	-0,001
2824,972	3,82	0
2827,096	3,82	0
2829,232	3,8	-0,097
2831,368	3,44	-0,279
2833,486	3,22	-0,38
2835,616	2,96	-0,536
2837,733	3,02	-0,514
2839,857	2,38	-0,646
2841,987	1,48	-0,796
2844,105	0,84	-0,944
2846,229	0,68	-1,021
2848,347	0,62	-1,074
2850,477	0,38	-1,224
2852,601	-0,16	-1,376
2854,724	-0,28	-1,512
2856,854	-0,5	-1,678
2858,978	-0,88	-1,83
2861,096	-0,88	-1,925
2863,232	-1,28	-2,105
2865,356	-1,36	-2,173
2867,474	-1,82	-2,368
2869,604	-2,44	-2,572
2871,733	-2,68	-2,716
2873,869	-3,32	-2,907
2876,005	-4,08	-3,097
2878,129	-4,22	-3,154
2880,247	-4,18	-3,206
2882,365	-4,74	-3,303
2884,495	-4,96	-3,354
2886,625	-5,86	-3,413
2888,743	-6,2	-3,432
2890,884	-6,74	-3,474
2893,002	-6,8	-3,478
2895,132	-6,9	-3,488
2897,262	-6,96	-3,493
2899,386	-6,96	-3,495
2901,516	-6,94	-3,496
2903,652	-6,94	-3,498
2905,77	-6,94	-3,499
2907,899	-6,9	-3,499
2910,017	-6,9	-3,495
2912,153	-6,88	-3,289
2914,283	-6,88	-3,21
2916,401	-6,88	-3,178
2918,531	-6,02	-3,022
2920,649	-5,6	-2,975
2922,779	-4,72	-2,904
2924,908	-4,36	-2,772
2927,038	-3,56	-2,657
2929,162	-3,62	-2,649
2931,286	-3,52	-2,614
2933,41	-3,5	-2,584
2935,546	-2,92	-2,451
2937,664	-2,78	-2,43
2939,794	-2,56	-2,409
2941,923	-2,24	-2,258
2944,041	-2,06	-2,221
2946,171	-2,1	-2,178
2948,295	-1,62	-2,084
2950,419	-1,6	-2,06
2952,543	-1,66	-1,999
2954,673	-1,04	-1,795
2956,803	-0,84	-1,651
2958,926	-0,86	-1,648
2961,05	-0,74	-1,57
2963,192	-0,28	-1,424
2965,316	-0,22	-1,379
2967,446	-0,1	-1,26
2969,564	-0,04	-1,24
2971,694	0,06	-1,229
2973,824	0,12	-1,131
2975,942	0,18	-1,116
2978,077	0,4	-1,014
2980,207	0,58	-0,859
2982,325	0,68	-0,818
2984,449	0,78	-0,739
2986,573	1,14	-0,61
2988,697	1,22	-0,554
2990,821	1,42	-0,408
2992,951	1,68	-0,374
2995,08	1,86	-0,255
2997,204	1,82	-0,258
2999,328	2,32	-0,189
3001,458	2,3	-0,165
3003,582	2,7	-0,102
3005,706	2,78	-0,084
3007,824	2,86	-0,081
3009,96	3,24	-0,053
3012,083	3,28	-0,048
3014,201	3,46	-0,031
3016,331	3,52	-0,022
3018,449	3,6	-0,02
3020,585	3,66	-0,012
3022,721	3,72	-0,006
3024,839	3,72	-0,003
3026,963	3,72	-0,003
3029,093	3,74	-0,002
3031,222	3,72	-0,002
3033,352	3,72	-0,002
3035,476	3,72	-0,001
3037,612	3,7	-0,001
3039,742	3,72	-0,001
3041,878	3,7	-0,001
3044,002	3,7	-0,001
3046,119	3,7	-0,001
3048,243	3,72	0
3050,367	3,7	0
3052,497	3,7	-0,023
3054,627	3,68	-0,09
3056,745	3,46	-0,255
3058,881	3,18	-0,39
3060,999	3,18	-0,374
3063,122	3,04	-0,451
3065,258	2,88	-0,525
3067,382	2,88	-0,55
3069,506	2,02	-0,6
3071,642	2,26	-0,637
3073,76	2,24	-0,711
3075,89	1,4	-0,766
3078,014	1,62	-0,748
3080,15	1,3	-0,821
3082,273	1,62	-0,856
3084,403	0,76	-0,99
3086,527	0,56	-1,036
3088,663	0,42	-1,104
3090,787	0,24	-1,262
3092,917	0,2	-1,31
3095,041	0,04	-1,355
3097,177	-0,28	-1,535
3099,3	-0,28	-1,549
3101,424	-0,38	-1,579
3103,554	-0,5	-1,661
3105,672	-0,44	-1,676
3107,808	-0,6	-1,754
3109,926	-0,84	-1,822
3112,056	-0,72	-1,909
3114,18	-0,92	-2,018
3116,297	-0,94	-2,076
3118,427	-1,26	-2,136
3120,557	-1,22	-2,206
3122,687	-1,34	-2,218
3124,817	-1,42	-2,309
3126,935	-1,5	-2,346
3129,065	-1,8	-2,443
3131,183	-1,9	-2,454
3133,313	-1,92	-2,508
3135,448	-2,22	-2,626
3137,566	-2,44	-2,704
3139,696	-2,52	-2,778
3141,814	-2,52	-2,768
3143,938	-2,66	-2,846
3146,074	-3,12	-2,982
3148,198	-2,94	-2,943
3150,328	-3,06	-2,918
3152,451	-3,24	-2,955
3154,581	-3,32	-2,97
3156,717	-3,64	-3,14
3158,841	-4,1	-3,186
3160,977	-4,1	-3,255
3163,113	-4,58	-3,321
3165,237	-4,1	-3,369
3167,373	-5,34	-3,404
3168,747	3,64	0