File: ensaios_Ciclicos/_newS/_3G50/entrada/_2.txt
Time (s)	Load (N)	Displacement (mm)
0	-0,08	-0,035
2,213	0,16	-0,452
4,373	0,48	-0,438
6,533	0,54	-0,409
8,699	0,66	-0,451
10,864	0,78	-0,446
13,024	0,56	-0,444
15,184	0,48	-0,499
17,35	0,84	-0,494
19,51	0,94	-0,449
21,676	1	-0,512
23,836	1,04	-0,478
25,996	1,82	-0,416
28,162	1,56	-0,465
30,321	1,46	-0,471
32,481	2,06	-0,452
34,647	1,38	-0,432
36,807	1,74	-0,396
38,967	1,96	-0,35
41,127	1,88	-0,349
43,287	1,76	-0,398
45,465	1,54	-0,422
47,624	1,92	-0,413
49,79	1,58	-0,472
51,956	1,88	-0,478
54,128	1,34	-0,514
56,294	2	-0,477
58,46	2,08	-0,488
60,626	0,94	-0,568
62,786	0,86	-0,607
64,945	0,68	-0,679
67,117	-0,2	-0,853
69,283	-0,48	-0,864
71,455	-0,2	-0,852
73,627	-0,48	-0,904
75,799	-0,66	-0,946
77,959	-0,44	-0,952
80,119	-0,96	-1,024
82,29	-1,5	-1,107
84,462	-2,1	-1,218
86,634	-2,24	-1,267
88,794	-1,72	-1,207
90,966	-2,88	-1,344
93,132	-3,26	-1,477
95,31	-4,28	-1,634
97,476	-3,98	-1,645
99,641	-4,78	-1,697
101,819	-5,44	-1,838
103,991	-5,24	-1,896
106,163	-6,4	-2,026
108,329	-6,52	-2,117
110,507	-7,44	-2,221
112,673	-7,02	-2,23
114,839	-6,56	-2,243
117,01	-7,56	-2,346
119,182	-8,62	-2,42
121,348	-8,84	-2,532
123,52	-9,46	-2,541
125,686	-9,76	-2,648
127,852	-9,88	-2,66
130,018	-10,46	-2,708
132,178	-11,1	-2,773
134,355	-11,06	-2,887
136,521	-12,54	-2,999
138,687	-12,16	-3,01
140,859	-12,64	-3,072
143,019	-13,36	-3,132
145,179	-12,94	-3,102
147,351	-13,5	-3,198
149,523	-13,98	-3,252
151,689	-14,78	-3,32
153,848	-14,48	-3,321
156,014	-15,4	-3,375
158,18	-15,42	-3,358
160,346	-15,24	-3,378
162,518	-16,08	-3,392
164,69	-15,84	-3,41
166,856	-16,3	-3,427
169,027	-17,06	-3,462
171,199	-17,22	-3,457
173,365	-17,26	-3,47
175,537	-17,5	-3,478
177,709	-17,54	-3,484
179,875	-17,62	-3,487
182,035	-17,6	-3,49
184,195	-17,58	-3,489
186,367	-17,56	-3,492
188,532	-17,6	-3,493
190,71	-17,6	-3,494
192,876	-17,6	-3,495
195,036	-17,6	-3,495
197,202	-17,54	-3,495
199,374	-17,54	-3,495
201,534	-17,54	-3,495
203,705	-17,5	-3,496
205,883	-17,5	-3,497
208,043	-17,48	-3,496
210,209	-17,48	-3,496
212,381	-17,46	-3,497
214,559	-17,44	-3,498
216,731	-17,42	-3,498
218,915	-17,38	-3,499
221,087	-17,4	-3,499
223,258	-17,36	-3,499
225,43	-17,32	-3,499
227,602	-17,32	-3,499
229,78	-17,26	-3,5
231,958	-17,26	-3,5
234,13	-17,24	-3,497
236,302	-17,2	-3,451
238,473	-17,18	-3,462
240,645	-17,2	-3,413
242,811	-17,16	-3,278
244,977	-17,16	-3,255
247,161	-16,42	-3,087
249,333	-15,72	-3,073
251,499	-15,78	-3,003
253,659	-14,72	-2,943
255,824	-15,5	-2,953
258,008	-14,68	-2,794
260,168	-13,84	-2,769
262,334	-12,1	-2,668
264,512	-11,64	-2,575
266,684	-12,26	-2,529
268,856	-10,06	-2,393
271,04	-9,28	-2,232
273,205	-9,24	-2,137
275,377	-7,62	-2,01
277,555	-6,06	-1,818
279,727	-6,06	-1,714
281,905	-5,44	-1,568
284,077	-4,24	-1,451
286,243	-4,3	-1,478
288,409	-3,76	-1,484
290,574	-4	-1,467
292,746	-3,38	-1,362
294,912	-2,6	-1,229
297,078	-2,76	-1,186
299,25	-1,92	-1,098
301,422	-1,92	-1,002
303,594	-1,22	-0,94
305,766	-0,42	-0,777
307,937	-0,16	-0,704
310,109	0,34	-0,653
312,275	0,34	-0,589
314,453	0,88	-0,517
316,625	1,46	-0,386
318,797	1,38	-0,388
320,969	1,54	-0,357
323,153	2,1	-0,256
325,319	2,32	-0,181
327,491	3,16	-0,122
329,662	2,86	-0,117
331,84	3,58	-0,072
334,012	3,78	-0,057
336,178	3,92	-0,047
338,356	3,9	-0,045
340,522	3,94	-0,043
342,706	4,18	-0,026
344,877	4,22	-0,019
347,043	4,28	-0,014
349,215	4,3	-0,012
351,375	4,3	-0,01
353,547	4,32	-0,006
355,725	4,32	-0,003
357,903	4,32	-0,002
360,075	4,32	-0,002
362,24	4,32	-0,002
364,412	4,32	-0,002
366,59	4,3	-0,001
368,762	4,3	-0,001
370,946	4,28	0
373,112	4,28	-0,007
375,284	4,26	-0,127
377,456	4,28	-0,256
379,621	3,9	-0,285
381,799	3,64	-0,485
383,977	2,44	-0,641
386,149	1,94	-0,746
388,321	1	-0,846
390,499	0,58	-0,991
392,665	0,04	-1,055
394,843	-0,82	-1,201
397,014	-1,08	-1,322
399,186	-2,04	-1,453
401,364	-2,28	-1,55
403,536	-2,72	-1,655
405,708	-3,24	-1,761
407,886	-4,18	-1,895
410,064	-5,06	-2,103
412,23	-5,98	-2,258
414,401	-5,64	-2,204
416,573	-6,1	-2,303
418,751	-6,72	-2,448
420,923	-7,38	-2,479
423,101	-8,18	-2,577
425,273	-8,36	-2,703
427,439	-7,76	-2,704
429,611	-9,26	-2,84
431,8	-11	-3,008
433,978	-11,54	-3,164
436,15	-11,96	-3,215
438,31	-11,32	-3,191
440,488	-12,58	-3,278
442,666	-12,62	-3,3
444,832	-13,36	-3,349
447,016	-14,16	-3,388
449,193	-14,74	-3,424
451,365	-15,18	-3,445
453,537	-15,64	-3,449
455,715	-15,66	-3,456
457,893	-15,74	-3,464
460,065	-15,94	-3,467
462,249	-16,02	-3,478
464,427	-15,66	-3,482
466,593	-16,18	-3,484
468,77	-16,2	-3,486
470,948	-16,22	-3,49
473,12	-16,28	-3,491
475,31	-16,26	-3,492
477,482	-16,3	-3,496
479,666	-16,32	-3,496
481,838	-16,3	-3,497
484,016	-16,28	-3,498
486,187	-16,26	-3,499
488,371	-16,22	-3,499
490,543	-16,2	-3,499
492,721	-16,18	-3,5
494,881	-16,18	-3,5
497,059	-16,16	-3,5
499,237	-16,16	-3,5
501,414	-16,12	-3,445
503,592	-16,12	-3,332
505,758	-16,1	-3,297
507,93	-16,08	-3,244
510,12	-15,18	-3,074
512,304	-15,52	-3,046
514,488	-14,38	-2,929
516,666	-12,82	-2,81
518,843	-11,74	-2,723
521,015	-11,42	-2,682
523,193	-10,56	-2,628
525,371	-10,5	-2,482
527,543	-9,2	-2,393
529,715	-8,82	-2,383
531,887	-8,64	-2,212
534,065	-8,02	-2,213
536,236	-7,72	-2,178
538,42	-7,48	-2,161
540,592	-7,44	-2,147
542,758	-7,52	-2,168
544,924	-7,52	-2,093
547,102	-6,14	-1,937
549,274	-5,44	-1,833
551,452	-4,92	-1,794
553,635	-3,8	-1,608
555,801	-3,86	-1,553
557,979	-3,34	-1,504
560,145	-3,8	-1,52
562,329	-2,62	-1,419
564,507	-3,2	-1,405
566,685	-2,72	-1,351
568,857	-2,74	-1,336
571,034	-2,24	-1,292
573,212	-1,56	-1,184
575,39	-1,22	-1,086
577,568	-0,92	-0,967
579,746	-0,74	-0,902
581,918	-0,04	-0,824
584,09	-0,66	-0,863
586,268	-0,52	-0,882
588,445	-0,28	-0,799
590,611	0,34	-0,768
592,783	0,52	-0,631
594,955	1,26	-0,542
597,133	1,38	-0,493
599,305	1,62	-0,414
601,483	1,48	-0,412
603,661	2,36	-0,274
605,826	2,26	-0,236
607,998	2,9	-0,197
610,164	2,76	-0,169
612,342	3,5	-0,115
614,52	3,98	-0,07
616,692	4,44	-0,048
618,864	4,3	-0,044
621,036	4,56	-0,034
623,213	4,52	-0,044
625,385	4,56	-0,038
627,557	4,62	-0,029
629,741	4,54	-0,03
631,919	4,72	-0,016
634,091	4,7	-0,02
636,257	4,7	-0,021
638,435	4,74	-0,018
640,606	4,78	-0,014
642,784	4,82	-0,009
644,956	4,82	-0,006
647,134	4,82	-0,006
649,324	4,82	-0,004
651,496	4,82	-0,002
653,674	4,8	-0,001
655,858	4,78	-0,001
658,029	4,76	0
660,201	4,76	-0,002
662,373	4,72	-0,181
664,551	4,38	-0,342
666,735	4	-0,476
668,907	3,42	-0,517
671,079	3,42	-0,547
673,257	2,86	-0,677
675,435	2,26	-0,732
677,612	2	-0,803
679,79	1,1	-0,938
681,962	0,56	-1,043
684,128	-0,06	-1,161
686,294	-0,08	-1,246
688,466	-0,52	-1,261
690,644	-1	-1,396
692,816	-1	-1,415
694,987	-1,98	-1,573
697,153	-1,7	-1,584
699,331	-2,42	-1,692
701,521	-3,1	-1,813
703,693	-3,58	-1,938
705,871	-4,06	-2,068
708,043	-4,64	-2,114
710,215	-4,94	-2,266
712,392	-6,58	-2,503
714,558	-6,76	-2,598
716,73	-8,48	-2,806
718,914	-10,02	-3,028
721,092	-11,24	-3,242
723,27	-12,46	-3,322
725,442	-12,56	-3,388
727,613	-14,16	-3,426
729,785	-14,82	-3,457
731,957	-15,28	-3,476
734,129	-15,38	-3,482
736,301	-15,58	-3,49
738,479	-15,64	-3,494
740,657	-15,64	-3,497
742,841	-15,62	-3,498
745,019	-15,58	-3,499
747,19	-15,58	-3,499
749,356	-15,56	-3,494
751,528	-15,52	-3,294
753,7	-14,58	-3,12
755,884	-13,9	-2,944
758,062	-12,14	-2,83
760,234	-11,12	-2,678
762,4	-10,08	-2,575
764,571	-10,48	-2,605
766,761	-9,32	-2,473
768,933	-9,2	-2,437
771,105	-7,82	-2,248
773,283	-7,86	-2,204
775,461	-6,52	-2,069
777,639	-5,92	-2,03
779,805	-5,74	-1,89
781,976	-5,24	-1,904
784,148	-5,06	-1,854
786,332	-4,58	-1,713
788,504	-3,32	-1,555
790,682	-2,98	-1,469
792,848	-2,64	-1,409
795,02	-2	-1,272
797,192	-1,64	-1,168
799,381	-0,46	-0,999
801,547	-0,44	-0,914
803,719	0,08	-0,868
805,897	0,68	-0,701
808,063	1,02	-0,631
810,253	1,3	-0,469
812,425	2,06	-0,375
814,603	2,78	-0,264
816,78	3,5	-0,14
818,964	4,24	-0,077
821,148	4,56	-0,043
823,32	4,78	-0,035
825,498	4,92	-0,022
827,67	4,86	-0,021
829,854	4,98	-0,013
832,026	4,94	-0,013
834,203	4,98	-0,009
836,381	5	-0,007
838,565	5	-0,004
840,743	5	-0,003
842,915	5	-0,003
845,081	5	-0,002
847,265	4,98	-0,001
849,437	4,98	-0,001
851,614	4,98	-0,001
853,78	4,98	-0,001
855,946	4,98	-0,001
858,124	4,94	0
860,296	4,94	-0,001
862,474	4,94	-0,064
864,646	4,92	-0,095
866,818	4,92	-0,199
868,989	4,94	-0,223
871,173	4,42	-0,316
873,339	4,56	-0,328
875,505	4,4	-0,376
877,677	4,16	-0,461
879,849	3,7	-0,576
882,021	3,08	-0,633
884,193	2,8	-0,706
886,37	1,98	-0,782
888,548	1,88	-0,96
890,72	1,16	-1,012
892,892	0,64	-1,058
895,07	0,28	-1,145
897,242	-0,06	-1,246
899,414	-0,74	-1,377
901,586	-1,18	-1,496
903,751	-1,26	-1,497
905,935	-1,94	-1,647
908,107	-2,42	-1,788
910,291	-3,5	-1,963
912,457	-3,82	-2,033
914,629	-4,22	-2,122
916,801	-4,8	-2,254
918,979	-5,32	-2,308
921,144	-4,78	-2,277
923,328	-4,54	-2,331
925,506	-5,66	-2,465
927,684	-6,3	-2,526
929,868	-7,52	-2,712
932,04	-7,58	-2,736
934,212	-8,32	-2,788
936,39	-9,54	-2,997
938,562	-10,72	-3,122
940,733	-10,32	-3,137
942,911	-10,1	-3,162
945,089	-12,12	-3,293
947,267	-12,28	-3,368
949,445	-12,88	-3,416
951,623	-14,1	-3,446
953,801	-14,46	-3,455
955,966	-14,7	-3,462
958,15	-14,88	-3,471
960,328	-14,92	-3,475
962,512	-14,92	-3,482
964,696	-15,06	-3,486
966,88	-15,12	-3,49
969,046	-15,18	-3,491
971,218	-15,14	-3,492
973,401	-15,18	-3,495
975,573	-15,18	-3,496
977,745	-15,16	-3,496
979,917	-15,16	-3,496
982,101	-15,18	-3,496
984,279	-15,16	-3,497
986,451	-15,16	-3,497
988,635	-15,16	-3,498
990,806	-15,14	-3,498
992,972	-15,14	-3,498
995,15	-15,14	-3,498
997,328	-15,14	-3,498
999,5	-15,14	-3,498
1001,672	-15,12	-3,499
1003,85	-15,1	-3,499
1006,028	-15,08	-3,499
1008,199	-15,1	-3,499
1010,365	-15,06	-3,499
1012,549	-15,04	-3,5
1014,735	-15,02	-3,489
1016,899	-15,02	-3,494
1019,083	-15	-3,378
1021,261	-14,98	-3,366
1023,433	-14,98	-3,401
1025,61	-14,96	-3,366
1027,776	-14,98	-3,377
1029,954	-14,96	-3,306
1032,12	-14,94	-3,281
1034,298	-14,96	-3,236
1036,47	-14,62	-3,13
1038,642	-13,8	-3,092
1040,82	-13,42	-2,974
1042,997	-12,84	-2,897
1045,169	-12,5	-2,935
1047,335	-13,22	-2,93
1049,531	-11,86	-2,849
1051,709	-12,18	-2,846
1053,893	-10,86	-2,703
1056,065	-10,02	-2,571
1058,237	-9,44	-2,504
1060,408	-8,64	-2,468
1062,58	-8,74	-2,48
1064,746	-8,44	-2,448
1066,924	-7,52	-2,287
1069,102	-6,72	-2,216
1071,286	-5,82	-2,078
1073,464	-5,76	-2,034
1075,648	-5,7	-1,938
1077,819	-4,8	-1,902
1079,991	-4,42	-1,808
1082,169	-4	-1,7
1084,341	-3,08	-1,6
1086,513	-3,42	-1,569
1088,691	-2,98	-1,536
1090,863	-2,88	-1,58
1093,029	-3,22	-1,564
1095,207	-2,46	-1,455
1097,396	-1,88	-1,42
1099,574	-2,18	-1,349
1101,752	-1,56	-1,261
1103,93	-1,5	-1,218
1106,114	-0,78	-1,069
1108,286	0,08	-0,858
1110,452	0,3	-0,815
1112,624	0,62	-0,8
1114,801	0,46	-0,788
1116,967	0,42	-0,808
1119,151	1,14	-0,644
1121,323	1,22	-0,614
1123,501	1,6	-0,575
1125,679	1,88	-0,54
1127,857	1,96	-0,491
1130,029	2	-0,455
1132,2	2,18	-0,398
1134,378	3	-0,262
1136,551	2,82	-0,26
1138,728	3,02	-0,201
1140,906	3,48	-0,169
1143,096	4,5	-0,094
1145,28	4,74	-0,058
1147,445	4,52	-0,076
1149,617	4,58	-0,07
1151,801	4,82	-0,052
1153,973	4,98	-0,034
1156,145	5,04	-0,028
1158,335	5,14	-0,02
1160,507	5,18	-0,011
1162,685	5,2	-0,01
1164,875	5,22	-0,007
1167,052	5,22	-0,005
1169,23	5,22	-0,003
1171,402	5,22	-0,003
1173,58	5,22	-0,002
1175,758	5,2	-0,001
1177,924	5,2	-0,001
1180,102	5,18	-0,001
1182,279	5,16	-0,001
1184,457	5,14	0
1186,635	5,12	0
1188,813	5,14	-0,058
1190,985	5,12	-0,131
1193,163	5,12	-0,244
1195,335	5,12	-0,222
1197,519	4,66	-0,33
1199,691	4,52	-0,452
1201,856	4,46	-0,462
1204,04	3,8	-0,526
1206,218	3,3	-0,688
1208,39	2,76	-0,708
1210,574	1,88	-0,862
1212,74	2,32	-0,848
1214,918	2,24	-0,811
1217,096	1,68	-0,957
1219,273	0,9	-1,081
1221,445	0,7	-1,144
1223,617	0,64	-1,179
1225,795	-0,08	-1,292
1227,979	-0,22	-1,378
1230,151	-0,64	-1,403
1232,329	-1,28	-1,517
1234,501	-1,58	-1,582
1236,678	-1,6	-1,687
1238,856	-1,94	-1,716
1241,034	-1,84	-1,732
1243,206	-1,6	-1,711
1245,378	-1,48	-1,677
1247,544	-1,5	-1,694
1249,716	-1,86	-1,702
1251,888	-1,94	-1,727
1254,065	-1,82	-1,766
1256,243	-1,86	-1,732
1258,421	-1,92	-1,781
1260,587	-2,14	-1,728
1262,765	-1,72	-1,778
1264,937	-2,52	-1,877
1267,109	-2,78	-1,967
1269,293	-3,2	-2,052
1271,458	-3,46	-2,171
1273,63	-3,32	-2,082
1275,808	-3,92	-2,215
1277,992	-4,44	-2,286
1280,17	-4,94	-2,447
1282,348	-5,34	-2,486
1284,514	-5,26	-2,488
1286,68	-4,78	-2,467
1288,857	-4,88	-2,447
1291,029	-5,38	-2,477
1293,207	-5,04	-2,453
1295,379	-5,4	-2,552
1297,545	-5,56	-2,562
1299,729	-6,64	-2,76
1301,907	-7,2	-2,825
1304,079	-6,74	-2,845
1306,263	-7,34	-3,042
1308,434	-8,7	-3,184
1310,606	-9,46	-3,232
1312,784	-9,62	-3,296
1314,962	-9,72	-3,355
1317,14	-11	-3,401
1319,318	-12,06	-3,442
1321,484	-12,3	-3,451
1323,662	-12,66	-3,468
1325,827	-12,74	-3,474
1328,005	-12,78	-3,483
1330,177	-12,86	-3,488
1332,355	-12,86	-3,491
1334,533	-12,88	-3,493
1336,711	-12,9	-3,495
1338,877	-12,88	-3,495
1341,042	-12,86	-3,497
1343,22	-12,84	-3,498
1345,404	-12,84	-3,498
1347,57	-12,82	-3,498
1349,76	-12,76	-3,499
1351,932	-12,78	-3,499
1354,104	-12,72	-3,5
1356,282	-12,68	-3,496
1358,447	-12,7	-3,483
1360,619	-12,68	-3,414
1362,797	-12,62	-3,262
1364,969	-12,08	-3,111
1367,147	-10,82	-2,986
1369,319	-9,62	-2,844
1371,497	-9,36	-2,768
1373,669	-9,62	-2,768
1375,846	-8,24	-2,66
1378,024	-6,86	-2,5
1380,19	-6,92	-2,41
1382,368	-5,88	-2,312
1384,54	-4,54	-2,159
1386,73	-3,72	-1,98
1388,896	-4,04	-1,954
1391,074	-3,14	-1,824
1393,239	-2,52	-1,79
1395,417	-1,52	-1,587
1397,601	-1,16	-1,428
1399,767	-0,96	-1,38
1401,951	-0,7	-1,246
1404,129	-0,02	-1,106
1406,301	0,48	-1,028
1408,473	0,58	-0,954
1410,644	0,68	-0,92
1412,822	1,14	-0,828
1415	1,26	-0,756
1417,172	1,4	-0,684
1419,338	1,78	-0,667
1421,51	2,12	-0,52
1423,688	2,38	-0,411
1425,866	3,16	-0,247
1428,043	3,38	-0,185
1430,215	4,06	-0,129
1432,387	3,92	-0,134
1434,565	3,92	-0,113
1436,743	4,54	-0,07
1438,921	4,9	-0,043
1441,093	4,96	-0,026
1443,277	5,14	-0,015
1445,455	5,18	-0,01
1447,626	5,18	-0,007
1449,792	5,18	-0,003
1451,964	5,18	-0,003
1454,136	5,16	-0,002
1456,32	5,16	-0,002
1458,504	5,14	-0,001
1460,682	5,12	-0,001
1462,854	5,12	-0,009
1465,025	5,1	-0,09
1467,197	5,08	-0,22
1469,375	4,44	-0,396
1471,547	4,5	-0,515
1473,731	3,56	-0,623
1475,903	2,68	-0,76
1478,081	1,9	-0,878
1480,265	1,18	-1,037
1482,436	0,98	-1,084
1484,62	0,52	-1,207
1486,798	0,06	-1,347
1488,976	-0,64	-1,456
1491,166	-1,08	-1,612
1493,338	-1,44	-1,648
1495,516	-1,7	-1,762
1497,706	-2,2	-1,908
1499,877	-2,34	-2,001
1502,049	-2,54	-2,06
1504,233	-3,88	-2,304
1506,417	-4,1	-2,421
1508,601	-5,1	-2,634
1510,773	-4,72	-2,696
1512,945	-4,82	-2,738
1515,129	-6,1	-2,897
1517,312	-7,3	-3,014
1519,49	-7,06	-3,111
1521,662	-7,88	-3,19
1523,84	-8,02	-3,269
1526,024	-9,44	-3,376
1528,196	-10,48	-3,414
1530,374	-10,86	-3,426
1532,539	-11,1	-3,454
1534,729	-11,62	-3,477
1536,901	-11,64	-3,482
1539,067	-11,58	-3,483
1541,257	-11,74	-3,491
1543,429	-11,74	-3,493
1545,601	-11,74	-3,495
1547,773	-11,72	-3,496
1549,939	-11,72	-3,496
1552,11	-11,72	-3,497
1554,282	-11,7	-3,498
1556,448	-11,66	-3,498
1558,62	-11,66	-3,498
1560,804	-11,62	-3,499
1562,982	-11,56	-3,499
1565,148	-11,54	-3,492
1567,326	-11,54	-3,401
1569,503	-11,5	-3,276
1571,675	-11,14	-3,104
1573,841	-9,94	-2,954
1576,025	-8,42	-2,794
1578,203	-7,98	-2,67
1580,387	-5,98	-2,506
1582,565	-5,76	-2,408
1584,737	-5,74	-2,399
1586,908	-4,54	-2,263
1589,08	-4,04	-2,147
1591,252	-3,58	-1,997
1593,436	-2,78	-1,893
1595,614	-2,1	-1,779
1597,786	-1,98	-1,739
1599,958	-1,84	-1,676
1602,13	-1,14	-1,56
1604,301	-0,82	-1,424
1606,473	-0,6	-1,34
1608,645	0,02	-1,225
1610,811	0,18	-1,172
1612,977	0,44	-1,07
1615,149	0,7	-0,981
1617,315	0,68	-0,985
1619,487	1,38	-0,748
1621,659	1,04	-0,824
1623,83	1,82	-0,64
1626,002	2,06	-0,556
1628,168	2,38	-0,414
1630,352	2,9	-0,3
1632,53	3,4	-0,214
1634,708	3,62	-0,16
1636,88	3,76	-0,128
1639,057	4,34	-0,08
1641,229	4,6	-0,066
1643,407	4,78	-0,044
1645,579	4,88	-0,03
1647,763	5,06	-0,019
1649,941	5,06	-0,016
1652,113	5,08	-0,013
1654,279	5,12	-0,01
1656,45	5,12	-0,007
1658,628	5,12	-0,006
1660,806	5,12	-0,004
1662,99	5,1	-0,002
1665,156	5,1	-0,002
1667,34	5,1	-0,002
1669,506	5,08	-0,001
1671,678	5,1	-0,001
1673,849	5,08	-0,001
1676,021	5,06	-0,001
1678,199	5,06	-0,001
1680,371	5,06	0
1682,549	5,04	-0,089
1684,721	5,02	-0,13
1686,899	5,04	-0,239
1689,071	4,8	-0,353
1691,248	4,44	-0,461
1693,42	3,78	-0,556
1695,598	2,66	-0,712
1697,77	2,42	-0,812
1699,936	2,2	-0,844
1702,108	1,72	-0,965
1704,28	1,2	-1,037
1706,458	0,66	-1,108
1708,629	0,94	-1,166
1710,813	0,66	-1,315
1712,979	-0,24	-1,352
1715,163	-0,52	-1,496
1717,323	-0,4	-1,535
1719,507	-1,04	-1,62
1721,697	-1,66	-1,752
1723,875	-1,42	-1,812
1726,052	-1,74	-1,877
1728,218	-2,22	-1,942
1730,396	-2,54	-2,022
1732,574	-2,52	-2,168
1734,746	-3,12	-2,272
1736,912	-3,18	-2,294
1739,096	-3,88	-2,459
1741,268	-3,78	-2,468
1743,433	-4,38	-2,639
1745,611	-4,96	-2,736
1747,783	-5,6	-2,894
1749,967	-6,42	-3,06
1752,133	-7,06	-3,187
1754,305	-6,7	-3,236
1756,483	-7,76	-3,281
1758,661	-8,4	-3,328
1760,832	-8,68	-3,367
1763,01	-9,2	-3,412
1765,188	-9,76	-3,433
1767,36	-9,98	-3,434
1769,532	-9,96	-3,451
1771,71	-10,4	-3,471
1773,894	-10,48	-3,482
1776,072	-10,62	-3,488
1778,237	-10,68	-3,488
1780,415	-10,68	-3,494
1782,599	-10,7	-3,497
1784,765	-10,68	-3,498
1786,949	-10,66	-3,498
1789,127	-10,64	-3,499
1791,305	-10,62	-3,499
1793,477	-10,58	-3,499
1795,648	-10,56	-3,499
1797,832	-10,52	-3,483
1800,016	-10,5	-3,3
1802,182	-10,5	-3,243
1804,36	-9,8	-3,132
1806,538	-8,5	-3,007
1808,722	-7,8	-2,848
1810,9	-6,8	-2,734
1813,077	-5,62	-2,588
1815,249	-5,98	-2,531
1817,439	-3,98	-2,252
1819,611	-2,8	-2,078
1821,777	-2,5	-2,004
1823,949	-2,74	-1,94
1826,133	-1,86	-1,834
1828,311	-1,3	-1,705
1830,482	-1,16	-1,631
1832,666	-0,72	-1,429
1834,85	0,08	-1,26
1837,016	0,28	-1,184
1839,194	0,34	-1,014
1841,372	1,18	-0,839
1843,538	1,88	-0,626
1845,722	1,76	-0,559
1847,899	2,68	-0,302
1850,071	3,28	-0,216
1852,255	3,96	-0,119
1854,427	3,9	-0,089
1856,599	4,46	-0,06
1858,777	4,7	-0,044
1860,943	4,8	-0,034
1863,115	4,88	-0,024
1865,293	4,96	-0,017
1867,458	4,94	-0,018
1869,642	4,98	-0,012
1871,826	5,02	-0,007
1874,004	5,04	-0,003
1876,17	5,02	-0,002
1878,348	5,02	-0,002
1880,532	5	-0,001
1882,704	5	-0,001
1884,881	4,98	0
1887,053	4,96	-0,009
1889,225	4,94	-0,058
1891,397	4,96	-0,131
1893,575	4,62	-0,295
1895,753	4,4	-0,436
1897,937	3,4	-0,597
1900,103	3,7	-0,613
1902,292	2,12	-0,823
1904,47	1,6	-0,916
1906,654	1,6	-0,996
1908,826	1,16	-1,022
1911,01	0,42	-1,206
1913,188	-0,06	-1,32
1915,354	0	-1,396
1917,531	-0,82	-1,605
1919,709	-1,7	-1,893
1921,887	-2,3	-2,066
1924,053	-2,5	-2,141
1926,225	-2,86	-2,261
1928,403	-3,38	-2,391
1930,569	-3,62	-2,47
1932,759	-4,44	-2,713
1934,943	-5,04	-2,84
1937,12	-5,32	-2,96
1939,292	-5,94	-3,038
1941,476	-6,52	-3,15
1943,654	-6,4	-3,177
1945,826	-7,22	-3,258
1948,01	-7,56	-3,302
1950,188	-8,56	-3,376
1952,366	-8,72	-3,404
1954,531	-8,64	-3,404
1956,709	-9,14	-3,426
1958,887	-9,54	-3,447
1961,065	-9,76	-3,459
1963,243	-9,66	-3,463
1965,427	-9,96	-3,48
1967,605	-10,04	-3,486
1969,777	-10,06	-3,491
1971,948	-10,06	-3,493
1974,132	-10,08	-3,496
1976,316	-10,08	-3,496
1978,494	-10,06	-3,497
1980,672	-10,06	-3,498
1982,838	-10,06	-3,497
1985,016	-10,02	-3,498
1987,182	-10	-3,499
1989,365	-9,98	-3,499
1991,549	-9,96	-3,499
1993,721	-9,94	-3,499
1995,899	-9,92	-3,5
1998,083	-9,88	-3,5
2000,255	-9,88	-3,5
2002,427	-9,86	-3,5
2004,605	-9,84	-3,456
2006,776	-9,84	-3,383
2008,942	-9,54	-3,231
2011,114	-9,8	-3,12
2013,292	-9,4	-3,054
2015,464	-7,32	-2,92
2017,642	-6,62	-2,834
2019,814	-7,24	-2,766
2021,992	-5,98	-2,594
2024,163	-4,36	-2,458
2026,341	-3,8	-2,365
2028,513	-4,46	-2,335
2030,691	-3,4	-2,243
2032,857	-3,08	-2,248
2035,029	-3,66	-2,239
2037,207	-3,3	-2,183
2039,379	-2,64	-2,073
2041,55	-2,52	-1,99
2043,722	-2,12	-1,933
2045,9	-1,6	-1,809
2048,072	-1,76	-1,794
2050,256	-0,86	-1,609
2052,428	-0,94	-1,574
2054,594	-0,94	-1,55
2056,766	-0,72	-1,515
2058,937	-0,46	-1,474
2061,109	-0,34	-1,374
2063,287	0	-1,256
2065,465	-0,16	-1,333
2067,637	0,14	-1,254
2069,797	-0,04	-1,333
2071,975	0,3	-1,208
2074,159	0,34	-1,176
2076,336	0,68	-1,053
2078,502	0,56	-1,074
2080,68	0,8	-0,98
2082,84	0,58	-1,08
2085,012	0,48	-1,055
2087,19	0,68	-0,988
2089,35	0,66	-0,993
2091,528	0,98	-0,874
2093,705	1,28	-0,775
2095,877	1,6	-0,692
2098,055	1,62	-0,701
2100,233	1,88	-0,614
2102,405	1,98	-0,52
2104,577	2,46	-0,405
2106,761	2,62	-0,334
2108,933	3,04	-0,201
2111,104	2,94	-0,188
2113,282	3,5	-0,122
2115,466	4,08	-0,069
2117,638	4,44	-0,048
2119,816	4,62	-0,036
2122	4,72	-0,025
2124,172	4,78	-0,022
2126,35	4,72	-0,021
2128,521	4,78	-0,02
2130,687	4,84	-0,013
2132,865	4,88	-0,008
2135,049	4,88	-0,006
2137,227	4,9	-0,004
2139,393	4,9	-0,003
2141,571	4,88	-0,002
2143,749	4,88	-0,002
2145,921	4,88	-0,002
2148,092	4,88	-0,002
2150,27	4,88	-0,001
2152,442	4,88	-0,001
2154,614	4,86	-0,001
2156,792	4,84	-0,001
2158,97	4,84	0
2161,136	4,84	0
2163,307	4,84	-0,031
2165,479	4,8	-0,163
2167,663	4,52	-0,312
2169,835	4,16	-0,375
2172,001	4,08	-0,446
2174,179	4,22	-0,452
2176,357	3,58	-0,529
2178,541	2,98	-0,63
2180,712	2,8	-0,634
2182,89	1,98	-0,78
2185,068	1,86	-0,808
2187,24	2,24	-0,796
2189,424	2	-0,844
2191,596	1,72	-0,885
2193,768	1,3	-0,915
2195,946	1,98	-0,858
2198,129	1,5	-0,959
2200,307	0,92	-1,078
2202,485	0,86	-1,176
2204,657	0,88	-1,243
2206,841	0,24	-1,334
2209,007	-0,1	-1,382
2211,191	-0,08	-1,414
2213,369	-0,22	-1,453
2215,534	-0,2	-1,47
2217,718	-0,64	-1,623
2219,896	-0,88	-1,705
2222,062	-0,68	-1,668
2224,246	-1,22	-1,79
2226,424	-1,12	-1,861
2228,59	-1,42	-1,954
2230,78	-1,62	-2,004
2232,951	-1,8	-2,051
2235,129	-2,24	-2,206
2237,301	-2,26	-2,268
2239,473	-2,54	-2,336
2241,657	-3,26	-2,576
2243,823	-4	-2,713
2246,001	-3,84	-2,764
2248,179	-4,18	-2,846
2250,35	-4,46	-2,875
2252,522	-3,78	-2,852
2254,712	-4,96	-3
2256,878	-4,78	-2,99
2259,05	-5,32	-3,082
2261,228	-6,52	-3,287
2263,4	-6,32	-3,3
2265,578	-7,18	-3,375
2267,756	-7,18	-3,406
2269,939	-7,5	-3,428
2272,105	-8,22	-3,432
2274,289	-8,46	-3,452
2276,461	-8,66	-3,466
2278,639	-8,62	-3,471
2280,811	-8,58	-3,474
2282,995	-8,56	-3,473
2285,167	-8,58	-3,479
2287,338	-8,66	-3,481
2289,51	-8,7	-3,482
2291,688	-8,76	-3,487
2293,86	-8,78	-3,488
2296,038	-8,78	-3,492
2298,222	-8,84	-3,495
2300,388	-8,82	-3,496
2302,571	-8,8	-3,496
2304,749	-8,82	-3,497
2306,927	-8,78	-3,498
2309,093	-8,76	-3,498
2311,277	-8,74	-3,499
2313,455	-8,72	-3,499
2315,621	-8,68	-3,499
2317,799	-8,66	-3,499
2319,971	-8,68	-3,5
2322,142	-8,64	-3,5
2324,32	-8,6	-3,486
2326,492	-8,6	-3,39
2328,658	-8,58	-3,308
2330,836	-8,58	-3,212
2333,014	-8,02	-3,135
2335,18	-7,38	-3,086
2337,358	-6,84	-2,945
2339,535	-5,36	-2,736
2341,701	-4,78	-2,639
2343,885	-3,86	-2,506
2346,063	-3,42	-2,425
2348,235	-3,48	-2,379
2350,413	-2,78	-2,228
2352,591	-2,62	-2,21
2354,757	-2,24	-2,142
2356,952	-1,88	-1,989
2359,124	-1,64	-1,954
2361,308	-1,56	-1,838
2363,474	-1,42	-1,763
2365,646	-1,08	-1,69
2367,818	-0,92	-1,676
2369,984	-0,64	-1,533
2372,156	-0,08	-1,358
2374,339	0,28	-1,172
2376,517	0,52	-1,079
2378,683	0,52	-1,047
2380,855	0,86	-0,954
2383,033	0,72	-0,919
2385,205	0,86	-0,9
2387,377	0,96	-0,894
2389,555	1,24	-0,787
2391,726	1,4	-0,672
2393,91	1,7	-0,518
2396,082	1,78	-0,528
2398,254	2,08	-0,463
2400,426	1,9	-0,369
2402,61	2,46	-0,26
2404,788	3,2	-0,143
2406,96	3,56	-0,116
2409,137	4,04	-0,074
2411,309	4,14	-0,054
2413,487	4,44	-0,03
2415,659	4,5	-0,028
2417,831	4,48	-0,024
2420,003	4,58	-0,016
2422,181	4,62	-0,012
2424,365	4,66	-0,004
2426,536	4,66	-0,003
2428,708	4,66	-0,002
2430,88	4,66	-0,001
2433,058	4,64	-0,001
2435,224	4,64	-0,001
2437,396	4,62	-0,001
2439,574	4,6	-0,058
2441,74	4,6	-0,084
2443,911	4,6	-0,101
2446,089	4,6	-0,139
2448,261	4,56	-0,256
2450,433	4,18	-0,304
2452,605	3,92	-0,415
2454,771	3,36	-0,496
2456,943	3,74	-0,494
2459,121	2,88	-0,639
2461,286	2,52	-0,704
2463,464	2,08	-0,78
2465,642	2,12	-0,866
2467,814	1,22	-0,956
2469,986	1,3	-0,986
2472,164	1,18	-1,057
2474,33	1	-1,047
2476,508	1,18	-1,107
2478,685	0,82	-1,162
2480,851	0,26	-1,318
2483,029	-0,16	-1,462
2485,207	-0,22	-1,581
2487,373	-0,38	-1,582
2489,557	-0,68	-1,714
2491,735	-0,98	-1,85
2493,907	-0,88	-1,879
2496,078	-1,06	-1,905
2498,25	-1,22	-1,955
2500,416	-1,36	-2,036
2502,594	-1,66	-2,135
2504,766	-1,58	-2,175
2506,944	-1,88	-2,301
2509,11	-2,38	-2,401
2511,288	-2,64	-2,487
2513,465	-3,12	-2,649
2515,631	-3,12	-2,665
2517,809	-3,36	-2,736
2519,981	-3,14	-2,735
2522,147	-3,42	-2,745
2524,319	-3,5	-2,824
2526,503	-3,92	-2,952
2528,675	-4,44	-3,051
2530,852	-5,14	-3,198
2533,036	-5,6	-3,291
2535,202	-4,74	-3,314
2537,374	-5,42	-3,37
2539,546	-7,12	-3,425
2541,724	-7,42	-3,439
2543,902	-7,24	-3,457
2546,074	-7,58	-3,471
2548,245	-7,84	-3,478
2550,418	-7,84	-3,483
2552,595	-7,9	-3,49
2554,761	-7,9	-3,492
2556,939	-7,92	-3,493
2559,117	-7,92	-3,496
2561,283	-7,92	-3,496
2563,455	-7,9	-3,498
2565,632	-7,9	-3,498
2567,798	-7,88	-3,498
2569,976	-7,86	-3,499
2572,148	-7,84	-3,499
2574,32	-7,8	-3,499
2576,498	-7,8	-3,5
2578,676	-7,78	-3,457
2580,848	-7,46	-3,21
2583,02	-7,24	-3,088
2585,191	-6,44	-2,989
2587,363	-5,66	-2,93
2589,547	-5,38	-2,867
2591,719	-4,86	-2,714
2593,891	-4,08	-2,604
2596,063	-3,5	-2,525
2598,235	-3,28	-2,41
2600,4	-2,52	-2,293
2602,584	-2,32	-2,208
2604,762	-1,84	-2,089
2606,928	-1,98	-2
2609,1	-1,46	-1,969
2611,266	-1,36	-1,903
2613,45	-1,02	-1,76
2615,622	-0,74	-1,693
2617,787	-0,58	-1,57
2619,959	-0,38	-1,55
2622,137	-0,24	-1,409
2624,303	-0,2	-1,296
2626,481	-0,16	-1,348
2628,659	0,32	-1,224
2630,825	0,38	-1,16
2632,997	0,48	-1,06
2635,169	0,84	-0,924
2637,34	1,18	-0,788
2639,512	1,12	-0,758
2641,684	1,38	-0,674
2643,856	1,44	-0,584
2646,028	1,8	-0,49
2648,2	2,24	-0,36
2650,372	2,16	-0,329
2652,538	2,64	-0,252
2654,715	2,64	-0,149
2656,887	3,3	-0,097
2659,053	3,68	-0,063
2661,231	3,92	-0,047
2663,409	4,18	-0,031
2665,575	4,24	-0,024
2667,753	4,34	-0,016
2669,924	4,44	-0,011
2672,096	4,46	-0,008
2674,268	4,46	-0,006
2676,446	4,48	-0,004
2678,618	4,48	-0,003
2680,796	4,46	-0,002
2682,968	4,46	-0,001
2685,134	4,48	-0,001
2687,306	4,46	-0,001
2689,483	4,46	-0,001
2691,649	4,46	0
2693,833	4,44	-0,031
2696,005	4,42	-0,071
2698,177	4,42	-0,15
2700,349	4,42	-0,131
2702,533	4,38	-0,304
2704,699	3,84	-0,422
2706,876	2,92	-0,527
2709,05	3,2	-0,562
2711,214	2,18	-0,662
2713,386	1,96	-0,806
2715,558	1,74	-0,809
2717,73	1,74	-0,845
2719,914	0,68	-1,096
2722,091	0,36	-1,258
2724,257	0,12	-1,32
2726,429	-0,06	-1,457
2728,601	-0,38	-1,588
2730,767	-0,3	-1,599
2732,945	-0,56	-1,67
2735,117	-0,72	-1,748
2737,289	-0,86	-1,853
2739,461	-1,14	-1,942
2741,638	-0,92	-1,96
2743,81	-1,24	-2,055
2745,982	-1,3	-2,127
2748,16	-1,56	-2,23
2750,326	-1,62	-2,283
2752,504	-1,92	-2,402
2754,676	-2,16	-2,465
2756,842	-2,26	-2,513
2759,019	-2,48	-2,594
2761,191	-2,92	-2,715
2763,363	-2,84	-2,751
2765,547	-3,22	-2,884
2767,725	-3,72	-3,018
2769,897	-4,3	-3,128
2772,069	-4,62	-3,257
2774,235	-5,28	-3,308
2776,406	-5,58	-3,368
2778,584	-6,12	-3,407
2780,75	-6,74	-3,44
2782,928	-6,96	-3,462
2785,1	-7,08	-3,466
2787,272	-7,24	-3,476
2789,45	-7,36	-3,488
2791,634	-7,32	-3,493
2793,799	-7,38	-3,494
2795,971	-7,4	-3,496
2798,155	-7,38	-3,498
2800,327	-7,4	-3,498
2802,511	-7,36	-3,499
2804,683	-7,34	-3,499
2806,855	-7,32	-3,499
2809,027	-7,34	-3,5
2811,198	-7,3	-3,433
2813,37	-7,28	-3,336
2815,548	-6,28	-3,136
2817,738	-6,42	-2,993
2819,904	-5,64	-2,944
2822,076	-4,62	-2,813
2824,242	-4,52	-2,674
2826,42	-3,44	-2,555
2828,591	-3,02	-2,488
2830,763	-2,58	-2,389
2832,941	-2,7	-2,264
2835,113	-2,14	-2,159
2837,291	-1,7	-2,029
2839,463	-1,64	-1,95
2841,647	-1,18	-1,866
2843,825	-0,9	-1,763
2845,99	-1,04	-1,794
2848,168	-0,68	-1,659
2850,334	-0,66	-1,623
2852,506	-0,44	-1,555
2854,69	-0,16	-1,417
2856,856	-0,14	-1,379
2859,034	0,12	-1,239
2861,212	0,4	-1,109
2863,377	0,5	-1,029
2865,555	0,8	-0,89
2867,727	1,08	-0,773
2869,893	1,12	-0,72
2872,071	1,4	-0,596
2874,243	1,7	-0,508
2876,421	1,82	-0,367
2878,605	2,54	-0,22
2880,776	2,74	-0,155
2882,948	3,24	-0,112
2885,12	3,66	-0,061
2887,292	4,04	-0,038
2889,47	4,16	-0,026
2891,636	4,2	-0,021
2893,82	4,28	-0,013
2896,004	4,34	-0,005
2898,175	4,34	-0,003
2900,347	4,36	-0,002
2902,525	4,34	-0,002
2904,691	4,34	-0,001
2906,863	4,32	0
2909,035	4,3	0
2911,207	4,3	-0,095
2913,385	3,96	-0,253
2915,562	3,64	-0,351
2917,734	3,38	-0,495
2919,918	2,84	-0,638
2922,102	1,42	-0,824
2924,28	1,04	-0,948
2926,47	0,52	-1,159
2928,636	0,64	-1,144
2930,814	0,3	-1,311
2932,985	0,18	-1,384
2935,163	-0,08	-1,534
2937,341	-0,36	-1,663
2939,513	-0,42	-1,737
2941,685	-0,8	-1,863
2943,857	-0,9	-2
2946,035	-1,34	-2,203
2948,213	-1,66	-2,344
2950,39	-1,78	-2,398
2952,562	-2,24	-2,551
2954,734	-2,48	-2,677
2956,912	-3	-2,855
2959,078	-3,42	-2,918
2961,268	-3,88	-3,092
2963,446	-4,72	-3,275
2965,618	-5,7	-3,374
2967,796	-5,92	-3,42
2969,979	-6,5	-3,443
2972,145	-6,64	-3,458
2974,323	-6,86	-3,474
2976,495	-6,9	-3,48
2978,661	-7	-3,486
2980,845	-7,06	-3,494
2983,023	-7,06	-3,496
2985,189	-7,06	-3,496
2987,366	-7,04	-3,497
2989,544	-7,04	-3,498
2991,728	-7	-3,499
2993,912	-6,98	-3,499
2996,078	-6,96	-3,5
2998,256	-6,96	-3,497
3000,422	-6,94	-3,384
3002,594	-6,92	-3,252
3004,765	-6,9	-3,203
3006,943	-6,6	-3,105
3009,121	-4,72	-2,9
3011,305	-3,74	-2,688
3013,477	-3,24	-2,62
3015,649	-2,86	-2,456
3017,827	-2,18	-2,273
3020,023	-1,38	-2,017
3022,194	-1,02	-1,832
3024,366	-0,84	-1,706
3026,538	-0,44	-1,56
3028,71	-0,6	-1,48
3030,894	0,06	-1,32
3033,066	0,16	-1,211
3035,238	0,36	-1,139
3037,41	0,56	-0,98
3039,587	0,82	-0,835
3041,759	1,16	-0,663
3043,931	1,22	-0,614
3046,109	1,54	-0,459
3048,281	1,88	-0,348
3050,447	2,16	-0,232
3052,637	2,72	-0,16
3054,815	3,48	-0,082
3056,986	3,6	-0,059
3059,176	4,02	-0,03
3061,342	4,08	-0,022
3063,526	4,2	-0,011
3065,71	4,24	-0,005
3067,876	4,24	-0,003
3070,06	4,24	-0,002
3072,226	4,24	-0,001
3074,397	4,22	-0,001
3076,581	4,22	0
3078,753	4,2	-0,006
3080,925	4,2	-0,174
3083,109	3,52	-0,379
3085,281	3,32	-0,497
3087,453	2,08	-0,665
3089,619	1,72	-0,766
3091,796	1,34	-0,881
3093,974	0,7	-1,042
3096,14	0,72	-1,148
3098,324	0,36	-1,34
3100,49	-0,1	-1,484
3102,668	-0,2	-1,618
3104,84	-0,42	-1,745
3107,018	-0,9	-1,971
3109,201	-1,14	-2,145
3111,367	-1,38	-2,262
3113,551	-1,9	-2,443
3115,723	-2,1	-2,57
3117,901	-2,6	-2,779
3120,073	-3,14	-2,915
3122,245	-3,2	-2,988
3124,417	-3,88	-3,147
3126,606	-4,58	-3,323
3128,772	-5,06	-3,343
3130,956	-5,48	-3,394
3133,122	-5,84	-3,43
3135,3	-6,2	-3,451
3137,478	-6,54	-3,476
3139,644	-6,52	-3,477
3141,822	-6,64	-3,487
3143,993	-6,66	-3,491
3146,165	-6,72	-3,494
3148,337	-6,72	-3,496
3150,509	-6,7	-3,498
3152,687	-6,7	-3,499
3154,871	-6,66	-3,499
3157,037	-6,64	-3,5
3159,215	-6,62	-3,354
3161,392	-6,1	-3,18
3163,564	-6,1	-3,031
3165,736	-4,66	-2,889
3167,908	-3,98	-2,8
3170,074	-3,2	-2,603
3172,252	-2,26	-2,346
3174,418	-2,08	-2,265
3176,59	-1,08	-1,922
3178,761	-0,88	-1,794
3180,951	-0,48	-1,543
3183,123	0	-1,426
3185,301	0,14	-1,245
3187,479	0,4	-1,029
3189,663	0,88	-0,849
3191,829	0,86	-0,816
3194,007	1,18	-0,66
3196,172	1,38	-0,528
3198,344	1,86	-0,338
3200,522	2,34	-0,212
3202,694	2,66	-0,134
3204,86	3,1	-0,082
3207,044	3,78	-0,042
3209,21	3,84	-0,036
3211,382	4,02	-0,02
3213,553	4,06	-0,015
3215,731	4,12	-0,008
3217,909	4,14	-0,005
3220,075	4,14	-0,004
3222,259	4,14	-0,002
3224,425	4,14	-0,002
3226,615	4,14	-0,001
3228,787	4,12	0
3230,952	4,12	0
3233,076	4,12	-0,001