File: ensaios_Ciclicos/_newS/_3G50/entrada/_3.txt
Time (s)	Load (N)	Displacement (mm)
0	-0,1	-0,035
2,22	0	-0,473
4,355	0,5	-0,478
6,492	0,52	-0,408
8,633	0,86	-0,357
10,769	1,04	-0,292
12,905	0,78	-0,376
15,047	0,82	-0,422
17,189	1,26	-0,392
19,325	1,22	-0,305
21,466	1,54	-0,325
23,602	1,32	-0,329
25,744	1,26	-0,397
27,88	1,62	-0,395
30,028	1,3	-0,46
32,17	1,42	-0,442
34,306	1,46	-0,409
36,441	1,36	-0,366
38,577	1,78	-0,326
40,719	2,2	-0,335
42,861	1,58	-0,386
44,997	1,98	-0,37
47,139	1,7	-0,415
49,275	1,86	-0,388
51,423	1,46	-0,441
53,559	2,02	-0,35
55,694	2,44	-0,241
57,842	2,48	-0,208
59,984	2,12	-0,249
62,126	2,2	-0,318
64,268	2,26	-0,353
66,404	2,36	-0,27
68,546	2,6	-0,229
70,682	2,62	-0,154
72,829	2,66	-0,152
74,965	2,68	-0,107
77,107	2,7	-0,147
79,243	2,72	-0,142
81,391	2,72	-0,205
83,527	2,74	-0,135
85,67	2,78	-0,136
87,805	2,8	-0,046
89,953	2,82	-0,142
92,094	2,84	-0,09
94,23	2,86	-0,108
96,366	2,88	-0,089
98,508	2,9	-0,077
100,644	2,92	-0,07
102,78	2,92	-0,09
104,928	2,94	-0,113
107,076	2,96	-0,136
109,223	2,98	-0,113
111,371	3	-0,119
113,513	3	-0,114
115,649	3,02	-0,012
117,797	3,04	-0,001
119,939	3,06	0
122,081	3,08	0
124,222	3,1	-0,001
126,364	3,12	-0,001
128,5	3,14	-0,001
130,636	3,16	-0,001
132,778	3,16	-0,001
134,926	3,18	-0,001
137,068	3,2	-0,001
139,21	3,24	-0,001
141,351	3,26	-0,002
143,493	3,26	-0,001
145,635	3,28	-0,001
147,771	3,3	-0,002
149,919	3,3	-0,002
152,067	3,32	-0,002
154,203	3,32	-0,002
156,357	3,32	-0,002
158,493	3,34	-0,002
160,634	3,36	-0,002
162,776	3,38	-0,002
164,918	3,4	-0,003
167,06	3,4	-0,003
169,196	3,42	-0,004
171,338	3,44	-0,005
173,486	3,44	-0,005
175,633	3,46	-0,005
177,775	3,46	-0,006
179,923	3,48	-0,006
182,059	3,48	-0,006
184,207	3,48	-0,006
186,355	3,5	-0,005
188,497	3,5	-0,006
190,645	3,52	-0,006
192,793	3,54	-0,006
194,94	3,54	-0,006
197,082	3,54	-0,007
199,224	3,56	-0,005
201,372	3,56	-0,005
203,52	3,58	-0,006
205,674	3,58	-0,004
207,81	3,6	-0,005
209,952	3,6	-0,005
212,093	3,62	-0,006
214,235	3,62	-0,009
216,383	3,6	-0,007
218,531	3,64	-0,008
220,679	3,62	-0,008
222,827	3,66	-0,008
224,963	3,64	-0,01
227,105	3,64	-0,009
229,246	3,66	-0,011
231,4	3,64	-0,009
233,548	3,68	-0,009
235,69	3,66	-0,012
237,838	3,66	-0,011
239,986	3,66	-0,011
242,128	3,68	-0,013
244,264	3,6	-0,019
246,418	3,68	-0,018
248,565	3,56	-0,022
250,713	3,66	-0,023
252,861	3,64	-0,02
255,003	3,64	-0,022
257,139	3,56	-0,027
259,275	3,54	-0,036
261,429	3,6	-0,029
263,582	3,68	-0,022
265,73	3,66	-0,024
267,878	3,64	-0,026
270,044	3,66	-0,021
272,186	3,74	-0,023
274,34	3,7	-0,02
276,488	3,76	-0,021
278,636	3,72	-0,02
280,783	3,78	-0,014
282,925	3,8	-0,016
285,079	3,78	-0,017
287,227	3,84	-0,012
289,369	3,82	-0,014
291,517	3,8	-0,018
293,653	3,78	-0,019
295,807	3,84	-0,018
297,955	3,84	-0,014
300,108	3,86	-0,013
302,25	3,84	-0,017
304,404	3,86	-0,019
306,558	3,84	-0,016
308,712	3,84	-0,016
310,854	3,86	-0,018
313,008	3,88	-0,017
315,156	3,88	-0,014
317,304	3,92	-0,015
319,451	3,88	-0,018
321,605	3,92	-0,014
323,753	3,92	-0,013
325,901	3,94	-0,012
328,055	3,94	-0,011
330,203	3,98	-0,008
332,357	3,98	-0,006
334,504	4	-0,006
336,652	4,02	-0,004
338,8	4,02	-0,004
340,954	4,02	-0,003
343,102	4,02	-0,002
345,262	4	-0,002
347,416	4	-0,002
349,558	4,02	-0,002
351,705	4,02	-0,002
353,853	4,04	-0,002
355,995	4,02	-0,002
358,143	4,04	-0,002
360,291	4,04	-0,002
362,439	4,04	-0,002
364,593	4,04	-0,001
366,741	4,02	-0,002
368,9	4,02	-0,001
371,042	4,04	-0,002
373,196	4,06	-0,002
375,35	4,06	-0,001
377,498	4,06	-0,001
379,646	4,06	-0,001
381,806	4,06	-0,001
383,96	4,04	-0,001
386,107	4,06	-0,001
388,255	4,06	-0,001
390,409	4,06	-0,001
392,557	4,06	0
394,705	4,06	0
396,865	4,06	-0,012
399,013	4,04	-0,069
401,173	4,06	-0,181
403,32	4,04	-0,107
405,474	4,06	-0,17
407,628	4,06	-0,242
409,782	4,06	-0,247
411,936	3,56	-0,289
414,09	3,94	-0,33
416,244	3,4	-0,384
418,392	3,86	-0,379
420,546	3,44	-0,399
422,693	4,08	-0,329
424,853	4,08	-0,354
427,001	3,5	-0,333
429,149	3,76	-0,323
431,291	3,8	-0,336
433,439	3,18	-0,503
435,593	3,56	-0,485
437,741	3,48	-0,475
439,888	2,52	-0,599
442,042	2,84	-0,582
444,196	2,3	-0,606
446,344	2,46	-0,651
448,492	2,34	-0,684
450,646	2,08	-0,714
452,8	1,72	-0,723
454,96	2	-0,711
457,113	1,18	-0,794
459,261	1,14	-0,8
461,421	1,22	-0,835
463,569	1,46	-0,792
465,723	1,38	-0,85
467,871	1,2	-0,887
470,037	0,34	-1,006
472,191	0,1	-1,057
474,338	0	-1,085
476,498	-0,56	-1,146
478,64	-0,12	-1,138
480,788	-0,16	-1,122
482,942	-0,38	-1,132
485,09	-0,42	-1,196
487,238	-0,84	-1,186
489,386	-0,4	-1,203
491,539	-1,12	-1,272
493,687	-0,62	-1,291
495,841	-1,36	-1,318
497,995	-1,32	-1,344
500,149	-1,58	-1,417
502,297	-1,82	-1,45
504,451	-2,28	-1,507
506,599	-2,02	-1,466
508,752	-2,34	-1,54
510,906	-2,24	-1,56
513,06	-2,5	-1,648
515,208	-2,36	-1,611
517,368	-2,5	-1,683
519,51	-2,9	-1,663
521,664	-2,54	-1,68
523,812	-3,38	-1,744
525,959	-3,16	-1,734
528,119	-3,5	-1,784
530,273	-3,88	-1,873
532,421	-3,6	-1,884
534,575	-3,92	-1,895
536,723	-3,84	-1,885
538,877	-3,88	-1,917
541,025	-3,64	-1,885
543,173	-3,88	-1,906
545,332	-4,74	-2,031
547,48	-4,4	-2,068
549,634	-5,34	-2,163
551,782	-5,28	-2,163
553,936	-5,26	-2,172
556,102	-5,56	-2,221
558,25	-5,92	-2,286
560,398	-6,14	-2,32
562,551	-6,38	-2,38
564,705	-6,12	-2,369
566,847	-5,9	-2,287
569,007	-6,24	-2,311
571,167	-6,48	-2,418
573,321	-6,6	-2,451
575,469	-5,92	-2,44
577,617	-6,84	-2,489
579,77	-7,42	-2,52
581,918	-7,42	-2,6
584,066	-8,26	-2,642
586,214	-7,04	-2,626
588,374	-7,84	-2,63
590,528	-7,5	-2,719
592,688	-8,82	-2,746
594,842	-8,78	-2,816
597,008	-10,14	-2,922
599,155	-9,76	-2,945
601,309	-10,74	-3,023
603,457	-10,64	-3,035
605,623	-10,78	-3,12
607,777	-11,52	-3,167
609,931	-12	-3,236
612,085	-12,86	-3,276
614,238	-12,26	-3,304
616,392	-12,8	-3,306
618,54	-11,96	-3,286
620,694	-12,54	-3,293
622,848	-12,72	-3,315
624,996	-11,16	-3,326
627,144	-12,62	-3,296
629,304	-12,82	-3,291
631,445	-11,88	-3,233
633,593	-11,5	-3,195
635,747	-12	-3,199
637,901	-11,4	-3,228
640,049	-11,56	-3,254
642,203	-12,4	-3,273
644,357	-11,06	-3,268
646,511	-11,96	-3,264
648,664	-10,82	-3,246
650,812	-11,12	-3,163
652,96	-10,94	-3,158
655,102	-11,04	-3,113
657,244	-10,58	-3,015
659,386	-10,3	-2,97
661,528	-9,72	-2,936
663,676	-9,56	-2,914
665,823	-9,82	-2,937
667,971	-8,68	-2,873
670,119	-8,64	-2,848
672,267	-8,04	-2,757
674,415	-8,04	-2,738
676,581	-7,6	-2,764
678,729	-8,36	-2,766
680,883	-8,76	-2,76
683,037	-8,62	-2,848
685,19	-9,12	-2,857
687,344	-9,2	-2,878
689,498	-9,08	-2,898
691,646	-9,7	-2,968
693,794	-9,26	-2,9
695,942	-9,18	-2,868
698,096	-9,18	-2,904
700,244	-9,18	-2,878
702,397	-9,38	-2,941
704,557	-9,62	-3,017
706,705	-10,44	-3,04
708,859	-10,28	-3,038
711,007	-10,14	-3,024
713,167	-10	-3,068
715,315	-10,04	-3,047
717,469	-10,08	-3,062
719,616	-9,78	-3,016
721,764	-10,58	-3,047
723,918	-10,6	-3,068
726,072	-10,78	-3,131
728,226	-10,58	-3,109
730,374	-10,44	-3,092
732,522	-10,04	-3,014
734,676	-8,5	-3,014
736,835	-9,82	-3,062
738,977	-10,32	-3,008
741,131	-9,9	-3,065
743,291	-10,08	-3,051
745,445	-10,88	-3,103
747,593	-10,58	-3,142
749,747	-10,8	-3,108
751,901	-10,98	-3,146
754,06	-11,94	-3,234
756,208	-11,08	-3,205
758,356	-11,26	-3,234
760,51	-11,16	-3,242
762,658	-11,92	-3,247
764,812	-11,98	-3,282
766,96	-11,74	-3,242
769,102	-10,98	-3,223
771,249	-10,54	-3,141
773,409	-10,24	-3,171
775,569	-11,3	-3,262
777,729	-12,16	-3,315
779,889	-11,84	-3,328
782,043	-12,54	-3,334
784,191	-12,38	-3,325
786,357	-12,96	-3,353
788,504	-13,28	-3,371
790,664	-13,66	-3,41
792,818	-14,26	-3,418
794,966	-14,18	-3,416
797,12	-14,4	-3,425
799,268	-14,54	-3,436
801,41	-14,16	-3,435
803,552	-14,66	-3,43
805,693	-13,2	-3,412
807,847	-13,88	-3,417
810,001	-14,02	-3,424
812,149	-14,14	-3,429
814,309	-14,6	-3,441
816,469	-14,66	-3,452
818,623	-15,12	-3,464
820,777	-15,06	-3,462
822,93	-15,22	-3,463
825,078	-15,12	-3,466
827,238	-15,26	-3,471
829,392	-15,38	-3,479
831,54	-15,12	-3,475
833,706	-15,26	-3,478
835,854	-15,22	-3,477
838,02	-15,32	-3,48
840,168	-15,32	-3,481
842,327	-15,34	-3,479
844,481	-15,32	-3,48
846,635	-15,42	-3,48
848,789	-15,42	-3,483
850,937	-15,18	-3,484
853,085	-15,38	-3,486
855,239	-15,42	-3,485
857,387	-15,26	-3,481
859,54	-15,32	-3,48
861,7	-15,26	-3,48
863,854	-15,32	-3,481
866,008	-15,36	-3,484
868,162	-15,44	-3,488
870,322	-15,36	-3,487
872,47	-15,46	-3,487
874,618	-15,44	-3,488
876,765	-15,36	-3,487
878,919	-15,44	-3,489
881,079	-15,46	-3,489
883,221	-15,42	-3,488
885,381	-15,42	-3,492
887,529	-15,46	-3,492
889,677	-15,4	-3,491
891,825	-15,42	-3,491
893,978	-15,44	-3,491
896,126	-15,4	-3,492
898,268	-15,44	-3,491
900,422	-15,42	-3,49
902,564	-15,32	-3,488
904,724	-15,42	-3,491
906,872	-15,42	-3,49
909,026	-15,4	-3,49
911,185	-15,44	-3,493
913,333	-15,38	-3,49
915,475	-15,4	-3,49
917,617	-15,42	-3,49
919,765	-15,38	-3,487
921,925	-15,4	-3,489
924,079	-15,38	-3,491
926,227	-15,36	-3,491
928,368	-15,38	-3,49
930,522	-15,32	-3,488
932,676	-15,34	-3,49
934,824	-15,38	-3,491
936,978	-15,3	-3,49
939,126	-15,38	-3,49
941,274	-15,16	-3,488
943,422	-15,32	-3,49
945,576	-15,38	-3,492
947,723	-15,38	-3,492
949,877	-15,38	-3,493
952,031	-15,36	-3,492
954,191	-15,4	-3,494
956,339	-15,36	-3,494
958,499	-15,38	-3,495
960,653	-15,36	-3,495
962,801	-15,38	-3,496
964,954	-15,36	-3,495
967,108	-15,36	-3,495
969,268	-15,38	-3,496
971,416	-15,34	-3,495
973,564	-15,34	-3,494
975,712	-15,34	-3,494
977,866	-15,34	-3,495
980,038	-15,36	-3,497
982,179	-15,34	-3,497
984,333	-15,34	-3,497
986,481	-15,34	-3,496
988,641	-15,34	-3,497
990,789	-15,32	-3,497
992,943	-15,32	-3,497
995,091	-15,32	-3,496
997,239	-15,3	-3,495
999,386	-15,3	-3,495
1001,534	-15,26	-3,494
1003,688	-15,28	-3,493
1005,854	-15,26	-3,495
1008,008	-15,3	-3,495
1010,156	-15,28	-3,494
1012,304	-15,28	-3,493
1014,458	-15,28	-3,494
1016,599	-15,28	-3,492
1018,747	-15,2	-3,49
1020,901	-15,22	-3,492
1023,055	-15,16	-3,493
1025,215	-15,24	-3,494
1027,375	-15,24	-3,495
1029,535	-15,26	-3,496
1031,677	-15,26	-3,496
1033,83	-15,24	-3,495
1035,984	-15,22	-3,496
1038,138	-15,24	-3,496
1040,286	-15,24	-3,496
1042,434	-15,22	-3,496
1044,576	-15,18	-3,496
1046,724	-15,2	-3,494
1048,866	-15,2	-3,494
1051,013	-15,1	-3,492
1053,173	-15,16	-3,494
1055,327	-15,16	-3,495
1057,475	-15,12	-3,493
1059,623	-15,12	-3,493
1061,765	-15,12	-3,493
1063,913	-15,06	-3,492
1066,061	-15,12	-3,49
1068,214	-14,98	-3,487
1070,362	-15,06	-3,49
1072,51	-15,04	-3,489
1074,652	-15,06	-3,491
1076,806	-15,06	-3,492
1078,954	-15,06	-3,492
1081,102	-15,04	-3,49
1083,256	-15,08	-3,492
1085,41	-15,04	-3,494
1087,569	-15,08	-3,494
1089,723	-15,08	-3,494
1091,877	-15,08	-3,494
1094,031	-15,06	-3,494
1096,179	-15,04	-3,492
1098,339	-15,06	-3,494
1100,493	-15,04	-3,494
1102,635	-15,04	-3,493
1104,794	-15,06	-3,496
1106,954	-15,06	-3,496
1109,114	-15,02	-3,496
1111,256	-15	-3,496
1113,428	-15	-3,496
1115,582	-14,98	-3,496
1117,73	-14,98	-3,496
1119,884	-14,98	-3,496
1122,025	-14,96	-3,496
1124,173	-14,94	-3,494
1126,327	-14,92	-3,494
1128,475	-14,92	-3,494
1130,635	-14,92	-3,495
1132,789	-14,9	-3,495
1134,949	-14,92	-3,496
1137,097	-14,9	-3,496
1139,244	-14,88	-3,494
1141,398	-14,86	-3,494
1143,552	-14,82	-3,492
1145,706	-14,82	-3,491
1147,848	-14,72	-3,487
1150,008	-14,76	-3,489
1152,156	-14,76	-3,49
1154,31	-14,78	-3,49
1156,469	-14,72	-3,488
1158,623	-14,62	-3,486
1160,765	-14,42	-3,475
1162,919	-14,3	-3,473
1165,073	-14,28	-3,466
1167,233	-14,36	-3,467
1169,393	-14,26	-3,468
1171,541	-13,7	-3,457
1173,7	-14,02	-3,456
1175,842	-13,56	-3,444
1177,996	-13,82	-3,446
1180,144	-13,32	-3,438
1182,304	-13,56	-3,443
1184,458	-13,24	-3,433
1186,606	-13,4	-3,441
1188,76	-13,6	-3,438
1190,908	-13,08	-3,418
1193,061	-13	-3,422
1195,215	-12,8	-3,426
1197,363	-12,2	-3,392
1199,517	-13,24	-3,426
1201,671	-12,66	-3,406
1203,825	-12,74	-3,421
1205,979	-12,34	-3,417
1208,127	-13,04	-3,42
1210,28	-12,08	-3,414
1212,434	-12,44	-3,405
1214,588	-12,64	-3,4
1216,748	-12,96	-3,41
1218,896	-12,44	-3,408
1221,044	-11,72	-3,407
1223,192	-12,48	-3,392
1225,339	-11,8	-3,384
1227,493	-12,28	-3,387
1229,635	-11,58	-3,368
1231,783	-11,28	-3,352
1233,931	-11,26	-3,314
1236,079	-9,92	-3,253
1238,239	-10,1	-3,255
1240,387	-9,94	-3,238
1242,529	-9,86	-3,192
1244,682	-9,7	-3,207
1246,83	-9,84	-3,212
1248,984	-10,16	-3,202
1251,132	-9,64	-3,144
1253,286	-9,7	-3,169
1255,428	-8,88	-3,124
1257,576	-8,4	-3,039
1259,736	-8,64	-3,052
1261,895	-8,88	-3,065
1264,037	-7,58	-2,914
1266,203	-9,08	-3,058
1268,351	-8,62	-3,006
1270,511	-8,14	-2,981
1272,659	-8,06	-2,982
1274,813	-8,1	-3,039
1276,961	-7,98	-3,003
1279,115	-7,36	-2,948
1281,262	-7,64	-2,89
1283,41	-7,86	-2,94
1285,558	-6,78	-2,866
1287,718	-7,44	-2,874
1289,872	-7,42	-2,9
1292,02	-7,16	-2,873
1294,186	-8,3	-2,964
1296,333	-7,8	-2,96
1298,487	-7,9	-3,033
1300,641	-8,56	-2,989
1302,795	-7,82	-2,983
1304,949	-8,32	-3,038
1307,097	-7,26	-2,924
1309,263	-8,2	-2,987
1311,411	-7,48	-2,978
1313,564	-8,24	-2,961
1315,718	-7,68	-2,991
1317,866	-7,72	-2,912
1320,02	-7,26	-2,857
1322,162	-7,1	-2,802
1324,316	-7,02	-2,832
1326,464	-6,84	-2,856
1328,624	-6,98	-2,793
1330,771	-6,56	-2,836
1332,925	-7,22	-2,883
1335,073	-7,02	-2,863
1337,221	-7,44	-2,847
1339,375	-6,76	-2,863
1341,535	-7,1	-2,892
1343,689	-7,6	-2,927
1345,849	-7,76	-3,004
1347,996	-7,6	-2,983
1350,15	-7,42	-2,993
1352,298	-7,98	-2,972
1354,452	-7,3	-3,004
1356,612	-7,88	-3,059
1358,754	-7,72	-3,02
1360,914	-7,86	-3,02
1363,062	-7,26	-2,942
1365,222	-7,8	-3,002
1367,363	-7,18	-2,908
1369,517	-7,24	-2,829
1371,665	-6,6	-2,809
1373,825	-7,12	-2,875
1375,985	-7,28	-2,882
1378,145	-6,82	-2,842
1380,287	-6,2	-2,712
1382,435	-5,6	-2,707
1384,582	-5,96	-2,67
1386,736	-6,64	-2,749
1388,89	-6,36	-2,749
1391,038	-6,26	-2,723
1393,186	-6,2	-2,728
1395,334	-6,02	-2,707
1397,482	-6,08	-2,704
1399,63	-6,06	-2,721
1401,789	-5,74	-2,733
1403,943	-7,04	-2,897
1406,091	-6,74	-2,855
1408,239	-6,5	-2,808
1410,381	-6,3	-2,752
1412,535	-5,8	-2,687
1414,683	-5,84	-2,688
1416,831	-5,74	-2,678
1418,972	-5,04	-2,723
1421,114	-5,96	-2,673
1423,268	-5,56	-2,629
1425,422	-5,74	-2,622
1427,57	-5,38	-2,64
1429,73	-5,64	-2,673
1431,878	-5,56	-2,664
1434,038	-5,86	-2,682
1436,179	-5,82	-2,713
1438,333	-6,04	-2,656
1440,493	-5,42	-2,585
1442,641	-5,16	-2,542
1444,795	-5,08	-2,531
1446,937	-4,98	-2,497
1449,085	-4,64	-2,438
1451,233	-4,64	-2,424
1453,38	-4,38	-2,371
1455,528	-4,44	-2,342
1457,688	-3,78	-2,295
1459,842	-3,58	-2,197
1462,002	-3,78	-2,232
1464,15	-3,8	-2,218
1466,298	-3,36	-2,142
1468,452	-3,36	-2,067
1470,599	-2,56	-1,989
1472,759	-2,76	-1,991
1474,907	-2,76	-2,007
1477,061	-3,1	-2,048
1479,209	-2,96	-2,022
1481,357	-2,96	-2,018
1483,505	-3,1	-2,006
1485,659	-2,38	-1,937
1487,813	-2,58	-1,931
1489,966	-2,36	-1,914
1492,114	-2,54	-1,958
1494,268	-2,9	-1,994
1496,416	-2,74	-1,957
1498,57	-3,3	-2,079
1500,718	-2,92	-2,058
1502,866	-2,36	-1,927
1505,02	-2,2	-1,828
1507,173	-1,78	-1,753
1509,339	-2,02	-1,818
1511,481	-2,28	-1,868
1513,635	-2,32	-1,904
1515,789	-2,34	-1,85
1517,943	-2,14	-1,844
1520,079	-1,84	-1,746
1522,233	-1,64	-1,682
1524,38	-1,6	-1,694
1526,534	-2,1	-1,788
1528,688	-1,78	-1,739
1530,83	-1,44	-1,604
1532,978	-1,24	-1,566
1535,132	-1,36	-1,619
1537,292	-1,42	-1,638
1539,434	-1,4	-1,592
1541,587	-1,22	-1,596
1543,741	-1,04	-1,58
1545,895	-1,04	-1,509
1548,043	-0,5	-1,467
1550,203	-0,72	-1,512
1552,351	-0,86	-1,439
1554,505	-0,66	-1,437
1556,659	-0,64	-1,451
1558,806	-0,7	-1,378
1560,948	-0,3	-1,333
1563,102	0,02	-1,321
1565,262	-0,54	-1,446
1567,41	-0,34	-1,356
1569,558	0,06	-1,272
1571,712	-0,06	-1,287
1573,86	0,26	-1,196
1576,013	0,26	-1,222
1578,155	0,76	-1,119
1580,315	0,78	-1,169
1582,475	0,52	-1,139
1584,641	0,76	-1,182
1586,783	0,7	-1,073
1588,937	0,72	-1,083
1591,091	0,96	-1,086
1593,251	0,56	-1,153
1595,398	0,72	-1,156
1597,552	0,7	-1,067
1599,706	1,14	-0,992
1601,86	1,4	-0,991
1604,008	1,14	-0,981
1606,156	1,86	-0,901
1608,316	2,16	-0,835
1610,476	2,14	-0,821
1612,617	2,9	-0,716
1614,771	2,68	-0,726
1616,919	2,92	-0,685
1619,067	2,98	-0,622
1621,221	2,98	-0,647
1623,381	2,5	-0,692
1625,547	2,18	-0,773
1627,695	2,64	-0,762
1629,842	2,38	-0,731
1631,996	2,62	-0,726
1634,15	2,4	-0,735
1636,304	2,44	-0,76
1638,446	2,98	-0,752
1640,606	1,92	-0,796
1642,754	2,98	-0,713
1644,902	2,68	-0,681
1647,043	2,94	-0,631
1649,203	2,32	-0,697
1651,351	2,94	-0,702
1653,511	2,9	-0,689
1655,653	2,86	-0,66
1657,807	3,24	-0,642
1659,967	2,66	-0,692
1662,121	2,84	-0,628
1664,268	3,62	-0,565
1666,416	4,1	-0,47
1668,576	3,88	-0,541
1670,718	3,48	-0,496
1672,878	3,88	-0,487
1675,032	4,16	-0,449
1677,186	3,52	-0,528
1679,328	4,06	-0,44
1681,481	3,84	-0,482
1683,635	4,06	-0,432
1685,795	4,32	-0,444
1687,943	4,08	-0,468
1690,103	3,48	-0,517
1692,257	3,14	-0,516
1694,405	4,38	-0,394
1696,553	4,5	-0,33
1698,7	4,72	-0,194
1700,866	4,72	-0,316
1703,008	4,72	-0,221
1705,174	4,66	-0,21
1707,328	4,72	-0,135
1709,482	4,72	-0,021
1711,624	4,72	0
1713,784	4,72	0
1715,931	4,72	0
1718,079	4,72	-0,001
1720,221	4,74	-0,001
1722,375	4,74	-0,001
1724,535	4,74	-0,001
1726,683	4,76	-0,001
1728,837	4,76	-0,001
1730,985	4,76	-0,001
1733,132	4,76	-0,001
1735,28	4,76	-0,001
1737,422	4,76	-0,002
1739,576	4,76	-0,002
1741,718	4,76	-0,002
1743,866	4,76	-0,002
1746,02	4,76	-0,002
1748,174	4,76	-0,002
1750,328	4,78	-0,003
1752,481	4,78	-0,004
1754,629	4,78	-0,004
1756,771	4,76	-0,005
1758,925	4,76	-0,006
1761,073	4,76	-0,009
1763,221	4,76	-0,008
1765,375	4,72	-0,013
1767,523	4,72	-0,013
1769,682	4,7	-0,016
1771,824	4,64	-0,016
1773,99	4,7	-0,017
1776,138	4,7	-0,016
1778,28	4,64	-0,023
1780,434	4,6	-0,026
1782,588	4,56	-0,024
1784,736	4,62	-0,026
1786,877	4,52	-0,03
1789,025	3,88	-0,043
1791,167	4,3	-0,05
1793,315	4,18	-0,058
1795,457	4,06	-0,071
1797,611	4,2	-0,068
1799,765	4,18	-0,064
1801,919	3,98	-0,074
1804,066	3,8	-0,083
1806,226	4,06	-0,067
1808,38	4,1	-0,06
1810,516	3,92	-0,081
1812,682	4,04	-0,07
1814,836	4,16	-0,07
1816,99	4,18	-0,061
1819,132	3,9	-0,088
1821,285	3,88	-0,077
1823,439	4,06	-0,075
1825,593	3,76	-0,093
1827,735	3,44	-0,131
1829,895	3,58	-0,122
1832,043	3,42	-0,134
1834,203	3,28	-0,126
1836,351	3,46	-0,14
1838,504	3,32	-0,134
1840,652	3,54	-0,14
1842,8	3	-0,156
1844,96	3,24	-0,142
1847,102	2,96	-0,182
1849,262	3,12	-0,169
1851,41	3,1	-0,217
1853,564	2,34	-0,293
1855,705	2,4	-0,382
1857,865	2,5	-0,369
1860,013	2,18	-0,443
1862,161	1,64	-0,516
1864,315	1,96	-0,459
1866,469	2,16	-0,445
1868,611	2,18	-0,446
1870,765	2,3	-0,448
1872,919	1,84	-0,48
1875,06	1,66	-0,542
1877,22	1,64	-0,567
1879,38	1,58	-0,612
1881,534	1,46	-0,623
1883,676	1,28	-0,706
1885,836	1,34	-0,704
1887,99	1,4	-0,726
1890,144	1,54	-0,705
1892,291	1,04	-0,78
1894,451	1,26	-0,714
1896,599	1,18	-0,719
1898,741	1,08	-0,769
1900,895	1,32	-0,722
1903,043	1,32	-0,728
1905,191	1,44	-0,662
1907,351	1,58	-0,623
1909,504	1,56	-0,677
1911,658	1,32	-0,698
1913,8	0,92	-0,776
1915,948	1,26	-0,722
1918,12	1,44	-0,617
1920,268	1,6	-0,633
1922,422	1,72	-0,623
1924,582	1,7	-0,648
1926,742	1,54	-0,644
1928,889	1,56	-0,613
1931,049	1,5	-0,652
1933,209	1,74	-0,582
1935,351	1,52	-0,654
1937,505	1,58	-0,602
1939,647	1,36	-0,684
1941,807	1,32	-0,714
1943,96	1,32	-0,763
1946,108	1	-0,798
1948,268	0,76	-0,881
1950,434	0,86	-0,823
1952,588	0,88	-0,866
1954,73	0,68	-0,933
1956,89	0,74	-0,93
1959,044	0,74	-0,958
1961,191	0,7	-0,947
1963,345	0,68	-0,916
1965,505	0,84	-0,877
1967,647	0,92	-0,832
1969,813	0,98	-0,789
1971,961	1,16	-0,788
1974,127	1,58	-0,607
1976,269	1,44	-0,658
1978,422	1,48	-0,668
1980,582	1,72	-0,588
1982,724	1,52	-0,649
1984,884	1,72	-0,582
1987,044	1,82	-0,542
1989,192	1,5	-0,628
1991,346	1,6	-0,623
1993,5	1,72	-0,609
1995,659	1,7	-0,611
1997,807	1,54	-0,637
1999,961	1,44	-0,707
2002,109	1,2	-0,749
2004,257	0,96	-0,823
2006,417	1	-0,82
2008,571	0,6	-0,907
2010,719	0,44	-1,034
2012,879	0,38	-1,058
2015,032	0,4	-0,985
2017,18	-0,08	-1,238
2019,34	-0,08	-1,241
2021,5	-0,18	-1,271
2023,648	-0,6	-1,388
2025,808	-0,4	-1,317
2027,956	-0,5	-1,416
2030,098	-0,88	-1,541
2032,246	-0,72	-1,45
2034,399	-0,68	-1,462
2036,553	-0,52	-1,442
2038,701	-0,68	-1,458
2040,849	-1,04	-1,541
2043,003	-1,14	-1,611
2045,145	-1,04	-1,572
2047,299	-1,38	-1,609
2049,464	-0,9	-1,534
2051,606	-1,14	-1,606
2053,766	-0,92	-1,535
2055,908	-1,14	-1,597
2058,062	-1,26	-1,668
2060,216	-1,38	-1,738
2062,37	-2,18	-1,903
2064,518	-2,48	-2,041
2066,677	-3,04	-2,177
2068,831	-3,32	-2,183
2070,973	-3,44	-2,218
2073,133	-3,5	-2,231
2075,287	-3,84	-2,243
2077,435	-3,6	-2,258
2079,589	-3,74	-2,223
2081,749	-3,42	-2,15
2083,902	-3,32	-2,168
2086,05	-2,7	-2,082
2088,198	-2,6	-2,028
2090,34	-2,86	-2,078
2092,494	-2,82	-2,106
2094,642	-3,04	-2,116
2096,796	-3	-2,139
2098,944	-3,08	-2,128
2101,097	-2,9	-2,113
2103,245	-3,1	-2,128
2105,399	-3,18	-2,177
2107,547	-3,46	-2,203
2109,707	-3,58	-2,232
2111,849	-3,42	-2,288
2114,003	-3,66	-2,273
2116,157	-3,82	-2,338
2118,31	-3,5	-2,302
2120,464	-3,56	-2,25
2122,618	-3,54	-2,278
2124,766	-3,78	-2,288
2126,908	-3,52	-2,323
2129,074	-3,64	-2,317
2131,234	-3,72	-2,34
2133,382	-3,84	-2,324
2135,536	-3,94	-2,384
2137,683	-4,22	-2,394
2139,831	-4,36	-2,488
2141,979	-4,5	-2,473
2144,127	-4,28	-2,493
2146,287	-4,36	-2,511
2148,441	-5,8	-2,598
2150,595	-5,3	-2,578
2152,736	-5,66	-2,628
2154,884	-6,28	-2,696
2157,05	-5,5	-2,638
2159,192	-5,8	-2,678
2161,346	-5,48	-2,658
2163,506	-5,22	-2,622
2165,66	-5,6	-2,618
2167,802	-6,1	-2,696
2169,962	-6,04	-2,689
2172,103	-6,72	-2,781
2174,257	-6,42	-2,772
2176,417	-6,24	-2,754
2178,565	-6,94	-2,822
2180,725	-5,92	-2,772
2182,873	-6,98	-2,793
2185,021	-6,78	-2,835
2187,181	-8,24	-2,81
2189,334	-6,04	-2,759
2191,482	-7,8	-2,854
2193,636	-6,42	-2,813
2195,79	-6,3	-2,818
2197,944	-7,62	-2,84
2200,092	-6,94	-2,909
2202,258	-7,6	-2,873
2204,412	-7,06	-2,937
2206,565	-7,72	-2,944
2208,713	-7,78	-3,012
2210,861	-8,28	-3,028
2213,027	-7,26	-2,984
2215,187	-6,98	-2,95
2217,353	-7,8	-2,918
2219,501	-7,42	-2,939
2221,649	-8,2	-3,028
2223,808	-7,8	-2,968
2225,956	-8,66	-3,063
2228,116	-8,9	-3,119
2230,264	-8,88	-3,182
2232,418	-9,18	-3,259
2234,566	-9,18	-3,343
2236,72	-9,18	-3,395
2238,868	-9,18	-3,466
2241,027	-9,16	-3,42
2243,169	-9,18	-3,489
2245,317	-9,16	-3,486
2247,477	-9,16	-3,433
2249,631	-9,16	-3,486
2251,779	-9,16	-3,498
2253,939	-9,14	-3,497
2256,093	-9,14	-3,5
2258,246	-9,14	-3,5
2260,394	-9,14	-3,499
2262,548	-9,12	-3,499
2264,714	-9,08	-3,499
2266,856	-9,08	-3,499
2269,01	-9,08	-3,499
2271,176	-9,08	-3,499
2273,318	-9,08	-3,499
2275,472	-9,08	-3,498
2277,637	-9,08	-3,499
2279,785	-9,08	-3,499
2281,939	-9,06	-3,498
2284,099	-9,04	-3,499
2286,247	-9,04	-3,499
2288,407	-9,02	-3,499
2290,555	-9,02	-3,499
2292,709	-9,02	-3,499
2294,856	-9	-3,499
2297,01	-8,98	-3,499
2299,158	-8,98	-3,499
2301,306	-8,98	-3,499
2303,46	-8,98	-3,499
2305,602	-8,96	-3,499
2307,75	-8,96	-3,499
2309,904	-8,96	-3,499
2312,045	-8,96	-3,499
2314,217	-8,94	-3,499
2316,365	-8,94	-3,499
2318,507	-8,94	-3,499
2320,661	-8,92	-3,499
2322,815	-8,92	-3,499
2324,963	-8,92	-3,498
2327,117	-8,9	-3,498
2329,264	-8,9	-3,498
2331,406	-8,9	-3,498
2333,566	-8,88	-3,498
2335,726	-8,84	-3,499
2337,874	-8,84	-3,499
2340,028	-8,84	-3,499
2342,182	-8,82	-3,499
2344,324	-8,82	-3,499
2346,484	-8,82	-3,499
2348,631	-8,8	-3,499
2350,785	-8,78	-3,499
2352,933	-8,8	-3,499
2355,087	-8,78	-3,499
2357,229	-8,78	-3,499
2359,383	-8,78	-3,499
2361,537	-8,76	-3,499
2363,678	-8,78	-3,498
2365,838	-8,74	-3,499
2367,992	-8,74	-3,499
2370,14	-8,74	-3,499
2372,3	-8,74	-3,499
2374,448	-8,74	-3,499
2376,602	-8,72	-3,499
2378,762	-8,68	-3,499
2380,922	-8,66	-3,5
2383,063	-8,68	-3,499
2385,223	-8,66	-3,499
2387,365	-8,68	-3,499
2389,519	-8,68	-3,499
2391,685	-8,68	-3,499
2393,827	-8,68	-3,499
2395,981	-8,68	-3,499
2398,146	-8,64	-3,499
2400,3	-8,64	-3,499
2402,448	-8,66	-3,499
2404,608	-8,64	-3,499
2406,756	-8,62	-3,499
2408,91	-8,6	-3,499
2411,058	-8,6	-3,499
2413,206	-8,62	-3,499
2415,353	-8,6	-3,499
2417,501	-8,62	-3,499
2419,649	-8,6	-3,499
2421,803	-8,62	-3,499
2423,957	-8,6	-3,499
2426,105	-8,6	-3,498
2428,253	-8,6	-3,498
2430,401	-8,6	-3,499
2432,555	-8,58	-3,498
2434,708	-8,58	-3,498
2436,856	-8,58	-3,498
2439,01	-8,56	-3,499
2441,164	-8,56	-3,499
2443,312	-8,56	-3,499
2445,478	-8,54	-3,499
2447,638	-8,54	-3,499
2449,78	-8,54	-3,498
2451,939	-8,52	-3,498
2454,099	-8,52	-3,499
2456,241	-8,52	-3,498
2458,395	-8,52	-3,498
2460,537	-8,5	-3,498
2462,691	-8,5	-3,498
2464,845	-8,5	-3,498
2466,987	-8,5	-3,499
2469,146	-8,48	-3,499
2471,3	-8,48	-3,499
2473,442	-8,48	-3,499
2475,596	-8,46	-3,498
2477,744	-8,46	-3,498
2479,898	-8,44	-3,499
2482,058	-8,44	-3,499
2484,2	-8,44	-3,499
2486,347	-8,42	-3,499
2488,507	-8,42	-3,499
2490,649	-8,4	-3,499
2492,797	-8,42	-3,499
2494,951	-8,4	-3,498
2497,093	-8,4	-3,498
2499,241	-8,38	-3,498
2501,401	-8,38	-3,499
2503,542	-8,38	-3,498
2505,696	-8,36	-3,498
2507,844	-8,34	-3,499
2509,992	-8,34	-3,499
2512,146	-8,32	-3,499
2514,3	-8,3	-3,499
2516,448	-8,3	-3,499
2518,602	-8,28	-3,499
2520,744	-8,28	-3,499
2522,903	-8,24	-3,499
2525,063	-8,22	-3,499
2527,205	-8,24	-3,499
2529,371	-8,2	-3,499
2531,519	-8,2	-3,499
2533,679	-8,2	-3,499
2535,833	-8,18	-3,499
2537,981	-8,18	-3,499
2540,134	-8,2	-3,499
2542,294	-8,16	-3,499
2544,436	-8,18	-3,499
2546,584	-8,14	-3,499
2548,744	-8,14	-3,499
2550,892	-8,14	-3,499
2553,046	-8,12	-3,499
2555,2	-8,14	-3,498
2557,341	-8,12	-3,498
2559,495	-8,12	-3,498
2561,661	-8,1	-3,498
2563,809	-8,1	-3,497
2565,963	-8,1	-3,497
2568,111	-8,08	-3,497
2570,259	-8,06	-3,497
2572,419	-8,06	-3,498
2574,566	-8,06	-3,498
2576,72	-8,06	-3,498
2578,874	-8,04	-3,498
2581,022	-8,04	-3,498
2583,182	-8,02	-3,498
2585,336	-8,02	-3,497
2587,478	-8	-3,496
2589,638	-8	-3,496
2591,785	-8	-3,495
2593,939	-7,98	-3,494
2596,093	-7,96	-3,495
2598,247	-7,96	-3,495
2600,401	-7,96	-3,496
2602,549	-7,94	-3,494
2604,691	-7,92	-3,491
2606,845	-7,94	-3,494
2609,01	-7,92	-3,494
2611,152	-7,9	-3,492
2613,306	-7,9	-3,492
2615,466	-7,9	-3,493
2617,608	-7,9	-3,494
2619,762	-7,9	-3,493
2621,922	-7,88	-3,494
2624,064	-7,82	-3,485
2626,211	-7,84	-3,488
2628,353	-7,74	-3,486
2630,507	-7,56	-3,466
2632,655	-7,24	-3,462
2634,809	-7,5	-3,465
2636,969	-7,52	-3,465
2639,123	-7,54	-3,463
2641,271	-7,42	-3,46
2643,425	-7,3	-3,462
2645,578	-7,54	-3,463
2647,726	-7,3	-3,463
2649,88	-7,28	-3,442
2652,022	-6,74	-3,43
2654,176	-7,18	-3,434
2656,336	-7,06	-3,45
2658,49	-7,24	-3,461
2660,65	-7,46	-3,473
2662,797	-7,52	-3,473
2664,945	-7,5	-3,475
2667,093	-7,46	-3,476
2669,241	-7,6	-3,482
2671,389	-7,54	-3,48
2673,531	-7,5	-3,479
2675,679	-7,52	-3,476
2677,833	-7,42	-3,476
2679,98	-7,54	-3,479
2682,134	-7,58	-3,48
2684,288	-7,58	-3,484
2686,436	-7,62	-3,485
2688,59	-7,6	-3,486
2690,744	-7,64	-3,489
2692,892	-7,62	-3,489
2695,052	-7,64	-3,492
2697,199	-7,66	-3,493
2699,353	-7,68	-3,493
2701,501	-7,66	-3,492
2703,643	-7,64	-3,492
2705,791	-7,64	-3,491
2707,939	-7,6	-3,491
2710,093	-7,64	-3,491
2712,241	-7,58	-3,49
2714,382	-7,6	-3,49
2716,536	-7,6	-3,491
2718,678	-7,6	-3,489
2720,844	-7,62	-3,492
2722,992	-7,6	-3,49
2725,134	-7,5	-3,489
2727,282	-7,54	-3,486
2729,436	-7,5	-3,486
2731,577	-7,54	-3,486
2733,731	-7,56	-3,486
2735,879	-7,54	-3,486
2738,027	-7,52	-3,488
2740,181	-7,54	-3,488
2742,329	-7,46	-3,487
2744,489	-7,56	-3,49
2746,637	-7,46	-3,49
2748,79	-7,52	-3,49
2750,938	-7,48	-3,488
2753,086	-7,52	-3,492
2755,24	-7,52	-3,493
2757,394	-7,5	-3,493
2759,542	-7,48	-3,492
2761,684	-7,48	-3,491
2763,838	-7,48	-3,492
2765,985	-7,46	-3,491
2768,145	-7,48	-3,493
2770,311	-7,48	-3,496
2772,453	-7,48	-3,495
2774,607	-7,48	-3,496
2776,755	-7,46	-3,496
2778,909	-7,46	-3,496
2781,057	-7,44	-3,496
2783,192	-7,44	-3,494
2785,346	-7,44	-3,496
2787,506	-7,46	-3,497
2789,654	-7,44	-3,498
2791,802	-7,44	-3,498
2793,95	-7,44	-3,498
2796,098	-7,44	-3,498
2798,246	-7,42	-3,498
2800,399	-7,42	-3,498
2802,547	-7,42	-3,498
2804,707	-7,4	-3,499
2806,849	-7,4	-3,498
2808,997	-7,4	-3,498
2811,139	-7,4	-3,498
2813,293	-7,4	-3,498
2815,453	-7,4	-3,498
2817,601	-7,38	-3,498
2819,76	-7,4	-3,499
2821,902	-7,38	-3,499
2824,056	-7,38	-3,499
2826,21	-7,34	-3,499
2828,352	-7,36	-3,499
2830,506	-7,34	-3,499
2832,654	-7,36	-3,499
2834,802	-7,34	-3,499
2836,955	-7,34	-3,499
2839,097	-7,36	-3,499
2841,257	-7,34	-3,499
2843,417	-7,32	-3,5
2845,559	-7,32	-3,5
2847,707	-7,3	-3,5
2849,855	-7,3	-3,486
2852,003	-7,3	-3,492
2854,162	-7,28	-3,439
2856,304	-7,26	-3,399
2858,458	-7,26	-3,31
2860,606	-6,74	-3,149
2862,76	-6,34	-2,999
2864,92	-5,38	-2,844
2867,062	-5,1	-2,884
2869,21	-6,42	-3,063
2871,351	-6,26	-2,968
2873,505	-5,16	-2,892
2875,659	-5,7	-2,903
2877,813	-5,24	-2,863
2879,967	-4,7	-2,794
2882,121	-4,42	-2,773
2884,275	-4,52	-2,722
2886,435	-4,28	-2,692
2888,582	-3,9	-2,665
2890,736	-3,86	-2,593
2892,89	-3,1	-2,434
2895,032	-3,28	-2,474
2897,18	-4	-2,606
2899,328	-3,22	-2,483
2901,482	-2,44	-2,283
2903,636	-2,1	-2,103
2905,778	-1,98	-2,058
2907,931	-1,44	-1,878
2910,091	-1,1	-1,743
2912,233	-0,98	-1,686
2914,393	-0,56	-1,488
2916,541	-0,2	-1,365
2918,689	-0,06	-1,252
2920,849	0,3	-1,032
2922,991	0,48	-0,923
2925,138	0,6	-0,843
2927,298	0,74	-0,782
2929,446	0,8	-0,706
2931,588	0,84	-0,653
2933,748	0,96	-0,622
2935,908	1,14	-0,524
2938,056	1,18	-0,475
2940,21	1,46	-0,376
2942,357	1,72	-0,338
2944,505	1,6	-0,338
2946,659	1,76	-0,306
2948,807	1,72	-0,29
2950,955	1,94	-0,201
2953,115	2,06	-0,174
2955,257	2,44	-0,164
2957,411	2,4	-0,142
2959,564	2,7	-0,115
2961,718	3,16	-0,079
2963,872	3,08	-0,069
2966,014	3,12	-0,064
2968,168	3,18	-0,066
2970,334	3,38	-0,047
2972,488	3,54	-0,037
2974,642	3,64	-0,031
2976,789	3,58	-0,028
2978,937	3,76	-0,021
2981,097	3,8	-0,015
2983,245	3,78	-0,015
2985,405	3,8	-0,012
2987,547	3,8	-0,014
2989,701	3,82	-0,013
2991,855	3,8	-0,012
2993,996	3,84	-0,011
2996,156	3,84	-0,009
2998,298	3,84	-0,009
3000,452	3,8	-0,009
3002,612	3,84	-0,006
3004,754	3,84	-0,007
3006,914	3,84	-0,006
3009,068	3,86	-0,003
3011,227	3,86	-0,002
3013,381	3,86	-0,003
3015,523	3,84	-0,004
3017,683	3,86	-0,003
3019,831	3,86	-0,003
3021,985	3,84	-0,003
3024,139	3,86	-0,003
3026,287	3,84	-0,003
3028,446	3,84	-0,002
3030,588	3,84	-0,002
3032,748	3,86	-0,002
3034,902	3,84	-0,002
3037,044	3,84	-0,002
3039,204	3,84	-0,002
3041,352	3,86	-0,001
3043,5	3,84	-0,001
3045,66	3,84	-0,001
3047,801	3,84	-0,001
3049,955	3,84	-0,001
3052,103	3,84	-0,001
3054,245	3,82	-0,001
3056,405	3,82	-0,001
3058,553	3,82	-0,001
3060,707	3,82	-0,001
3062,855	3,82	0
3065,002	3,82	-0,001
3067,162	3,82	-0,001
3069,31	3,82	-0,001
3071,47	3,82	-0,001
3073,618	3,82	-0,001
3075,76	3,82	-0,001
3077,914	3,8	-0,001
3080,056	3,8	-0,001
3082,209	3,82	-0,001
3084,363	3,8	-0,001
3086,505	3,8	-0,001
3088,659	3,8	-0,001
3090,819	3,8	0
3092,967	3,8	0
3095,127	3,8	-0,003
3097,275	3,78	-0,03
3099,422	3,8	-0,052
3101,576	3,8	-0,137
3103,724	3,78	-0,141
3105,884	3,78	-0,255
3108,026	3,78	-0,196
3110,186	3,3	-0,304
3112,34	3,44	-0,398
3114,488	2,6	-0,512
3116,653	1,6	-0,73
3118,801	1,96	-0,71
3120,955	1,5	-0,777
3123,103	3,04	-0,517
3125,257	2,28	-0,601
3127,405	1,48	-0,72
3129,547	1,56	-0,722
3131,707	0,74	-0,938
3133,872	0,7	-1,033
3136,014	0,78	-1,004
3138,168	0,58	-1,066
3140,316	0,56	-1,124
3142,482	0,46	-1,18
3144,636	0,34	-1,13
3146,778	0,42	-1,171
3148,932	0	-1,312
3151,085	-0,36	-1,471
3153,233	-0,4	-1,584
3155,387	-0,86	-1,779
3157,529	-0,68	-1,681
3159,683	-0,94	-1,877
3161,837	-0,96	-1,95
3163,979	-0,82	-1,921
3166,139	-0,82	-2,013
3168,286	-1,22	-2,035
3170,434	-1,2	-2,078
3172,594	-1,46	-2,224
3174,736	-1,08	-2,163
3176,896	-1,46	-2,219
3179,038	-1,36	-2,173
3181,192	-1,56	-2,267
3183,334	-1,46	-2,228
3185,488	-1,56	-2,242
3187,641	-1,66	-2,258
3189,789	-1,54	-2,247
3191,943	-1,66	-2,273
3194,091	-1,76	-2,343
3196,233	-1,96	-2,468
3198,393	-2,36	-2,619
3200,541	-2,78	-2,726
3202,701	-3,4	-2,926
3204,842	-3,8	-3,05
3206,996	-4	-3,176
3209,15	-4,54	-3,331
3211,298	-5,06	-3,36
3213,452	-5,58	-3,399
3215,6	-5,98	-3,414
3217,748	-5,72	-3,431
3219,902	-6,32	-3,448
3222,055	-6,36	-3,46
3224,203	-6,44	-3,461
3225,535	3,74	-0,001