File: ensaios_Ciclicos/_newS/_3G50/entrada/_4.txt
Time (s)	Load (N)	Displacement (mm)
0	-0,14	-0,03
2,164	0,74	0
4,372	1	-0,25
6,508	1,2	-0,001
8,644	1,36	-0,001
10,78	1,48	-0,001
12,916	1,6	-0,001
15,052	1,7	-0,001
17,193	1,78	-0,002
19,329	1,86	-0,003
21,471	1,94	-0,004
23,607	2	-0,006
25,743	2,06	-0,008
27,879	2,08	-0,012
30,015	2,12	-0,015
32,157	2,14	-0,018
34,298	2,2	-0,016
36,435	2,2	-0,021
38,57	2,04	-0,03
40,712	2,14	-0,029
42,854	2,26	-0,028
45,002	2,28	-0,029
47,138	2,18	-0,04
49,274	1,98	-0,059
51,415	2,02	-0,065
53,557	1,68	-0,084
55,699	1,74	-0,093
57,847	1,12	-0,123
59,989	0,68	-0,181
62,138	0,62	-0,2
64,279	0,98	-0,176
66,427	0,5	-0,165
68,562	0,38	-0,176
70,704	0,38	-0,218
72,84	0,52	-0,24
74,988	0,2	-0,244
77,13	0,3	-0,254
79,266	-0,36	-0,383
81,402	-1,22	-0,554
83,55	-1,46	-0,6
85,686	-2,42	-0,788
87,828	-2,92	-0,918
89,987	-3,22	-0,958
92,129	-3,98	-1,056
94,277	-3,42	-1,072
96,419	-4,24	-1,18
98,561	-5,34	-1,328
100,703	-6,56	-1,462
102,851	-6,2	-1,546
104,986	-7,32	-1,696
107,122	-7,86	-1,76
109,27	-7,38	-1,787
111,406	-9,32	-1,963
113,548	-10,92	-2,114
115,696	-9,52	-2,065
117,838	-9,58	-2,089
119,986	-10,44	-2,142
122,127	-12	-2,278
124,269	-10,46	-2,232
126,417	-10,5	-2,231
128,565	-11,72	-2,316
130,707	-12,68	-2,377
132,855	-11,22	-2,313
134,991	-11,16	-2,273
137,133	-11,26	-2,344
139,275	-11,26	-2,297
141,416	-11,2	-2,337
143,552	-12,62	-2,498
145,712	-12,84	-2,57
147,848	-14,44	-2,71
150,002	-15,2	-2,805
152,15	-15,84	-2,911
154,298	-16,7	-3
156,439	-17,64	-3,073
158,593	-17,54	-3,134
160,735	-18,08	-3,18
162,883	-18,34	-3,161
165,025	-17,3	-3,132
167,173	-17,72	-3,175
169,327	-17,98	-3,214
171,469	-18,28	-3,369
173,629	-18,24	-3,302
175,764	-18,24	-3,387
177,924	-18,22	-3,388
180,066	-18,24	-3,5
182,208	-18,24	-3,5
184,356	-18,22	-3,5
186,51	-18,22	-3,5
188,652	-18,22	-3,499
190,794	-18,22	-3,499
192,947	-18,2	-3,499
195,095	-18,16	-3,499
197,249	-18,16	-3,499
199,403	-18,12	-3,499
201,551	-18,12	-3,499
203,711	-18,1	-3,499
205,865	-18,06	-3,5
208,012	-18,08	-3,5
210,154	-18,06	-3,499
212,302	-18,04	-3,499
214,456	-18,06	-3,499
216,61	-18,06	-3,499
218,764	-18,04	-3,498
220,918	-18,04	-3,498
223,066	-18,02	-3,499
225,226	-17,98	-3,499
227,373	-17,98	-3,499
229,521	-17,96	-3,499
231,675	-17,96	-3,499
233,835	-17,94	-3,499
235,983	-17,94	-3,498
238,137	-17,92	-3,498
240,279	-17,92	-3,498
242,427	-17,9	-3,498
244,592	-17,88	-3,498
246,74	-17,86	-3,497
248,9	-17,86	-3,497
251,054	-17,84	-3,497
253,214	-17,84	-3,498
255,362	-17,82	-3,496
257,522	-17,8	-3,496
259,67	-17,78	-3,495
261,811	-17,74	-3,492
263,959	-17,72	-3,487
266,101	-17,64	-3,485
268,255	-17,64	-3,486
270,403	-17,56	-3,482
272,551	-17,56	-3,483
274,693	-17,32	-3,475
276,847	-17,28	-3,466
278,989	-16,7	-3,446
281,136	-15,88	-3,435
283,284	-15,82	-3,41
285,438	-15,96	-3,396
287,586	-14,92	-3,367
289,734	-13,88	-3,298
291,876	-12,54	-3,201
294,024	-12,96	-3,16
296,177	-12,86	-3,16
298,331	-11,9	-3,051
300,479	-11,56	-2,982
302,633	-11,22	-2,965
304,793	-11,44	-3,031
306,953	-10,64	-2,976
309,089	-10,12	-2,845
311,243	-9,2	-2,713
313,396	-9,9	-2,734
315,538	-9,84	-2,698
317,698	-9,24	-2,636
319,858	-9,14	-2,586
322	-7,9	-2,44
324,154	-7,06	-2,332
326,302	-6,4	-2,21
328,456	-6,02	-2,066
330,609	-4,74	-1,948
332,763	-4,3	-1,787
334,911	-2,96	-1,597
337,065	-2,7	-1,484
339,213	-1,76	-1,362
341,367	-1,04	-1,255
343,515	-1,34	-1,181
345,669	0,18	-1,02
347,823	-0,02	-1,007
349,976	0,08	-0,922
352,13	1,08	-0,836
354,278	1,12	-0,781
356,432	1,74	-0,751
358,592	1,6	-0,748
360,74	2,36	-0,63
362,9	2,1	-0,613
365,06	2,08	-0,646
367,207	2,36	-0,61
369,367	2,38	-0,602
371,521	2,7	-0,578
373,663	3,42	-0,39
375,817	3,8	-0,297
377,959	4,06	-0,146
380,107	4,1	-0,108
382,255	4,1	-0,012
384,408	4,12	-0,058
386,556	4,1	-0,015
388,71	4,12	0
390,864	4,14	-0,003
393,012	4,14	-0,001
395,16	4,16	0
397,302	4,18	-0,001
399,45	4,18	-0,001
401,597	4,2	-0,001
403,757	4,18	-0,001
405,899	4,2	-0,001
408,053	4,2	-0,001
410,201	4,22	-0,001
412,355	4,22	-0,001
414,515	4,24	-0,001
416,669	4,24	-0,002
418,822	4,28	-0,002
420,97	4,28	-0,003
423,124	4,28	-0,002
425,272	4,28	-0,003
427,426	4,3	-0,002
429,574	4,28	-0,002
431,728	4,3	-0,002
433,882	4,3	-0,002
436,029	4,3	-0,002
438,183	4,3	-0,002
440,337	4,32	-0,003
442,491	4,34	-0,004
444,645	4,34	-0,004
446,805	4,36	-0,004
448,965	4,36	-0,005
451,113	4,34	-0,006
453,261	4,34	-0,008
455,414	4,32	-0,011
457,562	4,32	-0,012
459,71	4,32	-0,014
461,87	4,36	-0,01
464,018	4,34	-0,011
466,172	4,36	-0,014
468,32	4,32	-0,014
470,474	4,34	-0,016
472,639	4,3	-0,018
474,793	4,22	-0,024
476,947	4,32	-0,019
479,095	4,32	-0,015
481,249	4,36	-0,016
483,397	4,3	-0,022
485,551	4,28	-0,026
487,699	4,32	-0,026
489,858	4,06	-0,029
492,006	4,28	-0,028
494,154	4,18	-0,032
496,296	4,16	-0,035
498,45	4,16	-0,036
500,598	4,22	-0,031
502,746	4,24	-0,031
504,912	4,24	-0,033
507,059	4,02	-0,04
509,213	4,02	-0,05
511,361	3,98	-0,052
513,515	4,06	-0,045
515,663	4,14	-0,053
517,817	3,82	-0,061
519,971	3,78	-0,058
522,125	3,94	-0,06
524,266	3,76	-0,082
526,414	3,44	-0,085
528,568	3,84	-0,072
530,716	3,4	-0,076
532,876	3,38	-0,098
535,024	3,44	-0,101
537,178	3,52	-0,084
539,326	3,3	-0,113
541,473	3,34	-0,106
543,621	3,22	-0,127
545,781	3,48	-0,114
547,929	2,26	-0,114
550,077	3,1	-0,119
552,231	3,1	-0,114
554,379	2,92	-0,128
556,533	3,66	-0,086
558,692	3	-0,098
560,876	3,9	-0,066
563,03	3,78	-0,072
565,19	4	-0,061
567,338	3,98	-0,05
569,486	4,12	-0,054
571,64	4,06	-0,055
573,794	3,74	-0,078
575,947	3,52	-0,088
578,107	4	-0,062
580,261	4,36	-0,035
582,409	4,36	-0,028
584,557	4,42	-0,024
586,705	4,44	-0,023
588,853	4,5	-0,016
591,013	4,54	-0,011
593,166	4,58	-0,009
595,314	4,56	-0,008
597,462	4,58	-0,008
599,616	4,58	-0,006
601,764	4,58	-0,006
603,912	4,6	-0,004
606,054	4,6	-0,004
608,202	4,6	-0,003
610,368	4,58	-0,002
612,515	4,58	-0,001
614,663	4,56	-0,001
616,823	4,56	-0,001
618,983	4,54	0
621,131	4,54	0
623,285	4,54	0
625,427	4,56	-0,004
627,575	4,54	-0,057
629,722	4,52	-0,208
631,87	4,22	-0,292
634,024	4,14	-0,29
636,184	4,1	-0,335
638,338	3,88	-0,405
640,492	4,22	-0,322
642,64	3,86	-0,415
644,8	3,16	-0,545
646,947	2,26	-0,701
649,095	1,52	-0,782
651,249	1,42	-0,837
653,391	1,92	-0,798
655,539	1,1	-0,842
657,699	0,42	-1,024
659,847	0,76	-0,971
661,995	0,58	-0,962
664,16	0,5	-0,989
666,32	0,52	-1,012
668,48	0,3	-1,032
670,64	-0,02	-1,07
672,8	-0,74	-1,259
674,948	-0,76	-1,264
677,102	-0,74	-1,275
679,25	-0,12	-1,141
681,403	0,58	-1,007
683,551	1,12	-0,912
685,705	1,38	-0,967
687,859	0,38	-1,012
690,007	0,6	-1,061
692,161	-0,42	-1,176
694,309	0,06	-1,107
696,451	1,5	-0,892
698,604	1,44	-0,827
700,752	1,68	-0,802
702,9	2,52	-0,664
705,06	2,04	-0,789
707,208	1,66	-0,853
709,362	0,88	-0,99
711,51	0,64	-1,039
713,664	0,08	-1,156
715,812	0,1	-1,06
717,965	0,08	-1,101
720,113	-0,48	-1,208
722,273	-0,44	-1,152
724,421	-0,4	-1,18
726,581	-0,9	-1,326
728,723	-0,94	-1,241
730,877	-0,38	-1,204
733,03	-0,54	-1,177
735,178	-0,14	-1,198
737,332	-0,22	-1,139
739,486	-0,36	-1,196
741,634	-0,12	-1,139
743,782	0,1	-1,107
745,93	0,38	-1,012
748,078	0,66	-0,97
750,22	0,14	-1,132
752,373	-0,6	-1,206
754,527	-0,92	-1,386
756,675	-1,6	-1,435
758,823	-1,34	-1,467
760,983	-2,16	-1,598
763,125	-2,5	-1,663
765,297	-3,64	-1,907
767,451	-4,8	-2,072
769,604	-4,88	-2,192
771,746	-4,9	-2,279
773,906	-6,18	-2,437
776,054	-6,48	-2,489
778,214	-7,16	-2,556
780,374	-7,12	-2,61
782,522	-6,96	-2,574
784,676	-7,64	-2,616
786,835	-7,6	-2,581
788,983	-7,34	-2,62
791,143	-6,64	-2,467
793,297	-5,62	-2,296
795,445	-5,12	-2,216
797,593	-4,82	-2,154
799,741	-4,58	-2,212
801,895	-5,76	-2,34
804,042	-5,44	-2,281
806,196	-5,5	-2,306
808,35	-6,22	-2,375
810,516	-6,82	-2,476
812,664	-6,66	-2,521
814,818	-6,94	-2,604
816,978	-8,52	-2,792
819,126	-8,24	-2,76
821,279	-8,3	-2,781
823,433	-8,24	-2,801
825,581	-8,56	-2,834
827,735	-8	-2,775
829,889	-8,4	-2,756
832,043	-9,08	-2,793
834,185	-7,2	-2,561
836,333	-7,02	-2,541
838,492	-6,44	-2,517
840,643	-6,8	-2,555
842,788	-7,66	-2,604
844,948	-7,56	-2,627
847,102	-8,54	-2,712
849,25	-8,02	-2,728
851,404	-9,3	-2,854
853,546	-8,58	-2,927
855,693	-9,56	-2,965
857,847	-11,06	-3,118
859,995	-10,8	-3,177
862,155	-11,86	-3,272
864,309	-12,4	-3,341
866,457	-13,62	-3,396
868,611	-14,58	-3,444
870,759	-14,64	-3,442
872,918	-15,2	-3,462
875,066	-15,34	-3,468
877,214	-15,4	-3,473
879,362	-15,5	-3,476
881,51	-15,58	-3,482
883,658	-15,6	-3,484
885,806	-15,64	-3,486
887,954	-15,62	-3,486
890,096	-15,62	-3,488
892,255	-15,7	-3,494
894,403	-15,72	-3,496
896,557	-15,72	-3,497
898,711	-15,7	-3,499
900,865	-15,68	-3,499
903,013	-15,68	-3,499
905,155	-15,68	-3,499
907,303	-15,68	-3,499
909,45	-15,68	-3,499
911,61	-15,68	-3,499
913,764	-15,62	-3,498
915,912	-15,62	-3,432
918,06	-15,58	-3,312
920,214	-15,5	-3,173
922,356	-15,56	-3,081
924,516	-14,64	-2,994
926,663	-13,94	-2,927
928,811	-13,98	-2,942
930,959	-12,9	-2,925
933,113	-11,88	-2,767
935,267	-11,06	-2,656
937,415	-11,12	-2,554
939,563	-9,06	-2,425
941,717	-9,92	-2,491
943,87	-9,3	-2,395
946,012	-10,28	-2,543
948,166	-11,1	-2,608
950,308	-11,74	-2,738
952,456	-12,56	-2,823
954,61	-12,28	-2,78
956,77	-11,88	-2,666
958,924	-12,42	-2,816
961,071	-12,04	-2,768
963,219	-11,5	-2,729
965,385	-11,12	-2,682
967,527	-12,68	-2,812
969,687	-12,6	-2,847
971,835	-12,72	-2,847
974,001	-10,64	-2,628
976,155	-12,14	-2,762
978,303	-13,54	-2,948
980,45	-15,46	-3,258
982,598	-15,44	-3,236
984,746	-15,48	-3,431
986,894	-15,48	-3,483
989,054	-15,46	-3,327
991,196	-15,48	-3,5
993,35	-15,48	-3,489
995,492	-15,48	-3,5
997,645	-15,48	-3,5
999,793	-15,44	-3,5
1001,959	-15,44	-3,412
1004,107	-15,5	-3,499
1006,261	-15,5	-3,499
1008,403	-15,46	-3,5
1010,557	-15,46	-3,5
1012,705	-15,52	-3,499
1014,864	-15,52	-3,498
1017,012	-15,5	-3,498
1019,16	-15,5	-3,498
1021,314	-15,48	-3,499
1023,456	-15,48	-3,498
1025,61	-15,48	-3,499
1027,764	-15,48	-3,499
1029,918	-15,46	-3,499
1032,065	-15,46	-3,499
1034,219	-15,44	-3,499
1036,373	-15,42	-3,499
1038,521	-15,48	-3,498
1040,669	-15,48	-3,496
1042,823	-15,44	-3,495
1044,971	-15,38	-3,488
1047,125	-15,28	-3,483
1049,272	-15,02	-3,46
1051,42	-13,84	-3,418
1053,574	-13,2	-3,399
1055,734	-13,74	-3,409
1057,894	-13,76	-3,398
1060,036	-13,74	-3,416
1062,19	-14,66	-3,444
1064,338	-13,96	-3,41
1066,491	-14,28	-3,428
1068,645	-13	-3,376
1070,787	-12,5	-3,367
1072,941	-12,08	-3,364
1075,089	-13,08	-3,343
1077,243	-12,36	-3,352
1079,391	-12,7	-3,328
1081,545	-11,5	-3,297
1083,698	-13,08	-3,376
1085,846	-12,92	-3,378
1088	-12,88	-3,384
1090,148	-14,12	-3,417
1092,308	-14,3	-3,421
1094,462	-14,22	-3,441
1096,61	-14	-3,434
1098,77	-14,64	-3,452
1100,911	-14,64	-3,462
1103,053	-14,64	-3,456
1105,201	-14,86	-3,465
1107,349	-15	-3,471
1109,497	-15,06	-3,475
1111,645	-15	-3,478
1113,793	-14,26	-3,474
1115,947	-15,02	-3,474
1118,107	-15,16	-3,485
1120,248	-15,2	-3,484
1122,402	-15,24	-3,489
1124,556	-15,28	-3,492
1126,698	-15,3	-3,494
1128,846	-15,32	-3,496
1131	-15,32	-3,497
1133,154	-15,32	-3,498
1135,296	-15,3	-3,497
1137,45	-15,3	-3,498
1139,603	-15,3	-3,498
1141,757	-15,28	-3,499
1143,905	-15,28	-3,499
1146,059	-15,26	-3,499
1148,213	-15,26	-3,499
1150,367	-15,22	-3,5
1152,515	-15,2	-3,494
1154,656	-15,22	-3,5
1156,816	-15,18	-3,348
1158,97	-15,14	-3,213
1161,124	-14	-3,097
1163,272	-15	-3,192
1165,414	-14,9	-3,088
1167,562	-13,5	-3,013
1169,716	-13,62	-2,992
1171,863	-13,28	-2,985
1174,005	-14,38	-3,047
1176,159	-13,96	-2,973
1178,307	-15,08	-3,274
1180,455	-15,08	-3,236
1182,603	-15,06	-3,236
1184,757	-15,08	-3,292
1186,905	-15,1	-3,5
1189,058	-15,14	-3,499
1191,218	-15,16	-3,499
1193,372	-15,16	-3,499
1195,532	-15,14	-3,499
1197,68	-15,14	-3,498
1199,828	-15,16	-3,497
1201,97	-15,14	-3,497
1204,124	-15,14	-3,498
1206,277	-15,12	-3,498
1208,431	-15,12	-3,498
1210,585	-15,1	-3,498
1212,727	-15,08	-3,498
1214,875	-15,08	-3,495
1217,035	-15,08	-3,497
1219,183	-15,08	-3,497
1221,331	-15,08	-3,494
1223,473	-15,06	-3,492
1225,62	-15,04	-3,491
1227,768	-15,06	-3,495
1229,934	-15,04	-3,497
1232,076	-15,02	-3,492
1234,224	-15,04	-3,494
1236,372	-14,94	-3,487
1238,52	-14,98	-3,487
1240,674	-14,52	-3,48
1242,821	-14,78	-3,476
1244,975	-14,7	-3,475
1247,123	-14,7	-3,47
1249,277	-14,28	-3,449
1251,425	-13,96	-3,452
1253,579	-13,66	-3,422
1255,727	-12,42	-3,36
1257,875	-12,6	-3,378
1260,016	-11,5	-3,275
1262,17	-10,22	-3,242
1264,324	-10,24	-3,167
1266,484	-10,06	-3,1
1268,632	-9	-3,032
1270,774	-8,24	-2,896
1272,928	-8,98	-2,942
1275,076	-9,46	-3,001
1277,223	-8,08	-2,886
1279,377	-8,46	-2,863
1281,537	-6,9	-2,781
1283,691	-8,34	-2,929
1285,845	-9,72	-3,076
1287,987	-8,36	-2,85
1290,141	-7,7	-2,759
1292,295	-7,22	-2,62
1294,46	-6,42	-2,562
1296,602	-5,38	-2,351
1298,75	-3,26	-1,941
1300,904	-2,64	-1,835
1303,064	-2,88	-1,853
1305,212	-1,26	-1,668
1307,354	-1,48	-1,485
1309,508	-0,36	-1,34
1311,656	-1,12	-1,431
1313,815	-0,78	-1,385
1315,963	-0,32	-1,296
1318,111	1,1	-1,004
1320,265	0,84	-1,099
1322,419	0,86	-1,022
1324,561	2,18	-0,775
1326,709	3,34	-0,638
1328,856	4,08	-0,436
1331,01	4,74	-0,383
1333,158	4,66	-0,366
1335,306	4,3	-0,431
1337,472	3,36	-0,571
1339,62	2,64	-0,73
1341,78	1,86	-0,83
1343,928	1,96	-0,884
1346,081	0,86	-1,037
1348,223	0,94	-1,065
1350,383	0,14	-1,201
1352,531	0,34	-1,069
1354,685	1,94	-0,897
1356,833	1,28	-0,926
1358,993	0,42	-1,076
1361,153	0,14	-1,2
1363,3	-0,2	-1,276
1365,454	-0,7	-1,432
1367,602	-0,96	-1,455
1369,75	-1,64	-1,547
1371,904	-1,2	-1,557
1374,052	-1,7	-1,573
1376,212	-1,78	-1,631
1378,372	-1,84	-1,621
1380,532	-2,68	-1,802
1382,673	-2,74	-1,876
1384,821	-3,04	-1,951
1386,963	-3,28	-1,908
1389,117	-3,3	-2,021
1391,277	-4,1	-2,156
1393,425	-4,08	-2,274
1395,579	-5,46	-2,406
1397,727	-5,08	-2,426
1399,874	-4,92	-2,29
1402,034	-5,66	-2,421
1404,182	-6,12	-2,597
1406,336	-7,06	-2,701
1408,49	-7,98	-2,88
1410,644	-8,64	-3,018
1412,792	-7,46	-2,844
1414,952	-8,5	-2,957
1417,117	-7,36	-2,979
1419,271	-8,82	-3,042
1421,413	-8,5	-2,965
1423,573	-9,5	-3,1
1425,739	-9,56	-3,18
1427,893	-10,48	-3,247
1430,047	-11,06	-3,318
1432,201	-10,68	-3,308
1434,354	-11,3	-3,372
1436,502	-10,14	-3,272
1438,65	-9,66	-3,129
1440,804	-7,7	-2,936
1442,958	-8,8	-3,052
1445,1	-6,62	-2,767
1447,254	-6,46	-2,655
1449,42	-5,42	-2,56
1451,573	-6,62	-2,643
1453,721	-4,86	-2,452
1455,875	-5,72	-2,532
1458,035	-5,84	-2,624
1460,195	-5,74	-2,557
1462,337	-6,1	-2,608
1464,491	-6,44	-2,628
1466,645	-7,14	-2,776
1468,792	-7,34	-2,82
1470,946	-8,1	-2,897
1473,094	-6,78	-2,761
1475,242	-6,16	-2,66
1477,384	-4,84	-2,492
1479,532	-4,68	-2,339
1481,692	-4,28	-2,23
1483,834	-3,6	-2,137
1485,981	-2,92	-1,998
1488,135	-2,72	-1,886
1490,289	-2,92	-1,965
1492,449	-2,74	-1,897
1494,597	-2,9	-1,947
1496,751	-3,2	-2,041
1498,893	-3,18	-2,017
1501,053	-3,92	-2,158
1503,213	-3,82	-2,294
1505,36	-4,62	-2,38
1507,526	-5,96	-2,561
1509,674	-6,08	-2,672
1511,828	-5,54	-2,804
1513,988	-7,64	-2,939
1516,13	-8,22	-3,027
1518,284	-9,12	-3,121
1520,449	-10,08	-3,317
1522,597	-11,44	-3,388
1524,751	-11,04	-3,407
1526,905	-11,84	-3,424
1529,059	-12,26	-3,456
1531,201	-12,4	-3,46
1533,355	-12,5	-3,473
1535,509	-12,68	-3,486
1537,651	-12,66	-3,483
1539,816	-12,68	-3,488
1541,976	-12,72	-3,494
1544,124	-12,7	-3,497
1546,272	-12,64	-3,498
1548,414	-12,62	-3,499
1550,562	-12,56	-3,499
1552,728	-12,54	-3,499
1554,87	-12,52	-3,499
1557,023	-12,44	-3,492
1559,171	-12,42	-3,309
1561,325	-12,4	-3,45
1563,473	-12,38	-3,372
1565,627	-12,32	-3,276
1567,787	-12,32	-3,257
1569,935	-12,3	-3,252
1572,077	-12,28	-3,428
1574,236	-12,26	-3,306
1576,384	-12,26	-3,333
1578,526	-12,22	-3,285
1580,68	-12,2	-3,369
1582,84	-12,18	-3,388
1584,988	-12,16	-3,359
1587,13	-12,18	-3,5
1589,278	-12,14	-3,5
1591,431	-12,12	-3,5
1593,573	-12,1	-3,5
1595,721	-12,06	-3,499
1597,887	-12,04	-3,5
1600,035	-12,02	-3,5
1602,189	-12,02	-3,5
1604,337	-11,98	-3,499
1606,491	-12	-3,499
1608,644	-12,02	-3,499
1610,792	-11,98	-3,499
1612,952	-12	-3,499
1615,106	-11,98	-3,499
1617,248	-12	-3,499
1619,402	-11,96	-3,498
1621,55	-11,94	-3,498
1623,692	-11,94	-3,498
1625,845	-11,92	-3,498
1627,999	-11,92	-3,496
1630,159	-11,92	-3,496
1632,301	-11,82	-3,494
1634,449	-11,8	-3,493
1636,597	-11,8	-3,492
1638,757	-11,78	-3,49
1640,899	-11,7	-3,485
1643,058	-11,7	-3,485
1645,2	-11,66	-3,483
1647,366	-11,64	-3,483
1649,526	-11,52	-3,48
1651,68	-11,48	-3,474
1653,828	-11,42	-3,473
1655,982	-11,38	-3,468
1658,148	-11,38	-3,475
1660,29	-10,58	-3,462
1662,449	-11,24	-3,465
1664,597	-11,02	-3,454
1666,739	-10,94	-3,452
1668,887	-10,56	-3,45
1671,035	-11,06	-3,449
1673,189	-11,02	-3,464
1675,331	-11,08	-3,453
1677,485	-11,02	-3,456
1679,638	-11,02	-3,459
1681,786	-10,9	-3,456
1683,934	-10,86	-3,456
1686,088	-10,84	-3,459
1688,23	-11	-3,454
1690,372	-10,92	-3,446
1692,526	-10,46	-3,443
1694,674	-10,72	-3,441
1696,821	-10,58	-3,436
1698,981	-10,68	-3,452
1701,135	-10,74	-3,448
1703,295	-10,58	-3,464
1705,437	-10,8	-3,458
1707,585	-10,76	-3,458
1709,739	-10,84	-3,456
1711,887	-10,74	-3,453
1714,034	-10,72	-3,451
1716,188	-10,76	-3,447
1718,336	-10,8	-3,454
1720,484	-10,16	-3,453
1722,638	-10,8	-3,46
1724,792	-10,96	-3,466
1726,928	-10,34	-3,454
1729,076	-10,62	-3,443
1731,229	-10,66	-3,451
1733,377	-10,42	-3,437
1735,531	-10,26	-3,412
1737,685	-9,24	-3,404
1739,833	-9,74	-3,398
1741,975	-9,76	-3,395
1744,123	-9,26	-3,369
1746,271	-9,04	-3,353
1748,412	-8,8	-3,328
1750,566	-9,1	-3,325
1752,72	-8,48	-3,341
1754,868	-8,72	-3,316
1757,016	-8,28	-3,276
1759,176	-8,48	-3,289
1761,324	-7,92	-3,289
1763,478	-8,36	-3,304
1765,637	-8,4	-3,349
1767,785	-9,04	-3,356
1769,933	-9,56	-3,402
1772,087	-10,04	-3,415
1774,235	-9,92	-3,414
1776,389	-9,72	-3,413
1778,537	-9,72	-3,418
1780,697	-10,22	-3,439
1782,839	-10,1	-3,43
1784,992	-9,88	-3,423
1787,146	-10,28	-3,436
1789,294	-10,24	-3,437
1791,448	-10,28	-3,447
1793,608	-10,56	-3,46
1795,75	-10,52	-3,458
1797,898	-10,48	-3,459
1800,052	-10,22	-3,461
1802,193	-10,38	-3,456
1804,347	-10,42	-3,464
1806,507	-10,74	-3,475
1808,649	-10,62	-3,474
1810,809	-10,7	-3,477
1812,975	-10,62	-3,48
1815,129	-10,62	-3,475
1817,271	-10,32	-3,467
1819,418	-10,38	-3,461
1821,578	-10,34	-3,469
1823,72	-10,38	-3,455
1825,88	-10,28	-3,46
1828,028	-10,36	-3,455
1830,182	-10,12	-3,458
1832,336	-10,16	-3,455
1834,49	-10,42	-3,462
1836,637	-10,36	-3,472
1838,791	-10,56	-3,478
1840,945	-10,62	-3,481
1843,087	-10,64	-3,484
1845,241	-10,66	-3,486
1847,395	-10,62	-3,486
1849,537	-10,62	-3,486
1851,685	-10,6	-3,485
1853,844	-10,62	-3,49
1855,986	-10,6	-3,491
1858,128	-10,62	-3,492
1860,276	-10,58	-3,491
1862,418	-10,58	-3,492
1864,578	-10,58	-3,495
1866,726	-10,56	-3,495
1868,868	-10,56	-3,494
1871,021	-10,54	-3,496
1873,163	-10,52	-3,496
1875,311	-10,54	-3,495
1877,459	-10,52	-3,495
1879,619	-10,5	-3,496
1881,767	-10,5	-3,495
1883,933	-10,5	-3,497
1886,087	-10,48	-3,497
1888,234	-10,48	-3,497
1890,382	-10,46	-3,496
1892,536	-10,44	-3,497
1894,684	-10,44	-3,497
1896,838	-10,42	-3,497
1898,992	-10,42	-3,496
1901,14	-10,42	-3,497
1903,294	-10,4	-3,497
1905,441	-10,36	-3,498
1907,595	-10,34	-3,498
1909,743	-10,34	-3,497
1911,885	-10,34	-3,496
1914,045	-10,32	-3,497
1916,193	-10,32	-3,497
1918,335	-10,3	-3,498
1920,477	-10,3	-3,498
1922,631	-10,28	-3,497
1924,772	-10,28	-3,497
1926,926	-10,28	-3,498
1929,086	-10,24	-3,499
1931,228	-10,22	-3,498
1933,388	-10,2	-3,499
1935,536	-10,18	-3,499
1937,684	-10,18	-3,499
1939,832	-10,16	-3,499
1941,991	-10,18	-3,499
1944,133	-10,12	-3,499
1946,281	-10,16	-3,499
1948,429	-10,14	-3,499
1950,571	-10,16	-3,498
1952,725	-10,12	-3,499
1954,873	-10,12	-3,499
1957,015	-10,1	-3,499
1959,162	-10,1	-3,499
1961,316	-10,08	-3,499
1963,47	-10,08	-3,499
1965,612	-10,08	-3,499
1967,766	-10,06	-3,499
1969,92	-10,04	-3,499
1972,068	-10,04	-3,499
1974,228	-10,04	-3,5
1976,381	-9,98	-3,5
1978,523	-10	-3,499
1980,677	-9,98	-3,499
1982,837	-9,96	-3,5
1984,985	-9,96	-3,5
1987,145	-9,92	-3,482
1989,293	-9,9	-3,439
1991,429	-9,9	-3,371
1993,582	-9,88	-3,316
1995,73	-9,88	-3,311
1997,89	-9,06	-3,17
2000,05	-8,94	-3,049
2002,216	-7,78	-2,97
2004,358	-8,52	-2,95
2006,518	-6,72	-2,82
2008,672	-5,52	-2,668
2010,813	-5,48	-2,654
2012,973	-4,88	-2,551
2015,127	-4,64	-2,435
2017,275	-4,3	-2,36
2019,429	-3,58	-2,254
2021,583	-3,68	-2,214
2023,731	-3,22	-2,18
2025,885	-3,26	-2,118
2028,039	-2,78	-2,05
2030,186	-2,64	-1,985
2032,334	-1,78	-1,833
2034,494	-1,24	-1,689
2036,636	-1,08	-1,639
2038,796	-0,72	-1,525
2040,944	-0,54	-1,434
2043,086	-0,66	-1,463
2045,24	-0,92	-1,582
2047,387	-0,66	-1,56
2049,535	-1,04	-1,544
2051,689	-0,26	-1,422
2053,861	0,2	-1,194
2056,003	0,2	-1,182
2058,163	0,48	-1,083
2060,317	0,74	-1,015
2062,459	0,82	-0,971
2064,618	1,18	-0,829
2066,766	1,44	-0,798
2068,908	1,38	-0,81
2071,062	1,42	-0,619
2073,216	2,06	-0,52
2075,358	2,08	-0,513
2077,506	1,88	-0,634
2079,66	1,94	-0,544
2081,807	2,22	-0,507
2083,967	2,62	-0,371
2086,127	3,18	-0,228
2088,275	3,54	-0,148
2090,441	4,04	-0,083
2092,601	4,3	-0,062
2094,743	4,1	-0,061
2096,903	4,2	-0,054
2099,053	4,32	-0,055
2101,198	4,18	-0,061
2103,352	4,36	-0,051
2105,5	4,36	-0,046
2107,654	4,62	-0,031
2109,808	4,78	-0,017
2111,95	4,76	-0,016
2114,104	4,82	-0,011
2116,251	4,82	-0,009
2118,405	4,78	-0,015
2120,547	4,78	-0,014
2122,695	4,78	-0,014
2124,843	4,8	-0,011
2126,991	4,82	-0,007
2129,151	4,84	-0,005
2131,293	4,84	-0,005
2133,452	4,82	-0,004
2135,606	4,82	-0,004
2137,748	4,82	-0,006
2139,896	4,82	-0,005
2142,044	4,82	-0,006
2144,192	4,8	-0,006
2146,34	4,82	-0,006
2148,5	4,82	-0,005
2150,641	4,82	-0,006
2152,789	4,82	-0,005
2154,937	4,82	-0,004
2157,079	4,8	-0,003
2159,227	4,8	-0,004
2161,375	4,8	-0,003
2163,517	4,8	-0,003
2165,665	4,8	-0,003
2167,819	4,78	-0,002
2169,966	4,78	-0,001
2172,12	4,78	-0,001
2174,28	4,78	-0,001
2176,422	4,78	-0,002
2178,582	4,78	-0,002
2180,736	4,78	-0,002
2182,884	4,78	-0,001
2185,032	4,76	-0,002
2187,179	4,76	-0,001
2189,327	4,76	-0,001
2191,487	4,74	-0,001
2193,635	4,76	0
2195,789	4,76	-0,001
2197,931	4,76	-0,001
2200,085	4,74	-0,001
2202,239	4,72	0
2204,392	4,74	0
2206,546	4,72	-0,012
2208,694	4,7	-0,082
2210,854	4,68	-0,215
2213,014	4,42	-0,31
2215,162	4,02	-0,412
2217,316	3,88	-0,464
2219,476	4,1	-0,482
2221,63	3,76	-0,534
2223,777	3,06	-0,536
2225,931	2,48	-0,694
2228,073	2,8	-0,681
2230,227	2,2	-0,749
2232,375	1,98	-0,734
2234,541	1,7	-0,792
2236,689	2,02	-0,787
2238,836	1,66	-0,8
2241,002	1,04	-0,959
2243,156	0,78	-0,99
2245,298	1,4	-0,935
2247,452	1,48	-0,98
2249,6	0,7	-1,088
2251,748	1,9	-0,844
2253,896	1,48	-0,886
2256,055	1,08	-0,958
2258,203	1,12	-1,001
2260,357	1,04	-0,969
2262,523	0,94	-1,033
2264,683	0,42	-1,174
2266,825	0,24	-1,219
2268,979	-0,08	-1,276
2271,121	0,02	-1,268
2273,268	0,02	-1,306
2275,428	-0,46	-1,452
2277,582	-0,78	-1,542
2279,73	-0,76	-1,59
2281,878	-0,9	-1,58
2284,02	-0,96	-1,599
2286,18	-1,02	-1,632
2288,328	-1,22	-1,746
2290,476	-1,56	-1,825
2292,623	-1,74	-1,958
2294,784	-1,7	-2,03
2296,937	-1,96	-1,998
2299,085	-1,88	-2,01
2301,227	-1,92	-2,028
2303,381	-1,84	-1,963
2305,541	-1,6	-1,88
2307,683	-0,9	-1,574
2309,848	-1,24	-1,756
2312,008	-1,48	-1,87
2314,15	-1,84	-1,926
2316,304	-1,94	-2,042
2318,446	-2,2	-2,142
2320,594	-2,5	-2,279
2322,742	-2,5	-2,312
2324,89	-2,68	-2,322
2327,037	-2,82	-2,408
2329,197	-3,16	-2,532
2331,345	-2,84	-2,46
2333,487	-2,82	-2,467
2335,635	-3,1	-2,495
2337,789	-3,36	-2,546
2339,949	-3,02	-2,442
2342,103	-2,86	-2,447
2344,244	-2,72	-2,407
2346,398	-2,92	-2,443
2348,552	-3,12	-2,485
2350,694	-2,86	-2,402
2352,854	-3,04	-2,457
2355,008	-3,44	-2,562
2357,162	-3,54	-2,662
2359,316	-4,3	-2,847
2361,475	-4,88	-3,004
2363,617	-5,2	-3,198
2365,771	-6,8	-3,343
2367,913	-7	-3,404
2370,079	-7,48	-3,415
2372,227	-7,74	-3,44
2374,369	-8	-3,442
2376,523	-7,84	-3,458
2378,671	-8,28	-3,466
2380,824	-8,3	-3,482
2382,978	-8,48	-3,491
2385,12	-8,48	-3,494
2387,268	-8,48	-3,497
2389,416	-8,48	-3,498
2391,564	-8,46	-3,499
2393,718	-8,42	-3,5
2395,865	-8,4	-3,497
2398,013	-8,4	-3,466
2400,167	-8,36	-3,265
2402,333	-7,7	-3,092
2404,475	-7,38	-3,04
2406,629	-7	-3,005
2408,783	-6,58	-2,899
2410,925	-5,6	-2,838
2413,078	-5,56	-2,77
2415,232	-4,8	-2,67
2417,38	-5,06	-2,68
2419,528	-4,9	-2,718
2421,676	-4,68	-2,642
2423,824	-4,02	-2,572
2425,972	-3,68	-2,464
2428,114	-3,48	-2,414
2430,268	-2,76	-2,266
2432,409	-2,28	-2,136
2434,563	-1,92	-2,063
2436,723	-1,62	-1,964
2438,865	-1,26	-1,833
2441,025	-0,9	-1,704
2443,173	-0,78	-1,618
2445,315	-0,72	-1,589
2447,469	-0,48	-1,517
2449,622	-0,14	-1,4
2451,77	-0,06	-1,326
2453,924	0,16	-1,247
2456,078	0,22	-1,152
2458,226	0,42	-1,109
2460,374	0,44	-1,059
2462,528	0,5	-1,057
2464,67	0,6	-1,005
2466,823	0,92	-0,879
2468,977	0,78	-0,886
2471,125	0,86	-0,906
2473,279	0,72	-0,902
2475,427	0,9	-0,88
2477,587	1,2	-0,739
2479,747	1,2	-0,732
2481,901	1,16	-0,684
2484,054	1,2	-0,698
2486,208	1,24	-0,708
2488,35	1,04	-0,792
2490,51	1,14	-0,741
2492,652	1,08	-0,76
2494,806	1,56	-0,569
2496,96	1,92	-0,463
2499,102	1,72	-0,525
2501,255	1,64	-0,484
2503,403	1,74	-0,44
2505,557	2,12	-0,246
2507,705	2,3	-0,239
2509,859	2,86	-0,16
2512,001	2,82	-0,162
2514,155	2,9	-0,123
2516,297	3,4	-0,09
2518,462	3,66	-0,07
2520,622	3,84	-0,056
2522,776	3,88	-0,042
2524,918	3,94	-0,05
2527,066	3,86	-0,05
2529,208	3,84	-0,05
2531,356	3,68	-0,056
2533,504	3,74	-0,062
2535,646	3,7	-0,064
2537,793	3,64	-0,062
2539,941	3,82	-0,056
2542,095	3,84	-0,06
2544,249	3,86	-0,046
2546,391	3,74	-0,056
2548,551	3,84	-0,046
2550,705	3,92	-0,046
2552,859	3,9	-0,051
2555,006	3,76	-0,056
2557,154	3,74	-0,046
2559,308	3,76	-0,054
2561,462	3,84	-0,052
2563,604	3,84	-0,05
2565,758	3,96	-0,042
2567,9	3,78	-0,047
2570,048	3,42	-0,068
2572,195	3,72	-0,057
2574,355	3,88	-0,045
2576,497	3,92	-0,039
2578,651	3,92	-0,032
2580,793	4,02	-0,033
2582,941	4,02	-0,027
2585,083	4	-0,027
2587,237	4,1	-0,021
2589,397	4,16	-0,014
2591,544	4,16	-0,011
2593,698	4,2	-0,009
2595,858	4,2	-0,009
2598,006	4,2	-0,007
2600,16	4,2	-0,007
2602,308	4,2	-0,008
2604,45	4,18	-0,008
2606,597	4,2	-0,007
2608,751	4,2	-0,004
2610,899	4,2	-0,005
2613,047	4,18	-0,005
2615,189	4,18	-0,004
2617,337	4,18	-0,004
2619,485	4,18	-0,003
2621,633	4,18	-0,006
2623,786	4,18	-0,005
2625,94	4,18	-0,004
2628,082	4,18	-0,004
2630,236	4,16	-0,002
2632,378	4,16	-0,002
2634,532	4,16	-0,002
2636,692	4,16	-0,002
2638,84	4,14	-0,002
2640,999	4,16	-0,001
2643,153	4,14	-0,001
2645,295	4,14	-0,001
2647,455	4,12	-0,001
2649,597	4,1	0
2651,745	4,12	-0,001
2653,893	4,1	0
2656,035	4,1	-0,001
2658,188	4,1	-0,001
2660,33	4,1	-0,001
2662,484	4,1	0
2664,644	4,1	0
2666,786	4,1	0
2668,94	4,08	-0,001
2671,094	4,08	0
2673,236	4,08	-0,001
2675,395	4,06	0
2677,537	4,06	0
2679,691	4,06	0
2681,839	4,06	-0,001
2683,981	4,06	-0,001
2686,129	4,06	-0,001
2688,289	4,04	-0,001
2690,431	4,06	0
2692,591	4,04	0
2694,732	4,04	0
2696,88	4,04	-0,001
2699,04	4,04	0
2701,188	4,02	0
2703,342	4,02	0
2705,496	4,02	0
2707,638	4,02	0
2709,804	4,02	-0,026
2711,945	4,02	-0,004
2714,111	4	-0,164
2716,259	4	-0,25
2718,413	4,02	-0,282
2720,567	3,4	-0,382
2722,721	3,8	-0,381
2724,863	3,76	-0,384
2727,023	3,22	-0,509
2729,17	2,7	-0,547
2731,324	2,42	-0,566
2733,472	2,16	-0,642
2735,62	2,44	-0,627
2737,774	2,48	-0,631
2739,922	2,38	-0,638
2742,07	2,32	-0,622
2744,224	2,16	-0,632
2746,366	1,96	-0,667
2748,519	2,12	-0,671
2750,673	2,42	-0,6
2752,821	3,04	-0,548
2754,975	2,48	-0,583
2757,123	2,14	-0,609
2759,271	2,42	-0,581
2761,437	2,16	-0,634
2763,584	2,12	-0,592
2765,75	1,92	-0,678
2767,897	2,72	-0,577
2770,04	3,34	-0,548
2772,194	3,02	-0,488
2774,342	2,94	-0,42
2776,496	3,56	-0,359
2778,65	3,28	-0,375
2780,797	3,54	-0,37
2782,951	3,26	-0,384
2785,093	3,68	-0,24
2787,241	3,94	-0,186
2789,401	3,94	-0,178
2791,543	3,92	-0,052
2793,697	3,92	-0,069
2795,845	3,92	-0,063
2797,986	3,92	-0,114
2800,14	3,92	-0,147
2802,294	3,92	-0,169
2804,436	3,9	-0,089
2806,59	3,9	-0,125
2808,75	3,9	-0,241
2810,892	3,9	-0,264
2813,04	3,9	-0,243
2815,182	3,9	-0,212
2817,335	3,9	-0,223
2819,477	3,9	-0,124
2821,631	3,9	-0,202
2823,785	3,54	-0,3
2825,933	3,88	-0,23
2828,081	3,12	-0,409
2830,235	3,36	-0,386
2832,383	3,2	-0,377
2834,542	3,12	-0,416
2836,696	3,26	-0,458
2838,844	3,26	-0,438
2840,992	3,44	-0,368
2843,14	3,54	-0,418
2845,3	2,38	-0,547
2847,442	2,32	-0,577
2849,596	2,8	-0,549
2851,755	2,06	-0,668
2853,903	1,9	-0,642
2856,051	2,26	-0,627
2858,205	2,1	-0,642
2860,353	2,1	-0,665
2862,513	1,66	-0,767
2864,655	1,6	-0,786
2866,809	1,22	-0,833
2868,962	1,36	-0,816
2871,104	1,64	-0,797
2873,27	1,88	-0,75
2875,412	1,6	-0,822
2877,566	1,06	-0,943
2879,726	0,6	-1,09
2881,874	0,42	-1,165
2884,028	0,24	-1,217
2886,187	0,1	-1,292
2888,335	-0,08	-1,305
2890,483	0,3	-1,15
2892,631	0,68	-1,03
2894,785	0,32	-1,156
2896,927	0,42	-1,117
2899,087	0,22	-1,214
2901,247	0,2	-1,19
2903,388	0,28	-1,188
2905,542	0,08	-1,223
2907,69	0,2	-1,218
2909,838	-0,06	-1,316
2911,998	-0,16	-1,364
2914,146	-0,06	-1,323
2916,3	-0,26	-1,418
2918,46	-0,42	-1,495
2920,608	-0,42	-1,564
2922,755	-0,68	-1,629
2924,918	-0,7	-1,731
2927,057	-0,86	-1,772
2929,205	-0,8	-1,762
2931,353	-1,02	-1,816
2933,495	-0,86	-1,754
2935,637	-0,62	-1,762
2937,797	-0,88	-1,84
2939,956	-1,02	-1,916
2942,116	-1,32	-2,089
2944,258	-1,16	-2,032
2946,418	-1,42	-2,146
2948,566	-1,48	-2,232
2950,726	-1,58	-2,294
2952,874	-1,82	-2,382
2955,028	-1,78	-2,389
2957,175	-2,04	-2,459
2959,317	-2,26	-2,573
2961,471	-2,52	-2,656
2963,613	-2,52	-2,665
2965,767	-2,62	-2,792
2967,909	-2,84	-2,772
2970,057	-3	-2,88
2972,211	-3,34	-2,98
2974,358	-3,36	-3,008
2976,512	-3,66	-3,077
2978,666	-3,84	-3,206
2980,826	-4,18	-3,281
2982,974	-4,44	-3,289
2985,122	-4,12	-3,255
2987,27	-4,38	-3,264
2989,424	-4,54	-3,333
2991,565	-4,64	-3,35
2993,725	-5,02	-3,389
2995,879	-5,38	-3,412
2998,027	-4,8	-3,406
3000,181	-5,3	-3,41
3002,323	-5,3	-3,412
3004,477	-5,9	-3,45
3006,637	-6,04	-3,472
3008,784	-6,22	-3,48
3010,944	-6,2	-3,484
3013,098	-6,3	-3,486
3015,24	-6,32	-3,488
3017,394	-6,34	-3,491
3019,542	-6,36	-3,493
3021,69	-6,36	-3,493
3023,85	-6,34	-3,494
3025,992	-6,32	-3,494
3028,139	-6,34	-3,496
3030,287	-6,32	-3,496
3032,435	-6,34	-3,498
3034,589	-6,34	-3,498
3036,731	-6,34	-3,498
3038,885	-6,32	-3,498
3041,027	-6,32	-3,498
3043,174	-6,32	-3,499
3045,334	-6,3	-3,499
3047,476	-6,3	-3,499
3049,624	-6,28	-3,499
3051,766	-6,28	-3,499
3053,932	-6,26	-3,5
3056,086	-6,26	-3,489
3058,24	-6,26	-3,408
3060,394	-6,24	-3,414
3062,535	-6,24	-3,34
3064,695	-6,2	-3,21
3066,843	-5,46	-3,134
3068,991	-5,84	-3,17
3071,139	-5,94	-3,175
3073,287	-5,5	-3,14
3075,435	-5,74	-3,12
3077,601	-5,28	-3,018
3079,748	-4,96	-3,011
3081,896	-4,68	-2,947
3084,044	-4,4	-2,956
3086,192	-4,64	-2,978
3088,346	-3,96	-2,866
3090,494	-4,04	-2,834
3092,654	-3,62	-2,767
3094,796	-3,56	-2,668
3096,949	-3,46	-2,743
3099,103	-3,08	-2,677
3101,251	-3,24	-2,664
3103,405	-2,8	-2,581
3105,553	-3,92	-2,831
3107,701	-3,42	-2,782
3109,855	-3,38	-2,693
3111,997	-3,12	-2,621
3114,18	-2,16	-2,402
3116,382	-1,46	-2,127
3118,536	-1,4	-2,038
3120,804	-0,5	-1,534
3123,012	0,02	-1,205
3125,166	0,18	-1,142
3127,32	0,2	-1,149
3129,468	0,2	-1,106
3131,621	0,5	-0,947
3133,817	0,74	-0,707
3136,085	2,26	-0,142
3138,233	2,48	-0,096
3140,381	2,58	-0,078
3142,535	3,14	-0,049
3144,689	3,14	-0,053
3146,837	3,08	-0,052
3148,996	3,22	-0,042
3151,138	3,44	-0,034
3153,292	3,48	-0,026
3155,434	3,5	-0,023
3157,606	3,66	-0,011
3159,76	3,68	-0,009
3161,902	3,66	-0,011
3164,278	3,68	-0,129
3166,581	0,66	-0,961
3168,735	0,62	-1,056
3170,979	-0,52	-1,617
3173,187	-0,96	-2,024
3175,395	-1,56	-2,346
3177,537	-1,8	-2,392
3179,691	-1,78	-2,444
3181,929	-2,88	-2,932
3184,076	-3,16	-2,98
3186,284	-4	-3,268
3188,432	-4,26	-3,334
3190,598	-5,24	-3,413
3192,764	-5,3	-3,445
3194,918	-5,72	-3,457
3197,072	-5,52	-3,464
3199,364	-6,04	-3,496
3201,566	-6,06	-3,499
3203,791	-6,02	-3,5
3205,933	-6	-3,5
3208,177	-5,68	-3,08
3210,385	-3,48	-2,694
3212,617	-1,88	-2,248
3214,765	-1,84	-2,198
3216,997	-0,8	-1,761
3219,198	-0,12	-1,363
3221,502	1,06	-0,55
3221,94	3,68	-0,001