File: ensaios_Ciclicos/_30perc/_3gap/entrada/_1.txt
Time (s)	Load (N)	Displacement (mm)
0	0	-0,025
2,41	-6	-1,174
4,983	-20,5	-3,113
7,449	-26,5	-3,497
9,994	-18	-2,328
12,489	-3,5	-0,588
15,111	1	-0,001
17,721	-11	-2,064
20,247	-25	-3,47
22,652	-25,5	-3,499
25,244	-11	-1,668
27,818	0,5	-0,024
30,374	-0,5	-0,585
32,924	-14,5	-2,608
35,504	-25	-3,498
38,522	0	-0,074
40,993	1	0
43,43	-5,5	-1,266
45,901	-16,5	-2,87
48,325	-24,5	-3,492
50,707	-24,5	-3,413
53,295	-8	-1,359
55,711	0	-0,137
58,146	1,5	-0,002
60,51	0	-0,469
62,832	-5	-1,302
65,232	-13,5	-2,532
67,692	-24	-3,48
70,578	-7,5	-1,279
72,971	-0,5	-0,171
75,425	1,5	-0,002
77,903	-4	-1,123
80,213	-7,5	-1,794
82,581	-16	-2,84
85,037	-24	-3,491
87,413	-24	-3,499
89,783	-16,5	-2,346
92,199	-5,5	-1,097
94,577	0	-0,134
97,001	1,5	-0,002
99,401	-0,5	-0,558
101,686	-4,5	-1,181
104,572	-24	-3,498
106,978	-21	-2,868
109,365	-10	-1,773
111,729	-3,5	-0,788
114,165	1,5	-0,02
116,577	1,5	-0,001
118,857	0,5	-0,478
121,281	-7,5	-1,827
123,585	-12,5	-2,614
126,021	-23	-3,472
128,354	-23,5	-3,499
130,694	-22	-2,998
133,076	-11	-1,882
178,781	-0,5	-0,233
181,133	2	-0,016
183,467	2	-0,001
185,753	2	-0,201
188,015	-1	-0,681
190,283	-4,5	-1,289
192,581	-7,5	-1,863
194,866	-11,5	-2,49
197,212	-19	-3,346
199,492	-22,5	-3,476
201,742	-22,5	-3,495
204,016	-22,5	-3,499
206,374	-20	-2,813
208,642	-13	-2,212
211,366	1,5	-0,02
213,627	2	-0,004
215,889	2	-0,001
218,199	1,5	-0,309
220,431	0	-0,684
222,705	-3,5	-1,15
224,907	-4,5	-1,33
227,247	-9,5	-2,27
229,61	-17	-3,206
231,878	-20,5	-3,446
234,152	-22	-3,492
236,427	-22,5	-3,498
238,718	-22,5	-3,299
240,938	-20	-3,018
243,278	-12	-2,153
245,492	-9,5	-1,923
247,802	-4,5	-1,17
250,04	-2	-0,752
252,307	0	-0,24
254,605	1,5	-0,034
256,849	2	-0,011
259,027	2	-0,008
261,217	2	-0,006
263,563	2	-0,046
265,77	1,5	-0,25
267,912	2	-0,254
270,024	2	0
272,202	2	-0,03
274,314	2	-0,001
276,468	2	-0,001
278,664	2	-0,001
280,83	2	-0,001
283,163	-0,5	-0,698
285,239	2	-0,304
287,364	2,5	-0,052
289,529	2	-0,04
291,797	0	-0,601
293,987	0	-0,676
296,237	-3	-1,09
298,468	-4,5	-1,477
340,322	-21,5	-3,499
342,458	-21,5	-3,499
344,69	-21,5	-3,5
346,808	-21,5	-3,499
349,004	-21,5	-3,499
351,116	-21,5	-3,498
353,257	-21,5	-3,498
355,339	-21,5	-3,494
357,457	-21	-3,487
359,659	-21	-3,491
361,927	-21,5	-3,498
364,153	-21,5	-3,499
366,253	-21,5	-3,498
368,382	-21,5	-3,496
370,657	-21,5	-3,499
372,817	-21	-3,499
374,988	-21,5	-3,499
377,142	-21	-3,499
379,278	-21,5	-3,498
381,438	-21,5	-3,498
383,55	-21,5	-3,497
385,734	-21,5	-3,498
387,833	-21	-3,496
389,939	-21	-3,49
392,081	-21	-3,485
394,283	-21	-3,492
396,402	-21	-3,485
398,561	-21	-3,481
400,727	-21	-3,481
402,863	-20,5	-3,478
405,022	-21	-3,482
407,158	-20,5	-3,469
409,366	-21	-3,485
411,442	-20	-3,462
413,542	-17,5	-3,31
415,666	-15,5	-3,214
455,965	2	-0,008
458,059	2	-0,025
460,195	2	-0,034
462,367	2	-0,03
464,503	1,5	-0,035
466,669	1,5	-0,05
468,763	0	-0,2
470,929	0	-0,262
473,065	-0,5	-0,401
475,176	-1,5	-0,698
477,27	-4	-1,201
479,316	-8,5	-1,918
481,452	-11	-2,158
483,516	-14,5	-2,588
485,586	-20,5	-3,164
487,65	-21	-3,499
489,744	-21	-3,498
491,801	-20,5	-3,489
531,741	-2	-0,837
533,823	-4,5	-1,223
535,923	-6,5	-1,676
537,981	-11	-2,232
540,027	-18,5	-2,869
542,12	-20,5	-3,31
544,208	-20,5	-3,499
546,314	-20,5	-3,498
548,348	-20	-3,479
550,484	-19,5	-3,449
552,572	-16,5	-3,286
554,666	-13	-2,93
556,706	-8	-2,322
558,746	-5	-1,757
560,821	-3,5	-1,383
563,408	-17,5	-3,378
565,507	-14	-3,095
567,589	-10	-2,589
569,695	-8	-2,275
571,771	-5,5	-1,797
573,835	-3,5	-1,304
575,935	-2	-0,974
577,98	2	-0,346
580,116	2	-0,083
582,162	2,5	-0,002
584,244	2	-0,005
586,32	2	-0,026
588,396	1,5	-0,101
590,46	0	-0,393
592,518	-2,5	-1,011
594,582	-5,5	-1,569
596,639	-10,5	-2,162
598,715	-14	-2,509
600,809	-18	-3,004
602,903	-20	-3,272
604,961	-20	-3,499
644,523	-3,5	-1,153
646,623	-5,5	-1,531
648,699	-8,5	-1,944
650,774	-12,5	-2,409
652,826	-16,5	-2,878
654,896	-20	-3,382
656,984	-20	-3,499
659,042	-20	-3,496
661,1	-19,5	-3,476
663,176	-15	-3,37
665,239	-12,5	-2,904
667,309	-9	-2,408
669,367	-5	-1,766
671,437	-3	-1,208
673,531	-1	-0,768
675,577	2	-0,131
677,653	2	-0,001
679,753	2	-0,002
681,786	2	-0,017
683,832	1,5	-0,102
685,932	0	-0,314
687,972	-2,5	-0,969
690,048	-4,5	-1,478
692,094	-10	-2,162
694,152	-14,5	-2,708
696,228	-19,5	-3,212
698,316	-20	-3,499
700,409	-19,5	-3,498
702,455	-19,5	-3,486
704,52	-19	-3,449
706,583	-15	-3,206
708,647	-10,5	-2,616
710,711	-6,5	-2,102
712,751	-3,5	-1,424
714,797	-1	-0,797
716,837	2,5	-0,089
718,9	2,5	-0,002
720,97	2	-0,008
723,034	2	-0,042
725,11	0,5	-0,166
727,156	-1	-0,685
729,22	-3,5	-1,248
731,29	-6	-1,728
733,356	-11	-2,264
735,417	-16	-2,838
737,451	-19,5	-3,5
739,539	-20	-3,499
741,621	-19,5	-3,494
743,709	-19,5	-3,475
745,767	-14	-3,332
747,831	-11,5	-2,817
749,895	-7	-2,28
751,953	-5	-1,793
754,034	-3	-1,352
756,122	-2	-0,931
758,18	1,5	-0,353
760,226	2,5	-0,001
762,278	2,5	-0,004
764,348	2,5	-0,022
766,406	1	-0,151
768,47	-1	-0,607
770,515	-3,5	-1,223
772,603	-5,5	-1,703
774,697	-9	-2,152
776,755	-15,5	-2,735
778,819	-19,5	-3,226
780,907	-19,5	-3,499
782,989	-19,5	-3,497
785,077	-19,5	-3,488
787,17	-19	-3,466
789,229	-15	-3,28
791,304	-11,5	-2,876
793,381	-8	-2,372
795,42	-4,5	-1,747
797,988	-18	-3,437
800,094	-15	-3,32
802,2	-12,5	-3,022
804,245	-8	-2,432
806,321	-5	-1,913
808,373	-3	-1,338
810,437	-1	-0,796
812,489	2	-0,204
814,547	2,5	-0,001
816,617	2,5	-0,004
818,651	2	-0,019
820,739	1,5	-0,075
822,815	0	-0,32
824,932	-0,5	-0,544
827,008	-2	-0,94
829,036	-5,5	-1,652
831,1	-9	-2,098
833,152	-15	-2,746
835,216	-19,5	-3,332
837,28	-19,5	-3,499
839,313	-19,5	-3,492
841,354	-18	-3,437
843,423	-14	-3,191
845,463	-9	-2,577
847,509	-5	-1,888
849,585	-3	-1,374
851,643	0	-0,738
853,671	2,5	-0,064
855,717	2,5	-0,002
857,774	2,5	-0,008
859,82	1,5	-0,044
861,914	0,5	-0,207
864,47	2,5	-0,001
866,546	2,5	-0,003
868,598	2,5	-0,018
870,662	1,5	-0,103
872,756	0	-0,421
874,82	-2	-0,867
876,871	-4,5	-1,436
878,935	-8	-1,983
880,975	-14	-2,682
883,003	-19,5	-3,476
885,061	-19,5	-3,498
887,125	-19	-3,492
889,165	-17	-3,421
891,211	-12	-2,943
893,269	-7,5	-2,388
895,315	-4,5	-1,777
897,366	-2	-1,08
899,418	1,5	-0,462
901,482	2,5	0
903,51	3	-0,004
905,538	2,5	-0,029
907,572	0	-0,25
909,647	-1,5	-0,762
911,748	-3	-1,123
913,812	-5,5	-1,689
915,851	-10	-2,263
917,897	-17	-2,964
919,907	-19,5	-3,499
921,947	-19	-3,493
924,005	-18	-3,452
926,087	-14	-3,27
928,138	-9,5	-2,623
930,214	-6	-2,099
932,267	-3	-1,514
934,3	-0,5	-0,832
936,34	2,5	-0,124
938,386	3	-0,002
940,414	3	-0,014
942,46	1,5	-0,097
944,517	-0,5	-0,558
946,576	-3	-1,162
948,621	-6	-1,703
950,679	-10	-2,246
952,749	-14,5	-2,785
954,807	-19	-3,305
956,871	-19	-3,499
958,917	-19	-3,494
960,963	-18	-3,449
963,02	-13,5	-3,185
965,06	-8	-2,522
967,124	-5	-1,996
969,17	-3	-1,36
971,24	-1	-0,866
973,286	2,5	-0,185
975,338	3	-0,001
977,372	3	-0,01
979,436	2	-0,049
981,499	0	-0,262
983,539	-1,5	-0,904
985,573	-5	-1,573
987,643	-9	-2,095
989,731	-12,5	-2,544
991,765	-18,5	-3,206
993,805	-19	-3,499
995,863	-19	-3,496
997,909	-18,5	-3,466
999,936	-13,5	-3,207
1001,982	-8	-2,523
1004,029	-4,5	-1,872
1006,146	-3,5	-1,572
1008,181	-0,5	-0,854
1010,226	2,5	-0,23
1012,278	2,5	-0,001
1014,329	2,5	-0,006
1016,381	2	-0,048
1018,457	0	-0,228
1020,491	-1,5	-0,927
1022,555	-4,5	-1,512
1024,601	-10	-2,229
1026,665	-14,5	-2,808
1028,699	-19	-3,497
1030,721	-19	-3,497
1032,785	-18,5	-3,48
1034,855	-15,5	-3,378
1036,912	-11	-2,889
1038,928	-5,5	-2,07
1040,962	-2,5	-1,282
1043,002	0,5	-0,547
1045,03	2,5	-0,001
1047,076	2,5	-0,005
1049,11	2	-0,055
1051,137	0	-0,478
1053,171	-3	-1,292
1055,205	-7	-1,978
1057,257	-13	-2,599
1059,315	-18,5	-3,195
1061,361	-18,5	-3,499
1063,413	-18,5	-3,496
1065,417	-17	-3,44
1067,45	-12	-3,022
1069,508	-7,5	-2,377
1071,542	-4	-1,668
1073,558	-1	-0,817
1075,592	3	-0,131
1077,644	3	-0,002
1079,678	3	-0,011
1081,738	2	-0,059
1083,752	-0,5	-0,58
1085,779	-2,5	-1,207
1087,801	-7	-1,964
1089,859	-12	-2,588
1091,893	-18,5	-3,268
1093,927	-19	-3,499
1095,961	-18,5	-3,49
1098,001	-17	-3,415
1100,035	-12	-3,008
1102,098	-8	-2,414
1104,132	-4	-1,738
1106,178	-2	-1,048
1108,23	2	-0,392
1110,258	2,5	-0,001
1112,286	3	-0,007
1114,326	2	-0,045
1116,378	0	-0,359
1118,442	-1,5	-0,9
1120,475	-4,5	-1,613
1122,515	-9,5	-2,321
1124,567	-15,5	-2,935
1126,589	-18,5	-3,499
1128,635	-18,5	-3,496
1130,693	-18	-3,478
1132,757	-16,5	-3,388
1134,821	-12	-2,988
1136,867	-7	-2,422
1138,93	-4,5	-1,789
1140,964	-2	-1,143
1143,028	0	-0,656
1145,045	2,5	-0,001
1147,096	2,5	-0,003
1149,16	2,5	-0,018
1151,2	1,5	-0,126
1153,258	0	-0,53
1155,322	-2	-1,078
1157,355	-6,5	-1,828
1159,419	-10,5	-2,4
1161,447	-18,5	-3,118
1163,481	-18,5	-3,499
1165,533	-18,5	-3,496
1167,585	-18	-3,47
1169,637	-14,5	-3,35
1171,706	-10	-2,731
1173,74	-5,5	-2,032
1175,835	-3,5	-1,582
1177,892	-2	-0,984
1179,927	2,5	-0,324
1181,966	3	-0,001
1183,976	2,5	-0,012
1186,022	1,5	-0,094
1188,05	-0,5	-0,61
1190,119	-2,5	-1,144
1192,171	-5,5	-1,799
1194,205	-11	-2,458
1196,263	-18	-3,004
1198,321	-18	-3,5
1200,889	-6	-1,68
1202,941	-10	-2,388
1204,975	-17	-3,108
1206,99	-18	-3,499
1209,048	-18	-3,495
1211,124	-18	-3,478
1213,164	-15	-3,367
1215,18	-9,5	-2,698
1217,214	-5,5	-2,022
1219,266	-3	-1,405
1221,3	0	-0,702
1223,322	3	0
1225,385	3	-0,002
1227,407	2,5	-0,021
1229,441	0,5	-0,177
1231,493	-0,5	-0,782
1233,527	-4	-1,479
1235,573	-7,5	-2,099
1237,667	-11,5	-2,501
1239,701	-17,5	-3,178
1241,735	-18,5	-3,499
1243,756	-18,5	-3,493
1245,803	-17	-3,439
1247,83	-11,5	-2,918
1249,882	-6,5	-2,268
1251,91	-3	-1,472
1253,926	0	-0,712
1255,966	3	-0,1
1258,024	3	-0,002
1260,07	3	-0,008
1262,098	1,5	-0,076
1264,119	0	-0,607
1266,159	-3	-1,337
1268,205	-8	-2,028
1270,233	-14,5	-2,813
1272,279	-18	-3,446
1274,319	-18	-3,498
1276,335	-18	-3,479
1278,35	-13,5	-3,244
1280,372	-7,5	-2,525
1282,412	-4,5	-1,9
1284,446	-2	-1,208
1286,504	0,5	-0,657
1288,538	2,5	-0,026
1290,584	2,5	-0,002
1292,642	2,5	-0,012
1294,675	1	-0,13
1296,709	-0,5	-0,734
1298,755	-3,5	-1,388
1300,807	-7,5	-2,037
1302,871	-12	-2,524
1304,917	-18	-3,174
1306,963	-18	-3,499
1308,997	-18	-3,495
1311,007	-16,5	-3,425
1313,041	-10	-2,887
1315,075	-7	-2,36
1317,162	-3	-1,737
1319,214	-1,5	-1,066
1321,26	1,5	-0,482
1323,276	2,5	-0,001
1325,31	2,5	-0,007
1327,344	2	-0,062
1329,413	0	-0,34
1331,453	-2,5	-1,048
1333,499	-5	-1,654
1335,515	-11,5	-2,472
1337,543	-18	-3,223
1339,589	-18	-3,499
1341,611	-18	-3,494
1343,663	-17	-3,454
1345,709	-12,5	-3,135
1347,718	-6	-2,258
1349,771	-3,5	-1,672
1351,804	-1	-0,927
1353,82	2,5	-0,046
1355,848	2,5	-0,002
1357,894	2,5	-0,018
1359,952	1,5	-0,096
1361,962	-1	-0,752
1364,014	-3,5	-1,343
1366,042	-7	-2,033
1368,069	-13	-2,653
1370,139	-18	-3,182
1372,167	-18,5	-3,499
1374,207	-18	-3,491
1376,235	-16	-3,427
1378,269	-11	-2,957
1380,297	-5,5	-2,252
1382,348	-3,5	-1,703
1384,376	-1	-0,992
1386,416	2	-0,362
1388,432	3	-0,001
1390,46	3	-0,009
1392,495	1,5	-0,078
1394,51	-0,5	-0,706
1396,544	-4	-1,478
1398,56	-9,5	-2,313
1400,587	-16	-2,986
1402,633	-18	-3,5
1404,667	-18	-3,497
1406,733	-17,5	-3,482
1408,747	-15	-3,336
1410,793	-8,5	-2,642
1412,833	-4,5	-1,944
1414,849	-2	-1,227
1416,876	1,5	-0,585
1418,88	3	-0,001
1420,896	2,5	-0,006
1422,942	2	-0,048
1424,958	0	-0,502
1426,992	-2,5	-1,151
1429,026	-5,5	-1,827
1431,042	-12	-2,592
1433,076	-17,5	-3,255
1435,104	-18	-3,499
1437,125	-18	-3,489
1439,153	-15	-3,408
1441,169	-9	-2,748
1443,203	-5,5	-2,132
1445,219	-2,5	-1,323
1447,253	0,5	-0,642
1449,299	3	-0,018
1451,309	3	-0,003
1453,342	2,5	-0,028
1455,352	0	-0,339
1457,392	-1,5	-1,032
1459,408	-5,5	-1,798
1461,43	-12	-2,598
1463,464	-17,5	-3,21
1465,48	-17,5	-3,498
1467,52	-17,5	-3,49
1469,548	-15,5	-3,41
1471,606	-10,5	-2,983
1473,657	-7	-2,392
1475,679	-3,5	-1,679
1477,713	-1,5	-0,96
1479,747	2,5	-0,238
1481,781	3	-0,002
1483,797	3	-0,01
1485,813	1,5	-0,095
1487,847	-0,5	-0,612
1489,863	-3,5	-1,397
1491,884	-8,5	-2,188
1493,9	-15	-2,937
1495,928	-17,5	-3,5
1497,962	-17,5	-3,497
1499,996	-17,5	-3,476
1502,012	-13,5	-3,239
1504,046	-7,5	-2,504
1506,092	-4,5	-1,91
1508,179	-3	-1,488
1510,195	-0,5	-0,77
1512,211	2,5	0
1514,233	2,5	-0,004
1516,285	2,5	-0,027
1518,313	0,5	-0,267
1520,329	-2	-1,072
1522,338	-6	-1,862
1524,354	-12	-2,612
1526,389	-17,5	-3,381
1528,41	-18	-3,498
1530,426	-17,5	-3,478
1532,46	-14,5	-3,332
1534,47	-8,5	-2,577
1536,486	-3,5	-1,812
1538,52	-2	-1,073
1540,548	2,5	-0,303
1542,581	3	-0,001
1544,603	2,5	-0,01
1546,619	1,5	-0,12
1548,624	-1	-0,818
1550,657	-3,5	-1,463
1552,667	-9,5	-2,305
1554,719	-15	-2,95
1556,771	-17,5	-3,5
1558,805	-17,5	-3,498
1560,838	-17,5	-3,478
1562,968	-17	-3,453
1564,978	-10,5	-2,929
1567	-5,5	-2,177
1569,022	-2	-1,382
1571,038	0	-0,702
1573,048	2,5	-0,001
1575,064	3	-0,006
1577,103	2	-0,054
1579,137	0	-0,375
1581,159	-2	-1,147
1583,169	-6	-1,943
1585,179	-14	-2,802
1587,189	-17,5	-3,5
1589,235	-17,5	-3,497
1591,245	-16,5	-3,454
1593,243	-10,5	-2,931
1595,258	-5,5	-2,144
1597,286	-3	-1,491
1599,302	0	-0,657
1601,324	2,5	0
1603,34	3	-0,004
1605,398	2,5	-0,031
1607,432	0,5	-0,258
1609,448	-1,5	-1,072
1611,482	-6	-1,849
1613,497	-12,5	-2,684
1615,495	-18	-3,5
1617,565	-17,5	-3,498
1619,587	-17,5	-3,48
1621,603	-14	-3,326
1623,607	-8,5	-2,578
1625,641	-4,5	-1,966
1627,674	-2	-1,237
1629,684	1,5	-0,372
1631,718	3	-0,001
1633,722	2,5	-0,014
1635,774	1,5	-0,084
1637,79	0	-0,637
1639,8	-3	-1,443
1641,804	-8,5	-2,348
1643,814	-17	-3,199
1645,824	-17,5	-3,498
1647,827	-17	-3,475
1649,855	-13	-3,236
1651,931	-9	-2,747
1653,953	-4,5	-1,91
1655,969	-1,5	-1,022
1657,979	3	-0,201
1660,001	3	-0,002
1662,004	2,5	-0,025
1664,009	0	-0,375
1666,018	-2,5	-1,219
1668,022	-6	-2,043
1670,032	-13,5	-2,824
1672,042	-17,5	-3,5
1674,046	-17,5	-3,497
1676,08	-16	-3,441
1678,096	-10	-2,882
1680,111	-5	-2,048
1682,115	-2,5	-1,307
1684,149	0,5	-0,562
1686,159	3	-0,001
1688,169	2,5	-0,01
1690,173	1	-0,166
1692,189	-1,5	-0,947
1694,187	-5	-1,845
1696,197	-11,5	-2,576
1698,225	-17,5	-3,293
1700,27	-17,5	-3,499
1702,286	-17,5	-3,488
1704,29	-15	-3,366
1706,312	-8,5	-2,693
1708,328	-4,5	-1,96
1710,356	-2	-1,206
1712,36	2	-0,331
1714,376	3	-0,002
1716,392	2,5	-0,014
1718,419	1,5	-0,164
1720,423	-1	-0,892
1722,439	-4	-1,658
1724,479	-9	-2,383
1726,645	-10	-2,489
1728,685	-17	-3,206
1730,725	-17,5	-3,499
1732,741	-17,5	-3,489
1734,763	-15	-3,384
1736,832	-10,5	-3,002
1738,83	-5,5	-2,146
1740,84	-2,5	-1,283
1742,88	0	-0,658
1744,896	2,5	0
1746,954	2,5	-0,003
1748,952	2	-0,039
1750,967	0	-0,458
1752,984	-2	-1,223
1754,987	-6,5	-2,033
1757,003	-13,5	-2,793
1759,013	-17	-3,5
1761,041	-17,5	-3,496
1763,039	-15,5	-3,445
1765,073	-10	-3,007
1767,089	-5	-2,172
1769,086	-2	-1,254
1771,096	2	-0,388
1773,112	2,5	-0,001
1775,116	2,5	-0,016
1777,132	0	-0,204
1779,142	-1,5	-0,952
1781,14	-5,5	-1,814
1783,162	-10,5	-2,523
1785,166	-17,5	-3,462
1787,181	-17	-3,497
1789,215	-17	-3,482
1791,231	-13	-3,292
1793,259	-7,5	-2,572
1795,263	-3,5	-1,757
1797,279	-1,5	-0,966
1799,283	2,5	-0,095
1801,293	2,5	-0,003
1803,338	2,5	-0,015
1805,354	0,5	-0,197
1807,364	-1,5	-0,974
1809,38	-5	-1,803
1811,402	-11	-2,544
1813,412	-17	-3,427
1815,44	-17	-3,498
1817,45	-16,5	-3,468
1819,454	-10,5	-3,017
1821,47	-5	-2,182
1823,492	-2,5	-1,452
1825,495	0,5	-0,626
1827,505	2,5	-0,001
1829,533	3	-0,006
1831,537	1,5	-0,096
1833,547	-0,5	-0,726
1835,569	-3,5	-1,453
1837,584	-8,5	-2,239
1839,607	-16	-3,039
1841,616	-16,5	-3,499
1843,626	-17	-3,492
1845,63	-15	-3,399
1847,64	-8	-2,688
1849,644	-4	-1,987
1851,696	-2	-1,347
1853,706	2	-0,422
1855,758	2,5	-0,001
1857,761	3	-0,007
1859,771	1,5	-0,104
1861,787	-0,5	-0,728
1863,791	-4	-1,568
1865,801	-9	-2,344
1867,817	-15,5	-3,089
1869,821	-16,5	-3,499
1871,837	-16,5	-3,484
1873,846	-12	-3,289
1875,85	-6,5	-2,436
1877,866	-2,5	-1,639
1879,876	0	-0,8
1881,892	3	0
1883,908	3	-0,004
1885,912	2	-0,07
1887,928	-0,5	-0,734
1889,944	-4,5	-1,638
1891,953	-10,5	-2,534
1893,969	-16,5	-3,408
1895,979	-16,5	-3,498
1897,995	-16	-3,467
1900,054	-13	-3,292
1902,063	-6,5	-2,472
1904,073	-3	-1,661
1906,077	-1	-0,861
1908,092	2,5	-0,018
1910,096	2,5	-0,004
1912,112	2,5	-0,04
1914,122	0	-0,49
1916,126	-2,5	-1,348
1918,136	-7,5	-2,218
1920,14	-15,5	-3,091
1922,15	-16,5	-3,499
1924,166	-16,5	-3,492
1926,163	-13	-3,36
1928,173	-7,5	-2,636
1930,171	-3	-1,811
1932,175	-1,5	-1,007
1934,209	2	-0,342
1936,237	3	-0,001
1938,241	2,5	-0,014
1940,245	1	-0,21
1942,255	-1,5	-1,035
1944,258	-5,5	-1,873
1946,274	-11	-2,617
1948,278	-16,5	-3,483
1950,288	-16,5	-3,497
1952,298	-15,5	-3,462
1954,296	-10	-3,024
1956,306	-6	-2,312
1958,31	-2,5	-1,514
1960,331	-0,5	-0,794
1962,335	2,5	-0,001
1964,345	2,5	-0,004
1966,379	2	-0,036
1968,383	0	-0,378
1970,417	-1,5	-1,102
1972,427	-5	-1,87
1974,473	-9,5	-2,47
1976,477	-16,5	-3,213
1978,499	-16,5	-3,498
1980,521	-16	-3,486
1982,554	-14	-3,385
1984,582	-9	-2,827
1986,58	-3,5	-2,023
1988,59	-1,5	-1,251
1990,642	0	-0,656
1992,676	2,5	-0,001
1994,68	3	-0,004
1996,696	2	-0,042
1998,723	0	-0,342
2000,727	-1,5	-1,158
2002,749	-5	-1,904
2004,753	-11,5	-2,702
2006,769	-16	-3,483
2008,785	-16,5	-3,498
2010,783	-15,5	-3,459
2012,787	-10,5	-3,062
2014,785	-5	-2,142
2016,8	-2,5	-1,431
2018,816	0	-0,706
2020,82	2,5	0
2022,866	2,5	-0,002
2024,882	2,5	-0,025
2026,88	0	-0,379
2028,914	-1,5	-1,007
2030,918	-5	-1,822
2032,933	-10	-2,55
2034,937	-15,5	-3,396
2036,953	-15,5	-3,498
2038,969	-15	-3,473
2040,967	-10,5	-3,118
2042,977	-5,5	-2,445
2044,981	-2,5	-1,555
2046,99	0	-0,743
2048,994	3	-0,001
2050,998	3	-0,007
2053,008	1,5	-0,09
2055,012	-0,5	-0,793
2057,058	-2,5	-1,456
2059,08	-6,5	-2,218
2061,084	-14	-3,029
2063,1	-15	-3,499
2065,104	-15	-3,489
2067,12	-13,5	-3,374
2069,147	-8	-2,828
2071,157	-4	-1,98
2073,167	-1,5	-1,152
2075,171	2,5	-0,356
2077,175	3	-0,002
2079,185	2,5	-0,018
2081,201	1	-0,224
2083,204	-1	-0,945
2085,232	-4	-1,723
2087,242	-9,5	-2,566
2089,24	-15	-3,433
2091,28	-15	-3,498
2093,332	-15	-3,488
2095,372	-14	-3,428
2097,376	-8	-2,788
2099,391	-3,5	-2,007
2101,395	-1,5	-1,139
2103,411	2,5	-0,302
2105,415	3	-0,002
2107,425	3	-0,016
2109,465	1,5	-0,124
2111,487	0	-0,807
2113,497	-3	-1,667
2115,501	-9	-2,544
2117,505	-15	-3,414
2119,563	-15	-3,499
2121,566	-15	-3,484
2123,582	-12,5	-3,364
2125,586	-6	-2,569
2127,596	-3	-1,698
2129,63	-1	-1,002
2131,646	3	-0,267
2133,662	3	-0,002
2135,666	2,5	-0,02
2137,682	1	-0,202
2139,685	-0,5	-0,909
2141,713	-3	-1,644
2143,741	-7,5	-2,37
2145,745	-14,5	-3,23
2147,779	-15	-3,499
2149,795	-15	-3,489
2151,799	-11,5	-3,325
2153,841	-7,5	-2,724
2155,849	-3,5	-1,998
2157,864	-1,5	-1,238
2159,862	2	-0,381
2161,878	3	-0,001
2163,888	3	-0,012
2165,886	1	-0,206
2167,902	-0,5	-0,964
2169,905	-3	-1,767
2171,927	-8	-2,496
2173,943	-14,5	-3,212
2175,959	-14,5	-3,499
2177,999	-14,5	-3,493
2180,009	-13	-3,392
2182,025	-7	-2,772
2184,077	-4,5	-2,192
2186,093	-2,5	-1,438
2188,102	0	-0,669
2190,106	3	-0,001
2192,116	3	-0,007
2194,126	2	-0,078
2196,13	0	-0,672
2198,146	-2	-1,444
2200,15	-5,5	-2,295
2202,166	-12,5	-3,06
2204,17	-14	-3,499
2206,185	-14	-3,489
2208,183	-10,5	-3,332
2210,223	-6	-2,679
2212,239	-3,5	-1,935
2214,25	-1,5	-1,065
2216,277	2	-0,358
2218,275	3	-0,001
2220,327	2,5	-0,008
2222,343	1,5	-0,102
2224,346	0	-0,793
2226,362	-2,5	-1,559
2228,36	-7	-2,403
2230,37	-13,5	-3,261
2232,398	-14	-3,499
2234,402	-14	-3,482
2236,454	-12	-3,408
2238,518	-9	-3,051
2240,521	-4,5	-2,219
2242,543	-2	-1,42
2244,547	0	-0,561
2246,563	3	-0,001
2248,567	3	-0,007
2250,583	1,5	-0,082
2252,617	0	-0,616
2254,615	-2,5	-1,568
2256,631	-6,5	-2,238
2258,652	-13	-3,064
2260,71	-14	-3,499
2262,732	-14	-3,495
2264,736	-12	-3,42
2266,752	-7	-2,855
2268,756	-3,5	-2,093
2270,76	-1	-1,208
2272,758	3	-0,325
2274,774	3	-0,002
2276,777	2,5	-0,014
2278,787	1	-0,168
2280,827	0	-0,788
2282,843	-2	-1,521
2284,859	-6	-2,298
2286,869	-12	-2,983
2288,903	-13,5	-3,499
2290,925	-13,5	-3,496
2292,922	-12,5	-3,425
2294,944	-7	-2,854
2296,942	-3,5	-1,998
2298,958	-1,5	-1,328
2300,962	1,5	-0,486
2302,972	3	-0,001
2304,97	3	-0,013
2306,992	1	-0,16
2308,996	-0,5	-0,872
2311,011	-3	-1,718
2313,01	-8,5	-2,648
2315,019	-13,5	-3,456
2317,023	-13,5	-3,497
2319,039	-12,5	-3,463
2321,091	-9,5	-3,273
2323,095	-4,5	-2,446
2325,105	-2,5	-1,602
2327,186	-1	-1,141
2329,203	2	-0,362
2331,206	3	-0,001
2333,222	2,5	-0,017
2335,226	1	-0,2
2337,242	-0,5	-0,944
2339,246	-3	-1,757
2341,262	-7,5	-2,582
2343,296	-13	-3,252
2345,318	-13	-3,499
2347,345	-13	-3,489
2349,355	-10	-3,378
2351,353	-5	-2,61
2353,357	-2,5	-1,832
2355,367	-1	-1,073
2357,371	3	-0,218
2359,387	3	-0,002
2361,391	2,5	-0,02
2363,424	1	-0,166
2365,434	-0,5	-0,912
2367,438	-2	-1,621
2369,46	-5,5	-2,358
2371,5	-10,5	-2,998
2373,516	-12,5	-3,499
2375,526	-12,5	-3,492
2377,542	-10,5	-3,38
2379,545	-5	-2,603
2381,555	-2,5	-1,823
2383,601	-1,5	-1,277
2385,623	1,5	-0,498
2387,627	3	-0,001
2389,643	3	-0,01
2391,647	1	-0,174
2393,657	0	-0,965
2395,667	-2,5	-1,766
2397,682	-5,5	-2,447
2399,68	-12	-3,252
2401,696	-12	-3,498
2403,7	-12	-3,478
2405,71	-8	-3,244
2407,744	-4,5	-2,558
2409,748	-2	-1,684
2411,758	-0,5	-0,846
2413,762	2,5	-0,026
2415,784	2,5	-0,003
2417,781	2,5	-0,039
2419,797	0,5	-0,467
2421,795	-1	-1,338
2423,811	-4	-2,104
2425,815	-9	-2,893
2427,825	-12,5	-3,499
2429,829	-12	-3,494
2431,857	-11	-3,44
2433,861	-6	-2,862
2435,87	-3	-2,029
2437,868	-0,5	-1,1
2439,878	2,5	-0,216
2441,882	3	-0,002
2443,904	2,5	-0,023
2445,908	0,5	-0,309
2447,96	0	-0,953
2449,963	-2,5	-1,757
2451,98	-5,5	-2,491
2453,983	-11,5	-3,371
2455,999	-11,5	-3,498
2458,045	-11,5	-3,485
2460,067	-9	-3,362
2462,077	-5	-2,652
2464,081	-2	-1,853
2466,097	-0,5	-1,002
2468,13	3	-0,265
2470,135	3	-0,002
2472,144	2,5	-0,027
2474,154	1	-0,369
2476,152	-0,5	-1,257
2478,174	-2,5	-2,014
2480,172	-8	-2,895
2482,188	-11,5	-3,499
2484,192	-11,5	-3,491
2486,225	-10	-3,421
2488,253	-5,5	-2,874
2490,257	-3	-2,117
2492,273	-1	-1,288
2494,283	2	-0,44
2496,293	3	-0,001
2498,297	3	-0,02
2500,313	1,5	-0,182
2502,323	0	-0,953
2504,369	-1	-1,574
2506,372	-4,5	-2,352
2508,388	-10,5	-3,177
2510,386	-11,5	-3,498
2512,396	-11	-3,485
2514,406	-8	-3,327
2516,434	-4,5	-2,601
2518,438	-2	-1,698
2520,442	0	-0,742
2522,445	2,5	-0,001
2524,455	3	-0,006
2526,465	1,5	-0,071
2528,475	0	-0,612
2530,509	-0,5	-1,288
2532,513	-3,5	-2,145
2534,517	-9	-3,002
2536,532	-11,5	-3,499
2538,537	-11,5	-3,493
2540,57	-10,5	-3,426
2542,574	-5	-2,796
2544,59	-2,5	-1,919
2546,594	-0,5	-1,063
2548,64	2,5	-0,316
2550,656	3	-0,001
2552,66	3	-0,015
2554,676	1,5	-0,185
2556,679	0	-1,043
2558,695	-2	-1,839
2560,693	-6,5	-2,717
2562,703	-11	-3,5
2564,707	-11	-3,494
2566,723	-9	-3,413
2568,733	-5	-2,838
2570,743	-2,5	-2,048
2572,747	-0,5	-1,078
2574,75	3	-0,189
2576,76	3	-0,002
2578,758	2,5	-0,041
2580,792	0,5	-0,433
2582,808	0	-1,198
2584,836	-2,5	-1,92
2586,858	-6	-2,688
2588,862	-10,5	-3,5
2590,878	-11	-3,496
2592,899	-10	-3,451
2594,933	-6,5	-3,137
2596,949	-3,5	-2,382
2598,953	-1,5	-1,51
2600,957	1	-0,592
2602,997	3	0
2605,001	3	-0,005
2607,017	1,5	-0,094
2609,02	0	-0,824
2611,078	-1	-1,459
2613,112	-3,5	-2,214
2615,116	-10	-3,114
2617,132	-10,5	-3,499
2619,136	-10,5	-3,486
2621,14	-7,5	-3,308
2623,144	-4,5	-2,525
2625,154	-2	-1,702
2627,157	0	-0,861
2629,167	3	-0,076
2631,171	3	-0,003
2633,187	2,5	-0,031
2635,191	0,5	-0,402
2637,201	0	-1,198
2639,199	-3	-2,118
2641,245	-6,5	-2,807
2643,249	-10,5	-3,499
2645,246	-10,5	-3,495
2647,268	-10	-3,434
2649,266	-5	-2,849
2651,288	-2,5	-2,088
2653,292	-1	-1,225
2655,302	1,5	-0,434
2657,3	3	-0,001
2659,316	2,5	-0,017
2661,313	1	-0,254
2663,317	-0,5	-1,143
2665,315	-3	-2,083
2667,325	-7,5	-2,943
2669,323	-11	-3,499
2671,339	-10,5	-3,491
2673,343	-8,5	-3,351
2675,347	-4	-2,521
2677,362	-2	-1,783
2679,361	0	-0,783
2681,376	2,5	0
2683,386	3	-0,005
2685,402	2	-0,066
2687,418	0	-0,646
2689,428	-1	-1,58
2691,438	-4	-2,439
2693,454	-10,5	-3,268
2695,482	-10,5	-3,498
2697,497	-10,5	-3,482
2699,495	-6	-3,168
2701,517	-3,5	-2,368
2703,521	-1,5	-1,501
2705,537	0	-0,697
2707,595	3	-0,026
2709,599	3	-0,004
2711,603	2,5	-0,042
2713,618	0,5	-0,474
2715,622	-0,5	-1,343
2717,638	-3	-2,219
2719,642	-9,5	-3,1
2721,658	-10,5	-3,499
2723,668	-10,5	-3,48
2725,684	-7	-3,238
2727,688	-3,5	-2,412
2729,703	-1,5	-1,608
2731,707	0	-0,761
2733,742	2,5	0
2735,739	3	-0,005
2737,755	2	-0,065
2739,753	0	-0,728
2741,769	-1	-1,594
2743,779	-4	-2,428
2745,795	-10	-3,262
2747,804	-10,5	-3,498
2749,808	-10	-3,474
2751,812	-6	-3,16
2753,816	-3	-2,287
2755,826	-1	-1,411
2757,83	2	-0,533
2759,84	3	-0,001
2761,844	3	-0,011
2763,86	1,5	-0,119
2765,863	0	-0,878
2767,862	-2	-1,776
2769,877	-5	-2,564
2771,881	-10,5	-3,452
2773,897	-10,5	-3,498
2775,943	-10	-3,48
2777,947	-6	-3,178
2779,993	-3,5	-2,482
2782,009	-1,5	-1,648
2784,006	0	-0,787
2786,022	3	0
2788,02	3	-0,005
2790,036	2,5	-0,056
2792,034	0	-0,698
2794,05	-0,5	-1,458
2796,054	-4	-2,352
2798,052	-10,5	-3,326
2800,067	-10,5	-3,498
2802,072	-10	-3,469
2804,093	-6	-3,117
2806,097	-2,5	-2,261
2808,119	-1	-1,481
2810,123	1	-0,608
2812,145	3	-0,001
2814,149	3	-0,006
2816,159	1,5	-0,092
2818,174	0	-0,74
2820,184	-1	-1,653
2822,2	-4,5	-2,482
2824,204	-10,5	-3,321
2826,22	-10,5	-3,498
2828,218	-10	-3,473
2830,234	-6	-3,145
2832,238	-2,5	-2,222
2834,248	-1	-1,411
2836,245	2	-0,47
2838,249	3	-0,001
2840,259	3	-0,013
2842,263	1	-0,163
2844,279	0	-0,942
2846,289	-1,5	-1,733
2848,299	-5	-2,586
2850,309	-10	-3,414
2852,312	-10	-3,497
2854,329	-9,5	-3,458
2856,326	-5	-2,913
2858,336	-2,5	-2,101
2860,335	-0,5	-1,209
2862,356	2	-0,43
2864,36	3	-0,001
2866,37	3	-0,016
2868,368	1	-0,202
2870,372	0	-1,034
2872,381	-1,5	-1,818
2874,385	-4,5	-2,606
2876,395	-9,5	-3,331
2878,399	-9,5	-3,498
2880,409	-9,5	-3,475
2882,413	-5,5	-3,138
2884,447	-2,5	-2,388
2886,451	-1	-1,572
2888,467	0	-0,807
2890,47	3	0
2892,474	3	-0,005
2894,484	2	-0,084
2896,518	0,5	-0,643
2898,552	-0,5	-1,393
2900,562	-3	-2,23
2902,596	-6	-2,869
2904,642	-9	-3,5
2906,646	-9	-3,496
2908,661	-8	-3,442
2910,665	-4	-2,872
2912,687	-2	-2,175
2914,685	-1	-1,292
2916,683	1,5	-0,441
2918,693	3	-0,001
2920,733	3	-0,008
2922,748	1,5	-0,118
2924,746	0	-0,959
2926,768	-1	-1,757
2928,772	-4,5	-2,652
2930,77	-9	-3,5
2932,786	-9	-3,496
2934,802	-8,5	-3,451
2936,818	-4,5	-2,965
2938,816	-2	-2,071
2940,85	-1	-1,406
2942,847	1,5	-0,514
2944,857	3	-0,001
2946,861	2,5	-0,014
2948,865	1	-0,219
2950,881	0	-1,014
2952,885	-1	-1,872
2954,901	-4,5	-2,723
2956,905	-9	-3,5
2958,908	-8,5	-3,496
2960,912	-7,5	-3,425
2962,916	-3,5	-2,806
2964,932	-1,5	-1,961
2966,954	-0,5	-1,167
2968,97	2,5	-0,326
2970,974	3	-0,002
2972,996	3	-0,018
2975,011	1	-0,221
2977,015	0	-1,098
2979,025	-1,5	-1,969
2981,03	-5	-2,843
2983,039	-8,5	-3,499
2985,037	-8,5	-3,491
2987,041	-6,5	-3,366
2989,051	-3	-2,644
2991,055	-1,5	-1,744
2993,077	-0,5	-1,098
2995,08	2,5	-0,27
2997,09	3	-0,002
2999,094	2,5	-0,024
3001,092	0,5	-0,409
3003,102	0	-1,263
3005,106	-2	-2,178
3007,104	-7	-3,026
3009,113	-8,5	-3,499
3011,112	-8	-3,48
3013,121	-5	-3,212
3015,125	-2,5	-2,382
3017,129	-1	-1,562
3019,139	0	-0,718
3021,143	3	0
3023,153	2,5	-0,004
3025,157	2	-0,073
3027,166	0	-0,723
3029,17	-0,5	-1,613
3031,187	-3	-2,431
3033,19	-8,5	-3,36
3035,212	-8,5	-3,498
3037,21	-8	-3,471
3039,214	-4,5	-3,069
3041,224	-2	-2,192
3043,228	-0,5	-1,315
3045,238	1	-0,507
3047,236	3	-0,001
3049,239	2,5	-0,015
3051,255	1,5	-0,162
3053,259	0	-0,969
3055,275	-1	-1,808
3057,279	-3,5	-2,609
3059,283	-8	-3,5
3061,299	-8	-3,496
3063,32	-7,5	-3,46
3065,378	-5,5	-3,27
3067,394	-2,5	-2,422
3069,41	-1	-1,588
3071,408	0,5	-0,673
3073,442	3	0
3075,446	3	-0,005
3077,456	2	-0,067
3079,46	0,5	-0,728
3081,469	-0,5	-1,575
3083,485	-2,5	-2,438
3085,483	-8	-3,349
3087,493	-8	-3,498
3089,497	-7,5	-3,47
3091,495	-4,5	-3,136
3093,505	-2	-2,277
3095,509	-1	-1,383
3097,536	0,5	-0,624
3099,54	3	-0,001
3101,544	3	-0,008
3103,542	1,5	-0,11
3105,552	0,5	-0,755
3107,574	0	-1,438
3109,585	-2,5	-2,303
3111,588	-8	-3,195
3113,586	-8	-3,498
3115,607	-8	-3,481
3117,611	-5,5	-3,222
3119,615	-2,5	-2,345
3121,625	-1	-1,587
3123,623	0	-0,677
3125,639	3	-0,001
3127,637	2,5	-0,006
3129,653	1,5	-0,064
3131,657	0,5	-0,617
3133,709	0	-1,261
3135,724	-1,5	-2,038
3137,74	-5	-2,856
3139,738	-8	-3,499
3141,766	-8	-3,495
3143,776	-7	-3,431
3145,78	-3,5	-2,788
3147,796	-1,5	-1,991
3149,794	-0,5	-1,056
3151,81	2	-0,321
3153,813	3	-0,002
3155,829	2,5	-0,02
3157,851	1	-0,232
3159,885	0	-0,89
3161,883	-0,5	-1,772
3163,899	-3,5	-2,586
3165,909	-8	-3,42
3167,912	-8	-3,497
3169,946	-7,5	-3,47
3171,95	-4,5	-3,161
3173,966	-2,5	-2,407
3175,976	-0,5	-1,542
3178,004	0	-0,783
3180,008	3	0
3182,024	3	-0,005
3184,028	2	-0,063
3186,055	0,5	-0,64
3188,059	0	-1,47
3190,063	-2,5	-2,349
3192,103	-6,5	-3,064
3194,107	-8	-3,499
3196,123	-7,5	-3,484
3198,145	-5,5	-3,314
3200,155	-2,5	-2,482
3202,159	-1	-1,714
3204,157	0	-0,928
3206,214	2,5	-0,302
3208,218	3	-0,002
3210,216	3	-0,03
3212,226	1	-0,373
3214,224	0	-1,288
3216,246	-1	-2,023
3218,25	-4,5	-2,8
3220,266	-7,5	-3,5
3222,275	-7,5	-3,496
3224,279	-6,5	-3,436
3226,289	-3	-2,823
3228,287	-1	-1,883
3230,303	0	-1,047
3232,307	2	-0,311
3234,305	3	-0,002
3236,315	2,5	-0,028
3238,318	0,5	-0,422
3240,346	0	-1,191
3242,356	-1	-2,06
3244,402	-3	-2,709
3246,43	-7,5	-3,471
3248,446	-7,5	-3,497
3250,444	-7	-3,462
3252,46	-3,5	-3,058
3254,464	-1,5	-2,18
3256,474	-0,5	-1,356
3258,357	3	0