File: Cycling_tests/_50perc/_1gap/entrada/_1.txt
Time (s)	Load (N)	Displacement (mm)
0	0	-0,035
1,949	0	-0,005
4,073	0,5	-0,004
5,993	0	-0,07
7,913	-3,5	-0,803
9,845	-9	-1,69
11,771	-14,5	-2,565
13,696	-19,5	-3,455
15,623	-19,5	-3,494
17,542	-18	-3,417
19,468	-12	-2,64
21,394	-6,5	-1,781
23,32	-1,5	-0,792
25,24	1	-0,001
27,16	0,5	-0,016
29,087	-0,5	-0,232
31,005	-5	-1,13
32,937	-10,5	-2,1
34,875	-17,5	-3,042
36,808	-18,5	-3,498
38,733	-18	-3,469
40,659	-13	-3,026
42,585	-7,5	-2,182
44,529	-4,5	-1,323
46,449	0,5	-0,352
48,38	1,5	-0,003
50,312	0,5	-0,061
52,238	-2	-0,679
54,182	-7,5	-1,694
56,114	-13	-2,533
58,058	-18	-3,307
59,984	-18,5	-3,497
61,917	-17	-3,451
63,86	-13,5	-3,147
65,792	-9,5	-2,478
67,735	-5,5	-1,782
69,673	-2	-0,967
71,607	1	-0,197
73,525	1,5	-0,006
75,445	0,5	-0,112
77,383	-2,5	-0,831
79,321	-7,5	-1,743
81,253	-12	-2,508
83,191	-17,5	-3,425
85,123	-18	-3,495
87,054	-16,5	-3,441
88,992	-11,5	-2,902
90,93	-7	-2,141
92,862	-3	-1,312
94,8	0,5	-0,511
96,732	1,5	-0,001
98,67	1,5	-0,016
100,62	0	-0,184
102,557	-2,5	-0,914
104,477	-6,5	-1,714
106,404	-12,5	-2,625
108,329	-17,5	-3,406
110,267	-17,5	-3,496
112,205	-17	-3,46
114,143	-12,5	-3,082
116,081	-7,5	-2,31
118,007	-4,5	-1,498
119,95	-1,5	-0,782
121,894	1,5	-0,001
123,832	1,5	-0,007
125,77	1	-0,056
127,696	-1	-0,587
129,634	-4,5	-1,471
131,574	-10,5	-2,368
133,504	-17	-3,366
135,448	-17	-3,496
137,386	-16,5	-3,449
139,323	-11	-2,944
141,255	-6,5	-2,158
143,195	-3	-1,205
145,131	0,5	-0,48
147,075	1,5	-0,001
149,013	1,5	-0,016
150,957	0	-0,19
152,889	-2,5	-1,015
154,826	-7	-1,878
156,776	-12,5	-2,623
158,714	-17	-3,475
160,659	-16,5	-3,495
162,596	-15	-3,428
164,54	-10,5	-2,876
166,49	-6	-2,015
168,428	-3	-1,182
170,36	1	-0,233
172,309	1,5	-0,003
174,247	1	-0,042
176,179	-1	-0,566
178,129	-4	-1,379
180,061	-8,5	-2,129
182,005	-15	-3,021
183,943	-17	-3,498
185,876	-16,5	-3,485
187,813	-13	-3,284
189,751	-8,5	-2,504
191,688	-4,5	-1,7
193,62	-1,5	-0,801
195,558	1,5	0
197,496	1,5	-0,008
199,434	0,5	-0,135
201,372	-2	-0,809
203,316	-5	-1,568
205,248	-11	-2,508
207,192	-16,5	-3,413
209,123	-16,5	-3,495
211,055	-14,5	-3,422
213,011	-10,5	-2,899
214,949	-5,5	-1,995
216,895	-2,5	-1,134
218,819	1,5	-0,149
220,751	1,5	-0,004
222,695	0,5	-0,082
224,638	-1	-0,72
226,57	-5,5	-1,746
228,508	-12	-2,624
230,452	-16,5	-3,5
232,396	-16,5	-3,494
234,328	-15	-3,422
236,266	-9,5	-2,77
238,21	-5	-1,885
240,136	-2	-0,929
242,067	1,5	0
244,011	1,5	-0,014
245,943	0	-0,253
247,881	-3	-1,205
249,819	-8	-2,105
251,757	-13,5	-2,954
253,701	-16	-3,499
291,913	-15,5	-3,496
293,856	-15	-3,414
295,788	-7,5	-2,551
297,726	-3	-1,502
299,67	0,5	-0,61
301,608	1,5	-0,002
303,546	1	-0,074
305,49	-2	-0,862
307,422	-6,5	-1,889
309,36	-13,5	-2,906
311,297	-15,5	-3,499
313,229	-15	-3,477
315,179	-11	-3,128
317,117	-5	-2,069
319,055	-2	-1,074
320,987	1,5	-0,066
322,925	1,5	-0,01
324,869	0	-0,222
326,807	-3,5	-1,282
328,751	-8,5	-2,259
330,682	-15,5	-3,354
332,62	-15,5	-3,496
334,552	-14,5	-3,409
336,49	-8	-2,579
338,429	-3	-1,529
340,366	0,5	-0,55
342,298	1,5	-0,002
344,236	1	-0,035
346,167	0	-0,481
348,105	-4	-1,376
350,049	-8,5	-2,279
351,987	-15,5	-3,154
353,919	-15	-3,498
355,857	-15	-3,472
357,795	-10,5	-3,104
359,727	-5,5	-2,078
361,665	-2	-1,129
363,602	1,5	-0,269
365,54	1,5	-0,003
367,478	1	-0,069
369,41	-1,5	-0,836
371,336	-5	-1,71
373,28	-12	-2,689
375,206	-15	-3,499
377,146	-15	-3,487
379,088	-11	-3,191
381,02	-5	-2,166
382,957	-2	-1,186
384,895	1,5	-0,212
386,827	1,5	-0,006
388,759	1	-0,094
390,697	-1	-0,837
392,623	-5	-1,638
394,561	-10,5	-2,565
396,487	-15	-3,408
398,425	-15	-3,496
400,356	-13,5	-3,413
402,288	-8	-2,666
404,226	-3,5	-1,669
406,158	-1	-0,871
408,084	1,5	0
410,022	1,5	-0,009
411,96	0,5	-0,1
413,898	-1,5	-0,81
415,829	-4,5	-1,671
417,761	-11,5	-2,681
419,699	-15	-3,499
421,637	-15	-3,493
423,575	-12	-3,313
425,513	-5,5	-2,236
427,445	-2,5	-1,322
429,383	0	-0,512
431,309	1,5	-0,002
433,241	1	-0,07
435,178	-1,5	-0,927
473,348	-1,5	-0,938
475,286	-5,5	-1,923
477,218	-13,5	-2,981
479,156	-15	-3,498
481,088	-15	-3,485
483,02	-11	-3,213
484,964	-5,5	-2,286
486,889	-2	-1,228
488,821	2	-0,198
490,753	2	-0,005
492,685	1	-0,112
494,617	-2	-1,082
496,555	-6	-1,966
498,487	-13	-2,987
500,431	-15	-3,498
502,363	-14,5	-3,465
504,295	-8,5	-2,903
506,226	-4	-1,893
508,158	0	-0,612
510,096	1,5	-0,001
512,034	1,5	-0,036
513,972	-0,5	-0,578
515,904	-4	-1,503
517,842	-10	-2,584
519,774	-15	-3,499
521,706	-15	-3,494
523,637	-13	-3,372
525,569	-6,5	-2,534
527,501	-3	-1,603
529,427	0	-0,606
531,359	1,5	-0,002
533,297	1,5	-0,045
535,229	-1	-0,769
537,161	-4,5	-1,775
539,093	-11,5	-2,77
541,024	-15	-3,499
542,95	-15	-3,483
544,876	-10,5	-3,085
546,808	-4,5	-2,166
548,74	-2	-1,151
550,678	1,5	-0,095
552,616	1,5	-0,011
554,548	0	-0,282
556,479	-2,5	-1,254
558,411	-8	-2,27
560,343	-14,5	-3,317
562,277	-15	-3,496
564,207	-13,5	-3,436
566,139	-8,5	-2,853
568,071	-3,5	-1,864
570,009	-0,5	-0,815
571,935	2	-0,001
573,872	1,5	-0,022
575,81	0	-0,407
577,748	-3	-1,446
579,68	-8	-2,381
581,624	-14,5	-3,5
583,55	-14,5	-3,492
585,488	-12,5	-3,378
587,42	-6	-2,471
589,358	-2,5	-1,464
591,295	0	-0,586
593,239	2	-0,002
595,165	1	-0,084
597,097	-1	-0,887
599,029	-5,5	-1,945
600,967	-12	-2,894
602,899	-14,5	-3,499
604,832	-14	-3,477
606,769	-9	-3,03
608,694	-4,5	-1,984
610,626	0	-0,862
612,558	1,5	0
614,484	1,5	-0,019
616,416	0	-0,404
618,354	-3	-1,426
620,286	-7,5	-2,329
622,218	-14,5	-3,384
624,156	-14,5	-3,496
626,081	-13	-3,415
628,007	-6	-2,476
629,939	-2,5	-1,413
631,877	0	-0,565
633,809	1,5	-0,003
635,741	1	-0,104
637,673	-1	-0,92
639,605	-5,5	-2
641,543	-13	-2,997
643,474	-14,5	-3,498
645,412	-14,5	-3,474
647,344	-10	-3,176
649,276	-5	-2,205
651,214	-2,5	-1,4
653,152	0	-0,557
655,084	2	-0,001
657,016	2	-0,017
658,948	0	-0,281
660,886	-1,5	-1,09
662,817	-5	-1,945
664,755	-10,5	-2,766
666,687	-14,5	-3,5
668,613	-14,5	-3,492
670,545	-12	-3,364
672,483	-6,5	-2,581
674,415	-3,5	-1,788
676,347	-1	-0,898
678,284	2	0
680,217	1,5	-0,012
682,148	0,5	-0,182
684,074	-1,5	-1,08
686,006	-5,5	-2,006
687,938	-11,5	-2,895
689,87	-14,5	-3,499
691,796	-14,5	-3,486
693,728	-10,5	-3,177
695,659	-5,5	-2,292
697,591	-2,5	-1,376
699,523	1,5	-0,364
701,455	1,5	-0,004
703,393	1,5	-0,077
705,331	-0,5	-0,817
707,257	-4,5	-1,825
709,189	-10	-2,714
711,121	-14,5	-3,499
713,053	-14,5	-3,481
714,979	-9	-3,023
716,91	-4,5	-2,002
718,842	-1	-0,881
720,774	1,5	-0,001
722,706	1,5	-0,027
724,644	-0,5	-0,587
726,57	-3,5	-1,564
728,502	-10	-2,642
730,428	-14,5	-3,499
732,359	-14,5	-3,488
734,285	-10,5	-3,149
736,217	-4,5	-2,081
738,149	-1	-0,947
740,075	2	-0,001
742,019	1,5	-0,021
743,951	0	-0,466
745,883	-3	-1,524
747,809	-9,5	-2,66
749,752	-14,5	-3,499
751,684	-14	-3,488
753,616	-10,5	-3,282
755,542	-5	-2,195
757,486	-2	-1,266
759,418	1,5	-0,259
761,35	2	-0,008
763,282	0,5	-0,28
765,214	-2,5	-1,336
767,145	-8	-2,479
769,077	-14,5	-3,499
771,021	-14	-3,491
772,947	-10,5	-3,238
774,879	-4,5	-2,148
776,811	-1,5	-1,052
778,737	1,5	0
780,669	1,5	-0,018
782,601	0	-0,37
784,526	-2,5	-1,44
786,452	-8,5	-2,53
788,384	-14,5	-3,5
790,316	-14,5	-3,493
792,248	-10,5	-3,268
794,18	-5	-2,264
796,112	-1,5	-1,222
798,038	1,5	-0,142
799,97	1,5	-0,007
801,913	0,5	-0,158
803,845	-1,5	-1,031
805,783	-6	-2,113
807,715	-14	-3,14
809,653	-14,5	-3,498
811,585	-13,5	-3,461
813,523	-8	-2,911
815,449	-3,5	-1,875
817,393	-0,5	-0,888
819,324	2	0
821,25	1,5	-0,03
823,182	0	-0,601
825,132	-3,5	-1,59
827,058	-10,5	-2,774
828,99	-14	-3,499
830,922	-14	-3,474
832,86	-8	-2,921
834,786	-3	-1,849
836,723	-0,5	-0,842
838,655	2	-0,001
840,581	1,5	-0,019
842,519	0	-0,48
844,445	-3,5	-1,57
846,377	-9,5	-2,636
848,309	-14	-3,499
850,241	-14	-3,486
852,173	-9,5	-3,177
854,104	-4,5	-2,173
856,03	-1,5	-1,175
857,968	1,5	-0,144
859,9	1,5	-0,009
861,826	0	-0,226
863,758	-2,5	-1,33
865,684	-7,5	-2,334
867,61	-14	-3,371
869,548	-14	-3,496
871,479	-12,5	-3,424
873,405	-6	-2,503
875,343	-2,5	-1,517
877,269	1,5	-0,418
879,201	2	-0,002
881,133	1	-0,07
883,071	-1	-0,762
885,003	-4,5	-1,744
886,935	-10,5	-2,819
888,872	-14	-3,499
890,798	-14	-3,484
892,736	-10,5	-3,245
894,668	-4,5	-2,154
896,6	-1,5	-1,085
898,532	1,5	0
900,476	2	-0,012
902,402	0	-0,376
904,334	-2,5	-1,414
906,259	-8,5	-2,495
908,191	-14	-3,498
910,129	-14	-3,494
912,061	-11,5	-3,376
913,999	-6	-2,544
915,925	-2,5	-1,519
917,863	0,5	-0,539
919,795	2	-0,002
921,721	1,5	-0,057
923,652	-0,5	-0,791
925,584	-4,5	-1,839
927,51	-12	-2,942
929,442	-14	-3,498
931,368	-13,5	-3,474
933,303	-8,5	-2,98
935,23	-4	-1,975
937,164	-1	-0,986
939,096	1,5	0
941,021	2	-0,013
942,953	0	-0,282
944,885	-1,5	-1,152
946,817	-7	-2,344
948,749	-14	-3,414
950,681	-14	-3,495
952,607	-11,5	-3,389
954,545	-5,5	-2,524
956,471	-2,5	-1,519
958,402	1	-0,516
960,334	1,5	-0,002
962,26	1,5	-0,056
964,198	-0,5	-0,757
966,124	-4	-1,726
968,056	-10	-2,76
969,988	-14	-3,499
971,914	-13,5	-3,482
973,866	-9	-3,131
975,789	-4,5	-2,116
977,721	-1,5	-1,138
979,647	2	-0,119
981,579	1,5	-0,007
983,511	0	-0,29
985,437	-2	-1,216
987,369	-6	-2,236
989,295	-13,5	-3,299
991,227	-13,5	-3,496
993,152	-13	-3,456
995,084	-7	-2,827
997,016	-3	-1,842
998,942	-0,5	-0,871
1000,886	2	0
1002,812	1,5	-0,012
1004,744	0	-0,224
1006,67	-1,5	-1,178
1008,602	-5,5	-2,054
1010,534	-13	-3,126
1012,471	-14	-3,498
1014,397	-12,5	-3,435
1016,329	-6,5	-2,647
1018,261	-2,5	-1,611
1020,199	0	-0,63
1022,137	1,5	-0,001
1024,063	1,5	-0,031
1025,995	0	-0,537
1027,926	-3	-1,531
1029,87	-7	-2,423
1031,808	-13,5	-3,218
1033,734	-13,5	-3,497
1035,666	-13	-3,444
1037,592	-7	-2,786
1039,536	-3,5	-1,96
1041,462	-1,5	-1,041
1043,394	2	-0,059
1045,326	2	-0,01
1047,251	0,5	-0,184
1049,189	-1,5	-1,114
1051,115	-5,5	-2,034
1053,047	-12,5	-3,07
1054,979	-13,5	-3,498
1056,905	-13,5	-3,47
1058,843	-8,5	-3,116
1060,775	-4,5	-2,26
1062,701	-1,5	-1,29
1064,632	1,5	-0,358
1066,564	2	-0,004
1068,496	1	-0,096
1070,422	-1	-0,886
1072,354	-4,5	-1,844
1074,28	-12	-2,925
1076,206	-14	-3,498
1078,144	-13,5	-3,478
1080,07	-9	-3,108
1082,007	-4,5	-2,25
1083,933	-1,5	-1,2
1085,871	1,5	-0,303
1087,797	1,5	-0,007
1089,729	0,5	-0,22
1091,655	-1,5	-1,039
1093,581	-3,5	-1,749
1095,507	-9,5	-2,716
1097,439	-13,5	-3,499
1099,37	-13,5	-3,49
1101,302	-10,5	-3,341
1103,234	-5,5	-2,497
1105,16	-2,5	-1,467
1107,086	0,5	-0,497
1109,03	2	-0,002
1110,956	1,5	-0,043
1112,888	0	-0,649
1114,814	-3	-1,595
1116,745	-8	-2,558
1118,677	-13,5	-3,5
1120,609	-13,5	-3,493
1122,541	-12	-3,401
1124,467	-5,5	-2,562
1126,399	-3	-1,679
1128,325	0	-0,692
1130,263	1,5	-0,001
1132,189	2	-0,025
1134,12	0	-0,366
1136,052	-2	-1,325
1137,984	-6	-2,215
1139,922	-12,5	-3,146
1141,854	-13,5	-3,497
1143,78	-13	-3,453
1145,706	-7,5	-2,826
1147,632	-3	-1,87
1149,564	-1	-0,913
1151,49	2	0
1153,415	2	-0,012
1155,347	1	-0,145
1157,273	-1,5	-1,024
1159,205	-3,5	-1,752
1197,333	-1,5	-1,145
1199,265	-5	-2,092
1201,197	-11	-3,006
1203,128	-13,5	-3,498
1205,06	-13	-3,481
1206,992	-9,5	-3,269
1208,918	-4,5	-2,316
1210,844	-2	-1,342
1212,782	1,5	-0,369
1214,708	2	-0,003
1216,658	1,5	-0,049
1218,584	0	-0,635
1220,515	-2,5	-1,465
1222,441	-6,5	-2,414
1224,379	-13,5	-3,28
1226,305	-13	-3,496
1228,243	-12	-3,439
1230,175	-7	-2,755
1232,101	-3	-1,789
1234,033	-0,5	-0,726
1235,959	2	-0,002
1237,891	1,5	-0,035
1239,828	0	-0,484
1241,76	-2	-1,409
1243,686	-6,5	-2,301
1245,612	-13	-3,27
1247,544	-13,5	-3,497
1249,464	-12,5	-3,452
1251,396	-7,5	-2,88
1253,328	-3,5	-1,972
1255,26	-1	-0,972
1257,188	2	-0,09
1259,117	2	-0,009
1261,055	1	-0,12
1262,981	-1	-0,969
1264,925	-4	-1,85
1266,851	-8,5	-2,688
1268,789	-13,5	-3,5
1270,715	-13,5	-3,493
1272,653	-11	-3,37
1274,578	-6	-2,6
1276,522	-3	-1,741
1278,448	-0,5	-0,858
1280,374	2	-0,001
1282,306	2	-0,019
1284,232	0	-0,359
1286,162	-2	-1,255
1288,104	-5	-2,066
1290,028	-12	-3,016
1291,959	-13,5	-3,498
1293,885	-13	-3,476
1295,817	-8	-3,002
1297,743	-4	-2,058
1299,681	-1,5	-1,2
1301,607	1,5	-0,153
1303,533	2	-0,008
1305,459	0,5	-0,125
1307,385	-1	-0,992
1309,316	-4,5	-1,884
1311,248	-10	-2,799
1313,18	-13	-3,499
1315,106	-13	-3,485
1317,032	-9	-3,21
1318,964	-4	-2,216
1320,896	-1,5	-1,291
1322,828	1	-0,407
1324,76	2	-0,003
1326,691	1,5	-0,065
1328,617	-0,5	-0,778
1330,543	-4	-1,685
1332,475	-8,5	-2,574
1334,401	-13,5	-3,496
1336,339	-13	-3,494
1338,265	-10	-3,331
1340,197	-5	-2,424
1342,123	-2	-1,512
1344,048	0,5	-0,54
1345,986	1,5	-0,001
1347,912	1,5	-0,03
1349,85	0	-0,454
1351,776	-2	-1,404
1353,708	-7	-2,403
1355,628	-13	-3,475
1357,56	-13,5	-3,495
1359,492	-11	-3,4
1361,429	-5,5	-2,594
1363,361	-2	-1,642
1365,287	0	-0,655
1367,219	2	-0,001
1369,145	2	-0,02
1371,071	0	-0,332
1373,015	-1,5	-1,13
1374,941	-5,5	-2,094
1376,873	-12	-3,025
1378,798	-13	-3,498
1380,724	-12,5	-3,471
1382,65	-7	-2,902
1384,576	-3	-1,872
1386,514	-0,5	-0,955
1388,44	2	-0,025
1390,372	2	-0,012
1392,298	0	-0,229
1394,23	-2	-1,298
1396,161	-7	-2,334
1398,087	-13	-3,333
1400,013	-13	-3,495
1401,945	-12	-3,435
1403,877	-5,5	-2,67
1405,803	-2,5	-1,577
1407,729	1	-0,503
1409,667	1,5	-0,002
1411,593	1,5	-0,064
1413,518	-1	-0,804
1415,444	-4	-1,834
1417,37	-10,5	-2,864
1419,302	-13	-3,499
1421,228	-13	-3,476
1423,16	-8,5	-3,074
1425,098	-4	-2,158
1427,024	-1,5	-1,16
1428,944	1,5	0
1430,87	1,5	-0,018
1432,801	0	-0,352
1434,727	-2	-1,37
1436,653	-7,5	-2,39
1438,585	-13,5	-3,382
1440,511	-13,5	-3,495
1442,437	-10,5	-3,397
1444,369	-5,5	-2,631
1446,295	-2,5	-1,627
1448,221	0	-0,624
1450,152	1,5	-0,001
1452,078	1,5	-0,034
1454,01	0	-0,563
1455,936	-3,5	-1,699
1457,874	-8,5	-2,604
1459,8	-13	-3,5
1461,726	-13	-3,492
1463,652	-10	-3,322
1465,59	-4,5	-2,316
1467,515	-1,5	-1,282
1469,453	1,5	-0,266
1471,379	1,5	-0,006
1473,317	0	-0,222
1475,243	-1,5	-1,232
1477,169	-5,5	-2,203
1479,101	-13	-3,384
1481,027	-13	-3,496
1482,953	-11,5	-3,426
1484,884	-6	-2,647
1522,988	-2,5	-1,726
1524,914	0,5	-0,511
1526,846	2	-0,002
1528,772	1,5	-0,055
1530,698	-0,5	-0,845
1532,63	-4	-1,832
1534,562	-10	-2,839
1536,487	-13	-3,499
1538,419	-12,5	-3,478
1540,345	-7,5	-2,996
1542,277	-3,5	-2,018
1544,203	-1	-1,026
1546,129	1,5	-0,001
1548,067	1,5	-0,022
1549,993	0	-0,4
1551,919	-2	-1,314
1553,85	-5,5	-2,19
1555,776	-12	-3,076
1557,708	-13	-3,498
1559,634	-12,5	-3,47
1561,56	-8	-3,082
1563,504	-4	-2,254
1565,436	-1,5	-1,302
1567,362	1,5	-0,351
1569,294	2	-0,004
1571,219	1	-0,117
1573,151	-0,5	-0,915
1575,083	-4	-1,834
1577,021	-9	-2,766
1578,947	-13	-3,499
1580,873	-12,5	-3,483
1582,805	-9	-3,21
1584,731	-4	-2,15
1586,657	-1,5	-1,211
1588,588	2	-0,3
1590,514	2	-0,006
1592,44	0,5	-0,132
1594,372	-0,5	-0,974
1596,298	-4	-1,896
1598,224	-9	-2,801
1600,156	-13	-3,499
1602,082	-12,5	-3,467
1604,008	-7,5	-2,992
1605,951	-3,5	-2,118
1607,877	-1,5	-1,157
1609,809	2	-0,125
1611,741	2	-0,015
1613,673	0	-0,315
1615,599	-1,5	-1,265
1617,531	-5,5	-2,3
1619,457	-12,5	-3,299
1621,389	-13	-3,497
1623,32	-11,5	-3,426
1625,246	-5,5	-2,641
1627,178	-2	-1,635
1629,104	1,5	-0,387
1631,03	2	-0,004
1632,968	1,5	-0,059
1634,894	0	-0,768
1636,826	-4,5	-2,011
1638,758	-11,5	-3,033
1640,683	-12,5	-3,498
1642,609	-12	-3,458
1644,541	-7	-2,946
1646,467	-3	-1,968
1648,393	-1	-0,945
1650,337	2	-0,001
1652,263	2	-0,022
1654,189	0	-0,484
1656,115	-2	-1,455
1658,047	-6	-2,4
1659,972	-12,5	-3,439
1661,904	-13	-3,495
1663,836	-10,5	-3,379
1665,774	-6	-2,707
1667,7	-2	-1,709
1669,632	0	-0,656
1671,558	2	-0,001
1673,496	2	-0,031
1675,421	0	-0,636
1677,347	-2,5	-1,666
1679,282	-8,5	-2,645
1681,217	-12,5	-3,5
1683,143	-12,5	-3,492
1685,069	-11,5	-3,432
1687,001	-5,5	-2,703
1688,927	-3	-1,753
1690,853	-0,5	-0,861
1692,791	1,5	-0,037
1694,728	2	-0,008
1696,66	1	-0,139
1698,592	-0,5	-0,974
1700,518	-4,5	-2,014
1702,444	-10	-2,926
1704,382	-13	-3,498
1706,308	-12,5	-3,475
1708,24	-8	-3,159
1710,178	-3,5	-2,173
1712,103	-1,5	-1,234
1714,035	1,5	-0,296
1715,961	2	-0,006
1717,893	1,5	-0,093
1719,825	-0,5	-0,92
1721,751	-3	-1,799
1723,677	-9,5	-2,799
1725,609	-12,5	-3,499
1727,541	-12	-3,47
1729,472	-7,5	-3,091
1731,398	-3	-2,12
1733,33	-1,5	-1,257
1735,256	1,5	-0,306
1737,188	1,5	-0,003
1739,12	1,5	-0,061
1741,046	-0,5	-0,804
1742,978	-3	-1,596
1744,898	-7,5	-2,517
1746,823	-12,5	-3,471
1748,749	-12,5	-3,493
1750,681	-10,5	-3,354
1752,615	-5,5	-2,609
1754,539	-2,5	-1,612
1756,483	-0,5	-0,788
1758,409	2	0
1760,335	2	-0,011
1762,273	1	-0,173
1764,198	-0,5	-1,054
1766,124	-3,5	-1,934
1768,044	-10	-2,953
1769,976	-12,5	-3,498
1771,902	-12	-3,466
1773,834	-7,5	-2,969
1775,766	-2,5	-1,624
1777,692	0	-0,621
1779,618	2	-0,002
1781,549	1,5	-0,042
1783,475	-0,5	-0,738
1785,401	-3,5	-1,87
1787,333	-9,5	-2,79
1789,271	-12,5	-3,499
1791,197	-12,5	-3,49
1793,135	-9	-3,262
1795,061	-4,5	-2,328
1796,987	-2	-1,506
1798,912	0	-0,577
1800,844	1,5	-0,001
1802,77	1,5	-0,02
1804,702	0	-0,402
1806,628	-2,5	-1,565
1808,554	-7,5	-2,59
1810,486	-12,5	-3,499
1812,412	-12,5	-3,49
1814,344	-9	-3,307
1816,269	-4	-2,331
1818,195	-1,5	-1,292
1820,121	1,5	-0,4
1822,065	1,5	-0,002
1823,991	1,5	-0,031
1825,929	0	-0,32
1827,855	-1,5	-1,195
1829,787	-5	-2,051
1831,713	-11,5	-2,979
1833,644	-12,5	-3,498
1835,57	-12	-3,456
1837,502	-6,5	-2,884
1839,434	-3	-1,948
1841,36	-0,5	-0,855
1843,286	1,5	0
1845,206	1,5	-0,011
1847,132	0	-0,252
1849,064	-1,5	-1,155
1850,99	-5,5	-2,116
1852,915	-11,5	-3,08
1854,853	-12,5	-3,498
1856,779	-12	-3,475
1858,705	-7,5	-3,027
1860,631	-3	-2,088
1862,563	-1,5	-1,222
1864,489	1,5	-0,318
1866,415	1,5	-0,004
1868,34	1	-0,086
1870,272	-0,5	-0,95
1872,198	-4	-1,841
1874,13	-10	-2,81
1876,062	-12,5	-3,499
1877,988	-12,5	-3,482
1879,914	-9,5	-3,279
1881,846	-4,5	-2,343
1883,772	-1,5	-1,341
1885,697	1	-0,48
1887,623	1,5	-0,002
1889,555	1,5	-0,037
1891,481	0	-0,597
1893,413	-2,5	-1,431
1895,339	-6	-2,339
1897,271	-12,5	-3,268
1899,191	-12,5	-3,495
1901,117	-11	-3,415
1903,055	-5,5	-2,692
1904,98	-2,5	-1,801
1906,924	-0,5	-0,935
1908,856	1,5	-0,019
1910,782	1,5	-0,01
1912,708	0,5	-0,13
1914,634	-0,5	-0,922
1916,566	-4	-1,875
1918,492	-9,5	-2,803
1956,595	-7	-2,464
1958,521	-12,5	-3,395
1960,453	-12,5	-3,494
1962,379	-10,5	-3,382
1964,305	-5	-2,643
1966,231	-2,5	-1,677
1968,163	0	-0,705
1970,089	2	-0,001
1972,015	2	-0,02
1973,952	0,5	-0,241
1975,878	-1	-1,079
1977,816	-4	-1,906
1979,742	-10	-2,845
1981,668	-12,5	-3,499
1983,6	-12	-3,489
1985,526	-9,5	-3,328
1987,452	-5	-2,555
1989,378	-2	-1,667
1991,309	0	-0,737
1993,235	1,5	-0,001
1995,161	2	-0,016
1997,087	0	-0,282
1999,019	-2	-1,318
2000,951	-5,5	-2,322
2002,877	-12,5	-3,395
2004,809	-12,5	-3,495
2006,741	-11	-3,428
2008,667	-5,5	-2,735
2010,592	-2,5	-1,679
2012,518	0	-0,793
2014,444	2	-0,001
2016,37	1,5	-0,037
2018,296	-0,5	-0,746
2020,222	-3,5	-1,743
2022,154	-9	-2,726
2024,086	-12,5	-3,499
2026,011	-12	-3,486
2027,937	-8,5	-3,254
2029,869	-4,5	-2,346
2031,795	-1,5	-1,371
2033,727	1,5	-0,359
2035,653	2	-0,005
2037,579	1	-0,086
2039,505	-1	-0,988
2041,437	-4,5	-2,062
2043,362	-11	-3,055
2045,288	-12,5	-3,498
2047,214	-12	-3,465
2049,146	-7	-2,961
2051,072	-2,5	-1,936
2053,004	-1	-1,009
2054,93	1,5	-0,102
2056,856	2	-0,006
2058,782	1,5	-0,086
2060,708	0	-0,755
2062,645	-2,5	-1,634
2064,577	-7	-2,499
2066,503	-12	-3,451
2068,429	-12	-3,494
2070,361	-10,5	-3,412
2072,293	-5,5	-2,78
2074,213	-2,5	-1,816
2076,133	-0,5	-0,953
2078,071	1,5	-0,096
2080,002	1,5	-0,005
2081,934	1	-0,07
2083,86	0	-0,718
2085,786	-2,5	-1,647
2087,712	-6	-2,405
2089,638	-12	-3,407
2091,564	-12	-3,494
2093,49	-10,5	-3,411
2095,416	-5,5	-2,715
2097,341	-3	-1,854
2099,261	-1	-0,939
2101,193	1,5	-0,026
2103,119	2	-0,007
2105,045	1	-0,098
2106,971	-0,5	-0,839
2108,903	-3	-1,749
2110,829	-8,5	-2,746
2112,761	-12	-3,499
2114,686	-12	-3,491
2116,624	-9,5	-3,368
2118,55	-4,5	-2,577
2120,476	-2,5	-1,732
2122,402	0	-0,761
2124,328	1,5	-0,001
2126,26	2	-0,01
2128,186	0,5	-0,167
2130,112	-1	-0,99
2132,037	-3	-1,845
2133,963	-8	-2,719
2135,901	-12	-3,494
2137,827	-12	-3,493
2139,753	-10,5	-3,423
2141,679	-6	-2,778
2143,611	-2,5	-1,927
2145,537	-1	-1,095
2147,463	1,5	-0,204
2149,388	2	-0,004
2151,32	1	-0,091
2153,252	-0,5	-0,898
2155,178	-3	-1,81
2157,11	-8,5	-2,756
2159,036	-12	-3,499
2160,974	-12	-3,49
2162,9	-9	-3,281
2164,826	-4	-2,355
2166,751	-1,5	-1,313
2168,683	1	-0,49
2170,609	1,5	-0,002
2172,535	1,5	-0,043
2210,621	1,5	-0,058
2212,565	0	-0,509
2214,491	-1,5	-1,368
2216,417	-5,5	-2,366
2218,342	-12	-3,338
2220,268	-11,5	-3,496
2222,2	-11	-3,447
2224,126	-5,5	-2,826
2226,052	-3	-1,951
2227,978	-1	-1,151
2229,91	1,5	-0,347
2231,836	2	-0,003
2233,78	1,5	-0,044
2235,705	0	-0,538
2237,631	-1,5	-1,382
2239,563	-6	-2,419
2241,489	-11,5	-3,5
2243,415	-11,5	-3,493
2245,341	-9,5	-3,372
2247,267	-4,5	-2,525
2249,205	-2	-1,727
2251,131	-0,5	-0,798
2253,068	1,5	0
2254,988	2	-0,012
2256,914	1	-0,137
2258,84	0	-0,874
2260,766	-3	-1,813
2262,692	-6,5	-2,624
2264,624	-11,5	-3,483
2266,55	-11,5	-3,494
2268,476	-10	-3,41
2270,402	-5	-2,701
2272,327	-2,5	-1,858
2274,259	-0,5	-0,948
2276,186	2	-0,058
2278,117	2	-0,007
2280,043	1	-0,12
2281,975	-0,5	-0,864
2283,901	-2,5	-1,691
2285,827	-7	-2,604
2287,753	-11,5	-3,5
2289,678	-11,5	-3,493
2291,61	-10	-3,392
2293,548	-5,5	-2,696
2295,474	-2,5	-1,811
2297,4	-0,5	-0,877
2299,326	2	-0,003
2301,258	2	-0,008
2303,184	1	-0,12
2305,11	-0,5	-1,002
2307,035	-3,5	-1,941
2308,973	-9	-2,912
2310,899	-11,5	-3,499
2312,831	-11,5	-3,482
2314,763	-7,5	-3,206
2316,695	-3	-2,197
2318,621	-1	-1,275
2320,547	1,5	-0,253
2322,473	2	-0,007
2324,398	0,5	-0,202
2326,324	-1	-1,156
2328,25	-4,5	-2,122
2330,176	-10,5	-3,062
2332,102	-11,5	-3,498
2334,034	-10,5	-3,465
2335,966	-6	-2,888
2337,892	-2,5	-1,886
2339,818	0	-0,866
2341,743	1,5	-0,001
2343,669	2	-0,019
2345,601	0	-0,324
2347,527	-1,5	-1,37
2349,453	-5,5	-2,303
2351,379	-11,5	-3,274
2353,317	-11,5	-3,496
2355,243	-10,5	-3,438
2357,169	-5,5	-2,801
2359,094	-2	-1,901
2361,026	-0,5	-1,017
2362,952	2	0
2364,878	2	-0,012
2366,804	0,5	-0,244
2368,736	-1	-1,254
2370,662	-4,5	-2,232
2372,594	-11	-3,306
2374,52	-11,5	-3,496
2376,452	-9,5	-3,406
2378,383	-5	-2,686
2380,309	-1,5	-1,67
2382,241	0	-0,704
2384,167	2	-0,001
2386,093	1,5	-0,026
2388,019	0	-0,611
2426,087	-1	-1,218
2428,019	-4	-2,116
2429,944	-10	-2,997
2431,87	-11,5	-3,498
2433,796	-11	-3,474
2435,728	-6,5	-3,06
2437,66	-3	-2,05
2439,586	-1	-1,106
2441,518	2	-0,164
2443,444	2	-0,007
2445,382	1	-0,098
2447,307	-0,5	-0,995
2449,239	-3	-1,984
2451,165	-9,5	-2,966
2453,091	-11	-3,498
2455,023	-10,5	-3,472
2456,949	-5,5	-2,932
2458,875	-2,5	-1,881
2460,801	-0,5	-0,845
2462,733	2	-0,001
2464,664	1,5	-0,019
2466,59	0	-0,515
2468,516	-2	-1,588
2470,442	-6	-2,528
2472,374	-11	-3,497
2474,3	-11	-3,493
2476,226	-9	-3,378
2478,152	-4,5	-2,558
2480,078	-1,5	-1,656
2482,003	0	-0,754
2483,953	2	0
2485,885	2	-0,015
2487,811	0,5	-0,261
2489,737	-1	-1,273
2491,669	-4,5	-2,205
2493,595	-9,5	-3,06
2495,521	-11	-3,498
2497,447	-10,5	-3,472
2499,378	-6	-3,098
2501,31	-3	-2,152
2503,236	-1	-1,16
2505,174	1,5	-0,279
2507,1	1,5	-0,005
2509,026	1	-0,132
2510,952	-0,5	-1,105
2512,878	-3	-1,996
2514,804	-8,5	-2,888
2516,729	-11	-3,499
2518,661	-10,5	-3,48
2520,587	-6,5	-3,17
2522,513	-3,5	-2,278
2524,439	-1	-1,184
2526,377	1,5	-0,315
2528,303	2	-0,003
2530,223	1,5	-0,063
2532,149	0	-0,662
2534,074	-2	-1,613
2536,006	-5,5	-2,414
2537,938	-10,5	-3,216
2539,864	-10,5	-3,497
2541,79	-10	-3,455
2543,716	-5,5	-2,835
2545,648	-2,5	-1,937
2547,574	-0,5	-1,024
2549,524	1,5	-0,148
2551,449	2	-0,006
2553,375	1	-0,126
2555,307	-0,5	-0,857
2557,233	-2,5	-1,733
2559,159	-7,5	-2,725
2561,085	-10,5	-3,499
2563,011	-10,5	-3,488
2564,943	-8	-3,327
2566,869	-4	-2,477
2568,8	-1,5	-1,441
2570,726	1,5	-0,512
2572,67	2	-0,001
2574,596	1,5	-0,026
2576,522	0	-0,388
2578,448	-1	-1,3
2580,38	-3,5	-2,151
2582,312	-9	-3,066
2584,238	-10,5	-3,498
2586,163	-10	-3,469
2588,089	-6,5	-3,057
2590,021	-3	-2,232
2591,947	-1,5	-1,378
2593,873	0,5	-0,524
2595,799	2	-0,002
2597,725	1,5	-0,032
2599,657	0	-0,448
2601,583	-1,5	-1,435
2603,509	-4,5	-2,405
2605,44	-10	-3,382
2607,372	-10	-3,496
2609,298	-8,5	-3,416
2611,224	-4	-2,705
2613,15	-2	-1,85
2615,076	-0,5	-0,959
2617,02	2	-0,101
2618,946	2	-0,007
2620,871	1	-0,114
2622,797	0	-0,887
2624,723	-2	-1,814
2626,655	-5,5	-2,58
2628,587	-9,5	-3,482
2630,513	-10	-3,493
2632,445	-8,5	-3,391
2634,371	-4	-2,519
2636,297	-1,5	-1,659
2638,235	0	-0,76
2640,16	2	-0,001
2642,092	2	-0,014
2644,018	0,5	-0,272
2645,944	-0,5	-1,205
2647,876	-3	-2,075
2649,802	-8,5	-3,054
2651,728	-9,5	-3,498
2653,648	-9	-3,459
2655,58	-5	-2,916
2657,511	-2,5	-1,932
2659,437	-0,5	-0,982
2661,369	1,5	-0,102
2663,289	1,5	-0,008
2665,227	1,5	-0,105
2667,153	0	-0,861
2669,079	-2,5	-1,754
2671,005	-5,5	-2,634
2672,93	-9,5	-3,499
2674,862	-10	-3,493
2676,794	-8,5	-3,403
2678,72	-4	-2,626
2680,646	-2	-1,723
2682,572	-0,5	-0,758
2684,516	1,5	-0,001
2686,442	2	-0,018
2688,374	0	-0,39
2690,3	-1	-1,425
2692,225	-4,5	-2,486
2694,151	-9,5	-3,489
2696,083	-9,5	-3,494
2698,009	-8	-3,394
2699,935	-4	-2,606
2701,867	-1,5	-1,701
2703,793	0	-0,751
2705,713	1,5	-0,001
2707,645	1,5	-0,016
2709,57	0,5	-0,284
2711,496	-0,5	-1,226
2713,422	-3	-2,198
2715,348	-8,5	-3,101
2717,274	-9,5	-3,498
2719,2	-9	-3,474
2721,126	-5,5	-3,022
2723,053	-2,5	-2,03
2724,978	-0,5	-1,07
2726,921	1,5	-0,238
2728,847	2	-0,006
2730,773	1	-0,1
2732,699	0	-0,844
2734,625	-1,5	-1,694
2736,563	-4,5	-2,488
2738,489	-9,5	-3,421
2740,421	-9,5	-3,495
2742,347	-7,5	-3,415
2744,272	-4	-2,732
2746,204	-1,5	-1,641
2748,13	0	-0,697
2750,056	2	-0,001
2751,982	1,5	-0,022
2753,92	0,5	-0,346
2755,846	-0,5	-1,249
2757,772	-3	-2,144
2759,698	-7	-2,999
2761,623	-9	-3,498
2763,549	-9	-3,475
2765,481	-6	-3,17
2767,407	-3	-2,311
2769,339	-1,5	-1,546
2771,265	0	-0,776
2773,197	2	0
2775,129	2	-0,01
2777,055	1	-0,139
2778,98	0	-0,993
2780,906	-2	-1,933
2782,832	-6	-2,764
2784,758	-9	-3,499
2786,69	-9	-3,486
2788,616	-6,5	-3,279
2790,542	-3	-2,395
2792,468	-1	-1,518
2794,4	0	-0,721
2796,325	2	-0,001
2798,251	1,5	-0,023
2800,177	0	-0,482
2802,103	-1	-1,443
2804,029	-4,5	-2,381
2805,961	-9	-3,329
2807,893	-9	-3,496
2809,819	-8	-3,424
2811,745	-3,5	-2,702
2813,67	-1,5	-1,688
2815,596	0	-0,755
2817,522	2	-0,001
2819,448	2	-0,019
2821,374	0,5	-0,422
2823,306	-0,5	-1,304
2825,232	-2,5	-2,195
2827,164	-8	-3,116
2829,09	-8,5	-3,498
2831,015	-7,5	-3,453
2832,941	-4	-2,919
2834,873	-1,5	-1,901
2836,805	0	-0,853
2838,731	2	-0,001
2840,657	2	-0,027
2842,583	0	-0,451
2844,515	-0,5	-1,264
2846,441	-2,5	-2,131
2848,372	-6,5	-2,97
2850,298	-8	-3,498
2852,233	-8	-3,471
2854,156	-4,5	-2,96
2856,088	-1,5	-2,013
2858,014	-0,5	-1,106
2859,94	2	-0,254
2861,866	2	-0,004
2863,792	1	-0,085
2865,724	0	-0,774
2867,649	-1,5	-1,669
2869,575	-4,5	-2,54
2871,501	-8,5	-3,483
2873,427	-8,5	-3,495
2875,353	-7	-3,437
2877,285	-3,5	-2,768
2879,211	-1,5	-1,772
2881,137	0	-0,838
2883,062	2	0
2884,994	2	-0,01
2886,926	1	-0,16
2888,858	0	-0,96
2890,784	-1,5	-1,868
2892,71	-5	-2,759
2894,636	-8	-3,499
2896,568	-8,5	-3,49
2898,5	-6	-3,366
2900,426	-2,5	-2,522
2902,363	-1,5	-1,637
2904,295	0,5	-0,637
2906,221	2	-0,002
2908,153	1,5	-0,044
2910,079	0	-0,679
2912,005	-1,5	-1,689
2913,931	-4,5	-2,734
2915,857	-8	-3,5
2917,783	-8	-3,491
2919,708	-5,5	-3,288
2921,64	-2	-2,352
2923,566	-1	-1,387
2925,492	1,5	-0,394
2927,424	2	-0,003
2929,35	1,5	-0,058
2931,276	0	-0,759
2933,208	-1	-1,683
2935,134	-4,5	-2,618
2937,059	-8	-3,5
2938,985	-8	-3,492
2940,917	-5,5	-3,336
2942,849	-3	-2,503
2944,781	-1	-1,601
2946,707	0	-0,687
2948,633	2	-0,001
2950,559	1,5	-0,033
2952,485	0	-0,539
2954,416	-0,5	-1,447
2956,342	-4	-2,465
2958,274	-8	-3,334
2960,2	-8	-3,496
2962,126	-7	-3,413
2964,052	-3	-2,593
2965,984	-1	-1,69
2967,91	0	-0,681
2969,836	2	-0,001
2971,767	1,5	-0,02
2973,693	0,5	-0,418
2975,619	-0,5	-1,416
2977,545	-2,5	-2,302
2979,477	-8	-3,241
2981,403	-8	-3,497
2983,329	-7,5	-3,455
2985,255	-3,5	-2,89
2987,181	-1,5	-1,93
2989,106	-0,5	-0,986
2991,032	2	-0,006
2992,964	2	-0,01
2994,896	1	-0,163
2996,822	0	-1,05
2998,748	-1,5	-2,004
3000,68	-6	-2,909
3002,606	-8	-3,499
3004,538	-7,5	-3,478
3006,47	-4,5	-3,146
3008,395	-2	-2,223
3010,321	-0,5	-1,306
3012,253	1,5	-0,381
3014,179	2	-0,003
3016,105	1,5	-0,047
3018,031	0	-0,702
3019,963	-0,5	-1,6
3021,889	-3	-2,544
3023,814	-7	-3,497
3025,74	-7,5	-3,493
3027,66	-5,5	-3,343
3029,586	-2,5	-2,466
3031,518	-1	-1,514
3033,45	0,5	-0,604
3035,376	2	-0,002
3037,302	2	-0,027
3039,228	0	-0,419
3077,301	1,5	-0,077
3079,227	0	-0,754
3081,153	-1	-1,678
3083,091	-3	-2,535
3085,023	-7	-3,489
3086,955	-7	-3,494
3088,887	-5	-3,354
3090,813	-2,5	-2,514
3092,745	-0,5	-1,616
3094,664	0,5	-0,604
3096,596	2	-0,001
3098,516	2	-0,022
3100,442	0,5	-0,376
3102,368	0	-1,374
3104,294	-2,5	-2,329
3106,226	-6,5	-3,23
3108,152	-7	-3,497
3110,078	-6	-3,454
3112,003	-3	-2,895
3113,935	-1,5	-2,018
3115,861	0	-1,18
3117,793	1,5	-0,35
3119,719	2	-0,003
3121,651	1,5	-0,058
3123,577	0	-0,648
3125,503	-0,5	-1,694
3127,429	-3	-2,574
3129,366	-6,5	-3,344
3131,292	-7	-3,495
3133,218	-6	-3,429
3135,144	-2,5	-2,701
3137,07	-1	-1,805
3138,996	0	-0,855
3140,922	2	0
3142,848	2	-0,013
3144,774	1	-0,233
3146,699	0	-1,182
3148,631	-1	-2,086
3150,557	-5	-2,949
3152,483	-7	-3,498
3154,409	-6,5	-3,478
3156,335	-4	-3,188
3158,261	-1,5	-2,212
3160,187	-0,5	-1,298
3162,113	1,5	-0,353
3164,038	2	-0,004
3165,976	1,5	-0,063
3167,902	0	-0,74
3169,834	-0,5	-1,661
3171,766	-3	-2,549
3173,692	-6,5	-3,498
3175,624	-6,5	-3,494
3177,556	-5	-3,375
3178,954	2	0