File: Cycling_tests/_50perc/_1gap/entrada/_4.txt
Time (s)	Load (N)	Displacement (mm)
0	0	-0,035
0,683	-19,5	-3,376
1,355	-12	-2,009
2,015	0,5	-0,002
2,69	-14,5	-2,946
3,341	-15	-2,64
4,002	0,5	-0,017
4,681	-9,5	-2,315
5,339	-19,5	-3,304
6,022	0	-0,08
6,874	-11,5	-2,631
7,528	-18	-2,98
8,194	0,5	-0,039
8,854	-7,5	-1,967
9,508	-19,5	-3,5
10,156	-1,5	-0,351
10,804	-4	-1,142
11,458	-19,5	-3,494
12,106	-5	-1,164
12,754	0,5	-0,366
13,402	-17,5	-3,416
14,056	-10	-1,952
14,71	1	-0,002
15,358	-12,5	-2,891
16,018	-15	-2,684
16,678	1	-0,017
17,326	-8	-2,109
17,98	-19	-3,486
18,634	-0,5	-0,214
19,282	-4,5	-1,345
19,941	-19	-3,496
20,607	-4	-1,016
21,262	0,5	-0,565
21,915	-18	-3,459
22,565	-8	-1,727
23,217	1	-0,001
23,865	-14	-3,096
24,525	-12,5	-2,443
25,179	1	-0,01
25,848	-10	-2,454
26,495	-18,5	-3,382
27,141	0	-0,17
27,795	-4,5	-1,453
28,449	-18,5	-3,497
29,097	-4	-0,998
29,755	0	-0,614
30,411	-18	-3,464
31,065	-8	-1,753
31,72	1	-0,001
32,376	-13,5	-3,073
33,033	-13	-2,482
33,693	1	-0,01
34,347	-9	-2,39
34,995	-18	-3,2
35,655	0	-0,087
36,309	-5,5	-1,662
36,963	-18	-3,498
37,622	-2,5	-0,776
38,277	-1	-0,775
38,925	-18	-3,476
39,578	-7,5	-1,64
40,232	1	-0,001
40,88	-13	-3,065
41,528	-13,5	-2,524
42,182	1,5	-0,012
42,832	-8	-2,273
43,49	-18	-3,309
44,146	0	-0,126
44,798	-4,5	-1,538
45,458	-18	-3,498
46,112	-2,5	-0,746
46,76	-0,5	-0,716
47,414	-17,5	-3,474
48,068	-6,5	-1,599
48,718	1,5	0
49,364	-14	-3,232
50,018	-13,5	-2,568
50,666	1,5	-0,015
51,32	-7,5	-2,239
51,968	-18	-3,478
52,628	0	-0,184
53,282	-4	-1,378
53,936	-17,5	-3,496
54,59	-3	-0,936
55,237	0	-0,572
55,891	-17	-3,458
56,553	-7,5	-1,796
57,2	1,5	-0,001
57,847	-12	-2,984
58,507	-12,5	-2,554
59,161	1,5	-0,013
59,815	-7,5	-2,25
60,463	-17,5	-3,321
61,111	0	-0,15
61,773	-4,5	-1,526
62,425	-17,5	-3,498
63,085	-2	-0,75
63,739	-0,5	-0,797
64,393	-17	-3,48
65,049	-5,5	-1,459
65,695	1,5	-0,007
66,355	-14	-3,3
67,003	-10	-2,248
67,669	1,5	-0,004
68,329	-10	-2,634
68,99	-16,5	-3,128
69,643	1	-0,075
70,303	-5	-1,702
70,951	-17,5	-3,499
71,605	-2,5	-0,894
72,258	-0,5	-0,668
72,913	-17	-3,47
73,572	-6	-1,584
74,226	1,5	0
74,88	-13,5	-3,222
75,528	-11	-2,354
76,177	1,5	-0,008
76,836	-8,5	-2,45
77,484	-16	-3,1
78,138	0,5	-0,067
78,822	-6	-1,876
79,482	-17,5	-3,499
80,145	-0,5	-0,431
80,802	-3	-1,154
81,456	-17	-3,493
82,11	-4	-1,186
82,77	0,5	-0,44
83,424	-16	-3,439
84,084	-7,5	-1,881
84,744	1,5	-0,001
85,398	-11,5	-2,958
86,047	-12	-2,545
86,709	1,5	-0,012
87,354	-6,5	-2,142
88,008	-17	-3,381
88,662	0	-0,167
89,316	-4	-1,411
89,976	-17	-3,497
90,63	-2	-0,765
91,29	-0,5	-0,759
91,949	-16,5	-3,479
92,618	-5	-1,376
93,269	1,5	-0,163
93,917	-14	-3,345
94,571	-10	-2,201
95,231	1,5	-0,004
95,891	-9,5	-2,636
96,545	-15	-2,96
97,199	1	-0,044
97,86	-5,5	-1,849
98,513	-16,5	-3,499
99,167	-0,5	-0,413
99,821	-3	-1,085
100,476	-17	-3,492
101,136	-3,5	-1,147
101,789	0,5	-0,413
102,44	-15	-3,426
103,085	-8	-1,993
103,745	1,5	-0,002
104,399	-11	-2,883
105,053	-13	-2,68
105,707	1,5	-0,018
106,355	-6	-2,079
107,015	-16,5	-3,489
107,669	0	-0,218
108,329	-3,5	-1,332
108,983	-16,5	-3,496
146,054	1	-0,088
146,72	-4,5	-1,66
147,368	-16	-3,498
148,028	-2,5	-1,023
148,682	1	-0,475
149,336	-15	-3,445
149,984	-7,5	-2,018
150,638	1,5	-0,002
151,292	-9,5	-2,77
151,946	-13,5	-2,825
152,612	1,5	-0,024
153,266	-5,5	-2,023
153,914	-16	-3,499
154,568	-1	-0,668
155,222	-1	-0,856
155,876	-16	-3,483
156,53	-4,5	-1,468
157,19	1,5	-0,065
157,844	-13,5	-3,313
158,504	-8,5	-2,184
159,164	1,5	-0,003
159,824	-9	-2,659
160,471	-15	-3,074
161,126	1,5	-0,064
161,785	-4,5	-1,746
162,433	-16	-3,499
163,081	-0,5	-0,544
163,736	-2,5	-1,017
164,395	-15,5	-3,492
165,055	-3	-1,269
165,715	1	-0,27
166,369	-14,5	-3,397
167,029	-7,5	-1,969
167,683	1,5	-0,002
168,337	-10	-2,798
168,997	-12	-2,756
169,651	1,5	-0,022
170,329	-6	-2,163
170,983	-15,5	-3,5
171,643	0	-0,398
172,297	-2,5	-1,126
172,951	-15,5	-3,493
173,611	-3	-1,17
174,265	1,5	-0,341
174,925	-14,5	-3,427
175,579	-6,5	-1,931
176,239	1,5	-0,001
176,893	-10	-2,93
177,547	-12	-2,659
178,195	1,5	-0,02
178,849	-5,5	-2,11
179,508	-15,5	-3,466
180,156	0	-0,218
180,81	-3	-1,371
181,468	-15,5	-3,496
182,124	-2	-0,93
182,784	0	-0,634
183,438	-14,5	-3,467
184,094	-5	-1,675
184,746	1,5	0
185,4	-12	-3,193
186,054	-10,5	-2,508
186,708	1,5	-0,011
187,362	-6,5	-2,285
188,016	-15	-3,206
188,676	1,5	-0,087
189,336	-4,5	-1,665
189,991	-15,5	-3,498
190,644	-0,5	-0,595
191,304	-1,5	-0,963
191,958	-15	-3,488
192,624	-3	-1,26
193,278	1,5	-0,294
193,926	-14	-3,396
194,585	-6,5	-1,951
195,239	2	-0,002
195,887	-10	-2,894
196,541	-11,5	-2,674
197,195	1,5	-0,018
197,843	-5,5	-2,114
198,504	-15,5	-3,499
199,157	0	-0,313
199,811	-3	-1,26
200,465	-15,5	-3,494
201,122	-2	-1,04
201,767	0,5	-0,495
202,427	-15	-3,45
203,081	-6	-1,799
203,735	1,5	-0,001
204,389	-10,5	-2,995
205,037	-11	-2,625
205,691	1,5	-0,016
206,351	-6,5	-2,192
207,005	-15,5	-3,348
207,659	0,5	-0,14
208,313	-3,5	-1,455
208,973	-15,5	-3,498
209,627	-1,5	-0,764
210,287	-1	-0,825
210,941	-15	-3,482
211,595	-3,5	-1,414
212,255	1,5	-0,11
212,908	-13	-3,336
213,562	-8	-2,118
214,216	1,5	-0,003
214,864	-8,5	-2,661
215,524	-13	-2,856
216,172	1,5	-0,036
216,826	-5,5	-1,965
217,486	-15	-3,5
218,146	0	-0,247
218,8	-3	-1,3
219,454	-15	-3,495
220,108	-2	-0,94
220,762	0	-0,641
221,416	-15	-3,467
222,064	-5	-1,66
222,712	1,5	-0,001
223,366	-11,5	-3,146
224,02	-9,5	-2,374
224,674	1,5	-0,008
225,334	-7,5	-2,448
225,988	-14,5	-3,02
226,642	1,5	-0,054
227,297	-4,5	-1,785
227,956	-15,5	-3,499
228,61	0	-0,435
229,264	-2,5	-1,103
229,917	-15	-3,492
230,572	-2,5	-1,148
231,219	1	-0,393
231,879	-15	-3,436
232,534	-5,5	-1,843
233,187	1,5	-0,001
233,841	-10,5	-2,999
234,495	-10,5	-2,603
235,149	1,5	-0,015
235,803	-6	-2,213
236,457	-15	-3,413
237,117	0,5	-0,154
237,771	-3,5	-1,488
238,425	-15,5	-3,498
239,085	-1,5	-0,822
239,739	-0,5	-0,733
240,399	-15	-3,477
241,053	-4	-1,52
241,707	1,5	-0,001
242,361	-12	-3,256
243,021	-8,5	-2,216
243,675	1,5	-0,004
244,335	-9	-2,676
244,989	-12	-2,808
245,643	1,5	-0,029
246,297	-5	-2,007
246,951	-15	-3,47
247,611	0,5	-0,202
248,264	-3	-1,38
248,918	-15	-3,497
249,578	-1,5	-0,82
250,226	-0,5	-0,796
250,88	-15	-3,48
251,534	-3,5	-1,375
252,188	1,5	-0,196
252,848	-14	-3,384
253,502	-7	-1,998
254,15	1,5	-0,002
254,798	-9	-2,72
255,452	-12	-2,774
256,1	1,5	-0,028
256,76	-5,5	-2,057
257,408	-15	-3,494
258,062	0	-0,224
258,712	-3	-1,242
259,358	-15	-3,494
260,012	-2	-1,038
260,66	1	-0,45
261,32	-15	-3,446
261,974	-5	-1,765
262,622	2	-0,001
263,276	-10,5	-3,014
263,932	-10	-2,593
264,584	1,5	-0,014
265,237	-6	-2,238
265,891	-15	-3,286
266,546	0,5	-0,122
267,205	-3,5	-1,601
267,859	-15	-3,498
268,513	-0,5	-0,623
269,173	-1,5	-0,946
269,827	-15	-3,487
270,481	-3	-1,274
271,135	1,5	-0,312
271,789	-14	-3,411
272,443	-6	-1,884
273,091	2	-0,002
273,751	-10	-2,94
274,405	-10	-2,565
275,059	2	-0,015
275,713	-6	-2,22
276,367	-15	-3,294
277,021	1	-0,124
277,675	-3,5	-1,53
278,329	-15	-3,498
278,983	-1	-0,774
279,637	-0,5	-0,749
280,291	-15	-3,476
280,945	-4	-1,49
281,599	1,5	-0,012
282,252	-12,5	-3,283
282,907	-8	-2,33
283,554	2	-0,007
284,208	-7	-2,396
284,862	-15	-3,18
285,522	1	-0,08
286,176	-4	-1,694
286,83	-15	-3,498
287,478	-0,5	-0,677
288,132	-1	-0,884
288,786	-15	-3,485
289,446	-3	-1,38
290,1	2	-0,148
290,748	-13	-3,338
327,753	1,5	-0,068
328,414	-4	-1,788
329,068	-15	-3,499
329,716	0	-0,493
330,37	-1,5	-1,037
331,024	-15	-3,49
331,678	-3	-1,178
332,338	1	-0,467
332,992	-14	-3,444
333,646	-5,5	-1,842
334,3	2	-0,001
334,953	-9	-2,942
335,613	-10,5	-2,582
336,267	1,5	-0,014
336,921	-5,5	-2,196
337,569	-15	-3,313
338,223	1	-0,131
338,877	-3	-1,459
339,525	-15	-3,497
340,179	-1	-0,752
340,833	-0,5	-0,808
341,487	-15	-3,48
342,141	-3,5	-1,395
342,795	1,5	-0,136
343,449	-12,5	-3,35
344,103	-6,5	-2,038
344,769	2	-0,002
345,417	-8,5	-2,836
346,071	-11	-2,691
346,725	2	-0,019
347,385	-5	-2,159
348,039	-15	-3,4
348,699	1	-0,138
349,359	-3	-1,481
350,013	-15	-3,497
350,667	-0,5	-0,758
351,321	0	-0,77
351,975	-14,5	-3,478
352,629	-4	-1,519
353,288	2	-0,074
353,942	-12	-3,318
354,596	-7,5	-2,156
355,25	2	-0,004
355,904	-8	-2,691
356,558	-12,5	-2,841
357,212	1,5	-0,031
357,863	-4,5	-1,959
358,514	-14,5	-3,5
359,168	0	-0,339
359,828	-2,5	-1,273
360,482	-15	-3,495
361,136	-1,5	-0,92
361,79	0	-0,621
362,444	-14,5	-3,466
363,098	-5	-1,72
363,752	2	-0,001
364,406	-10	-3,099
365,06	-9,5	-2,432
365,72	2	-0,008
366,374	-6	-2,402
367,028	-14,5	-3,201
367,682	1,5	-0,094
368,342	-3,5	-1,615
368,996	-15	-3,498
369,649	-0,5	-0,652
370,303	-1	-0,908
370,951	-15	-3,486
371,611	-3	-1,3
372,265	2	-0,236
372,919	-12,5	-3,39
373,579	-6,5	-2,024
374,233	2	-0,002
374,887	-8	-2,775
375,535	-12	-2,835
376,183	1,5	-0,031
376,837	-4	-1,946
377,509	-14,5	-3,461
378,163	0,5	-0,195
378,811	-2,5	-1,406
379,465	-14,5	-3,497
380,119	-1,5	-0,883
380,773	0	-0,667
381,421	-14,5	-3,47
382,075	-4,5	-1,655
382,729	2	-0,001
383,383	-10	-3,095
384,043	-9	-2,443
384,703	2	-0,008
385,351	-6	-2,409
386,005	-14,5	-3,188
386,659	1	-0,09
387,313	-3	-1,649
387,966	-15	-3,498
388,62	-0,5	-0,696
389,274	-0,5	-0,854
389,928	-14,5	-3,483
390,582	-3	-1,429
391,23	2	-0,066
391,878	-11	-3,299
392,532	-7,5	-2,148
393,186	2	-0,004
393,84	-8	-2,704
394,494	-13	-2,891
395,148	1,5	-0,036
395,796	-4	-1,889
396,45	-14,5	-3,499
397,104	0	-0,419
397,758	-1,5	-1,098
398,412	-14,5	-3,492
399,066	-2,5	-1,19
399,714	1,5	-0,337
400,368	-13	-3,408
401,022	-6	-1,973
401,676	2	-0,002
402,326	-8	-2,785
402,972	-12	-2,793
403,632	2	-0,024
404,292	-4,5	-2,092
404,945	-14,5	-3,489
405,599	0,5	-0,219
406,247	-2,5	-1,346
406,901	-14,5	-3,496
407,555	-2	-0,963
408,209	0,5	-0,634
408,869	-14	-3,469
409,523	-4,5	-1,644
410,183	2	0
410,831	-10	-3,143
411,479	-8,5	-2,429
412,133	2	-0,009
412,793	-6	-2,385
413,447	-14,5	-3,202
414,095	1	-0,103
414,749	-3	-1,585
415,403	-14,5	-3,498
416,057	-0,5	-0,628
416,717	-1	-1,021
417,371	-14,5	-3,49
418,019	-2,5	-1,264
418,673	2	-0,277
419,327	-12,5	-3,399
419,981	-6	-2,019
420,641	2	-0,002
421,295	-8	-2,815
421,949	-11	-2,738
422,605	2	-0,022
423,251	-4,5	-2,032
423,904	-14,5	-3,5
424,558	0	-0,275
425,212	-2	-1,282
425,86	-14,5	-3,495
426,514	-1,5	-1,014
427,168	1,5	-0,423
427,822	-13,5	-3,436
428,476	-5,5	-1,9
429,13	2	-0,002
429,778	-9	-2,889
430,432	-11	-2,706
431,086	1,5	-0,02
431,742	-5	-2,125
432,4	-14,5	-3,438
433,054	0	-0,184
433,702	-2,5	-1,318
434,356	-14,5	-3,496
435,01	-1,5	-0,98
435,664	0,5	-0,612
436,324	-14	-3,468
436,972	-4,5	-1,687
437,626	2	0
438,28	-10,5	-3,144
438,934	-9	-2,44
439,582	2	-0,009
440,235	-5,5	-2,27
440,883	-14,5	-3,432
441,537	0,5	-0,18
442,191	-2,5	-1,342
442,845	-14,5	-3,496
443,499	-1,5	-0,967
444,153	0,5	-0,577
444,807	-14	-3,46
445,461	-4,5	-1,715
446,115	2	-0,001
446,769	-10	-3,105
447,417	-9	-2,483
448,071	2	-0,01
448,731	-5,5	-2,34
449,384	-14,5	-3,231
450,033	1	-0,111
450,687	-3	-1,514
451,341	-14,5	-3,498
451,995	-1	-0,768
452,643	0	-0,746
453,297	-14	-3,476
453,945	-4	-1,508
454,593	2	0
455,253	-10,5	-3,251
455,907	-8,5	-2,335
456,554	2	-0,007
457,208	-6	-2,448
457,862	-13,5	-3,121
458,516	1,5	-0,073
459,164	-3	-1,574
459,819	-14,5	-3,498
460,472	-0,5	-0,671
461,126	-0,5	-0,841
461,774	-14	-3,481
462,428	-3,5	-1,475
463,088	2	-0,097
463,736	-11,5	-3,313
464,396	-7	-2,178
465,05	2	-0,004
465,704	-7	-2,63
466,358	-12,5	-2,964
467,006	1,5	-0,05
467,654	-3,5	-1,786
468,314	-14,5	-3,499
468,968	0	-0,509
469,616	-1	-0,903
470,276	-14	-3,487
470,924	-3	-1,394
471,578	2	-0,111
472,226	-11,5	-3,32
472,88	-7	-2,226
546,069	-8,5	-2,806
546,723	-10,5	-2,734
547,377	2	-0,022
548,025	-4	-1,976
548,679	-14	-3,488
549,327	0	-0,241
549,981	-2,5	-1,336
550,635	-14	-3,496
551,283	-1	-0,914
551,937	0	-0,61
552,591	-14	-3,464
553,239	-4	-1,644
553,887	2	-0,001
554,541	-9,5	-3,124
555,189	-8	-2,41
555,843	2	-0,008
556,491	-6	-2,353
557,145	-14	-3,207
557,799	1	-0,096
558,447	-3,5	-1,668
559,101	-14	-3,498
559,755	-0,5	-0,633
560,409	-1,5	-0,901
561,057	-14	-3,484
561,711	-3	-1,354
562,358	1,5	-0,098
563,012	-12	-3,331
563,666	-7	-2,143
564,32	2	-0,003
564,974	-7	-2,586
565,628	-12	-3,009
566,276	1,5	-0,057
566,93	-4	-1,738
567,584	-14	-3,499
568,232	0	-0,536
568,886	-1	-0,912
569,54	-14	-3,486
570,188	-2,5	-1,399
570,842	2	-0,027
571,49	-11	-3,274
572,144	-7,5	-2,31
572,798	2	-0,006
573,446	-5,5	-2,393
574,1	-13,5	-3,15
574,754	1,5	-0,081
575,414	-3	-1,643
576,068	-14	-3,498
576,728	0	-0,619
577,376	-0,5	-0,837
578,03	-14	-3,482
578,684	-3	-1,445
579,332	2	-0,007
579,985	-10,5	-3,274
580,633	-7,5	-2,262
581,287	2	-0,006
581,941	-6	-2,464
582,595	-13	-3,065
583,249	1,5	-0,068
583,903	-3	-1,678
584,563	-14	-3,499
585,211	0	-0,587
585,865	-1	-0,937
586,519	-14	-3,487
587,167	-2,5	-1,419
587,821	1,5	-0,08
588,475	-11	-3,323
589,129	-6,5	-2,21
589,777	2	-0,005
590,431	-5,5	-2,526
591,085	-13,5	-3,07
591,739	1,5	-0,064
592,393	-3,5	-1,714
593,047	-14	-3,498
593,701	0	-0,553
594,349	-1,5	-0,919
595,003	-13,5	-3,486
595,653	-2,5	-1,446
596,299	2	-0,027
596,952	-11	-3,299
597,6	-7	-2,255
598,254	2	-0,005
598,914	-6	-2,546
599,562	-12,5	-3,04
600,216	1,5	-0,057
600,864	-3	-1,718
601,518	-14	-3,499
602,172	0	-0,58
602,82	-1	-0,939
603,474	-13,5	-3,487
604,134	-2,5	-1,329
604,782	2	-0,185
605,436	-12	-3,368
606,084	-6,5	-2,164
606,744	2,5	-0,003
607,392	-7	-2,624
608,04	-12	-2,974
608,7	1,5	-0,043
609,348	-3,5	-1,824
610,002	-13,5	-3,499
610,662	0	-0,482
611,31	-1,5	-1,055
611,964	-13,5	-3,491
612,618	-2	-1,265
613,266	2	-0,185
613,92	-11,5	-3,368
614,568	-6	-2,159
615,227	2	-0,004
615,881	-7	-2,676
616,529	-11,5	-2,918
617,183	1,5	-0,04
617,837	-3,5	-1,87
618,485	-13,5	-3,499
619,139	0	-0,469
619,793	-1,5	-1,091
620,447	-14	-3,492
621,101	-2	-1,164
621,755	1	-0,432
622,403	-12,5	-3,431
623,063	-6	-1,913
623,717	2	-0,002
624,371	-8,5	-2,902
625,025	-9	-2,64
625,679	2	-0,016
626,327	-4,5	-2,081
626,981	-14	-3,455
627,629	0,5	-0,215
628,283	-2	-1,28
628,931	-14	-3,495
629,585	-1,5	-1,064
630,239	1,5	-0,46
630,887	-13	-3,437
631,547	-4	-1,774
632,194	2	-0,001
632,848	-9	-2,998
633,502	-9	-2,51
634,15	2	-0,012
634,804	-5	-2,216
635,458	-14	-3,316
636,106	1	-0,146
636,766	-2,5	-1,44
637,414	-14	-3,497
638,068	-1	-0,898
638,722	0	-0,667
639,37	-13,5	-3,467
640,036	-3	-1,559
640,684	2	0
641,338	-10	-3,204
641,992	-8	-2,379
642,64	2	-0,008
643,294	-5,5	-2,384
643,948	-13	-3,116
644,596	1,5	-0,08
645,25	-3	-1,591
645,904	-13,5	-3,498
646,552	-0,5	-0,749
647,206	0	-0,731
647,86	-13,5	-3,475
648,52	-3	-1,527
649,174	2	0
649,821	-9,5	-3,166
650,475	-7,5	-2,332
651,123	2	-0,007
651,777	-5,5	-2,358
652,437	-13,5	-3,135
653,085	1,5	-0,084
653,739	-2,5	-1,502
654,393	-13,5	-3,498
655,041	-1	-0,837
655,707	0	-0,698
656,361	-13,5	-3,472
657,015	-3,5	-1,625
657,669	2	-0,001
658,317	-9	-3,068
658,971	-8,5	-2,517
659,619	2	-0,013
660,279	-5	-2,239
660,933	-13,5	-3,279
661,581	1	-0,13
662,235	-2,5	-1,397
662,883	-13,5	-3,496
663,537	-1	-0,941
664,197	0	-0,638
664,845	-13	-3,464
665,499	-3,5	-1,678
666,147	2	-0,001
666,8	-8	-3,036
667,454	-9	-2,522
668,108	2	-0,012
668,762	-5,5	-2,229
669,416	-13,5	-3,263
670,064	1	-0,124
670,718	-2,5	-1,508
671,372	-14	-3,498
672,02	-1	-0,819
672,686	0	-0,742
673,346	-13,5	-3,478
673,994	-3	-1,534
674,648	2	0
675,296	-10	-3,231
675,95	-7,5	-2,37
676,604	2	-0,007
677,252	-5	-2,307
677,906	-13,5	-3,248
678,554	1	-0,119
679,208	-3	-1,476
679,862	-13,5	-3,498
680,51	-0,5	-0,804
681,176	0	-0,709
681,83	-13,5	-3,473
682,478	-3,5	-1,629
683,132	2	0
683,78	-9,5	-3,133
684,439	-9	-2,415
685,097	2	-0,008
685,741	-5,5	-2,363
686,395	-13,5	-3,207
687,043	1,5	-0,105
687,697	-2,5	-1,58
688,345	-13,5	-3,498
688,999	-0,5	-0,76
689,653	0	-0,748
690,307	-13,5	-3,476
690,961	-3,5	-1,598
691,609	2	-0,001
692,263	-10	-3,122
692,917	-8,5	-2,457
693,566	1,5	-0,01
694,219	-5,5	-2,35
694,867	-13,5	-3,253
695,521	1	-0,11
696,175	-3	-1,533
696,829	-13,5	-3,498
697,483	-0,5	-0,785
698,131	0	-0,729
698,785	-13,5	-3,475
699,433	-3,5	-1,615
700,099	2	0
700,753	-10,5	-3,25
701,401	-7,5	-2,365
702,055	2	-0,007
702,702	-5,5	-2,382
703,356	-13,5	-3,162
704,01	1,5	-0,083
704,664	-3	-1,623
705,318	-13,5	-3,498
705,966	-0,5	-0,706
706,62	-1	-0,838
707,274	-13,5	-3,482
707,922	-3	-1,517
708,582	2	0
709,236	-10,5	-3,251
709,884	-7,5	-2,382
710,538	2	-0,008
711,186	-5,5	-2,361
711,84	-13,5	-3,264
712,488	1	-0,125
713,142	-3	-1,465
713,796	-13,5	-3,497
714,444	-1	-0,858
715,098	0	-0,664
715,746	-13,5	-3,466
716,4	-3	-1,598
717,048	2	-0,001
717,702	-9,5	-3,084
718,356	-8,5	-2,479
719,004	2	-0,011
719,658	-4,5	-2,242
720,311	-13,5	-3,31
720,959	1	-0,143
721,607	-2,5	-1,444
722,261	-13,5	-3,497
722,915	-1,5	-0,885
723,563	0	-0,644
724,217	-13	-3,468
724,865	-3,5	-1,658
725,519	2	0
726,167	-10	-3,159
726,827	-7,5	-2,374
727,475	2	-0,008
728,129	-5,5	-2,384
728,783	-13	-3,214
729,431	1	-0,107
730,085	-3	-1,589
730,739	-13,5	-3,498
731,387	-0,5	-0,691
732,041	-1	-0,853
732,689	-13,5	-3,482
733,345	-3	-1,469
733,991	1,5	-0,019
734,645	-10,5	-3,288
735,299	-6	-2,242
735,953	2	-0,005
736,606	-6	-2,539
737,254	-12,5	-3,08
737,908	1,5	-0,065
738,556	-3	-1,658
739,21	-13,5	-3,498
739,864	0	-0,594
740,513	-1	-0,878
741,166	-13,5	-3,484
741,82	-2,5	-1,367
742,469	2	-0,032
743,122	-11	-3,295
743,77	-6,5	-2,265
744,424	2	-0,005
745,078	-6	-2,512
745,732	-12,5	-3,078
746,38	1,5	-0,064
747,034	-3	-1,611
747,688	-13,5	-3,498
748,336	-1	-0,793
748,99	0	-0,598
749,638	-13	-3,459
750,292	-4	-1,762
750,946	2	-0,001
751,594	-9	-3,06
752,248	-8	-2,455
752,896	2	-0,01
753,55	-5	-2,261
754,204	-13,5	-3,343
754,852	0,5	-0,157
755,505	-2,5	-1,423
756,153	-13,5	-3,497
756,807	-1	-0,898
757,455	0,5	-0,601
758,109	-13	-3,46
758,763	-3,5	-1,752
759,411	2	-0,001
760,065	-9	-3
760,719	-8,5	-2,605
761,373	2	-0,015
762,027	-4,5	-2,054
762,675	-13,5	-3,5
763,329	0	-0,311
763,983	-1,5	-1,042
764,643	-13,5	-3,491
765,291	-2	-1,278
765,945	2	-0,054
766,599	-11	-3,307
767,247	-6,5	-2,294
767,901	2	-0,006
768,555	-5	-2,327
769,209	-13,5	-3,248
769,857	1	-0,117
770,511	-2,5	-1,395
771,165	-13,5	-3,497
771,813	-1	-0,964
772,472	1,5	-0,38
773,121	-12,5	-3,42
773,774	-5	-1,932
774,422	2	-0,002
775,076	-7	-2,64
775,724	-11	-2,942
776,378	2	-0,041
777,026	-3	-1,747
777,68	-13,5	-3,499
778,334	0	-0,545
778,982	-0,5	-0,787
779,636	-13,5	-3,479
780,29	-3	-1,521
780,944	2	0
781,592	-9,5	-3,178
782,252	-7	-2,323
782,906	2	-0,006
783,554	-5	-2,377
784,208	-13	-3,16
784,856	1,5	-0,091
785,51	-2,5	-1,512
786,164	-13,5	-3,498
786,812	-0,5	-0,825
787,466	0	-0,597
788,114	-12,5	-3,459
788,774	-4	-1,67
789,428	2	-0,001
790,075	-8,5	-2,992
790,729	-8,5	-2,539
791,377	2	-0,014
792,025	-4,5	-2,082
792,679	-13,5	-3,5
793,333	0,5	-0,268
793,981	-1,5	-1,103
794,635	-13,5	-3,492
795,283	-1,5	-1,221
795,937	1,5	-0,229
796,591	-11,5	-3,384
797,239	-5,5	-2,148
797,893	2	-0,004
798,541	-6	-2,476
907,837	-6	-2,21
908,491	2	-0,004
909,145	-6	-2,637
909,799	-11,5	-2,927
910,447	1,5	-0,044
911,101	-3	-1,869
911,749	-13	-3,499
912,408	0	-0,435
913,062	-1	-1,088
913,71	-13	-3,491
914,37	-2	-1,238
915,018	2	-0,169
915,672	-11	-3,361
916,32	-6	-2,174
916,974	2	-0,004
917,622	-5,5	-2,547
918,276	-12	-2,995
918,924	1,5	-0,055
919,578	-3	-1,657
920,232	-13	-3,498
920,88	-0,5	-0,675
921,534	-0,5	-0,88
922,182	-13	-3,483
922,836	-2,5	-1,417
923,484	2	-0,073
924,144	-10,5	-3,336
924,804	-6	-2,124
925,458	2	-0,003
926,106	-6	-2,616
926,76	-12	-3,01
927,408	1,5	-0,058
928,062	-3	-1,743
928,71	-13	-3,499
929,364	-0,5	-0,623
930,012	-0,5	-0,87
930,665	-13	-3,484
931,313	-2,5	-1,425
931,967	2	-0,007
932,615	-10	-3,258
933,269	-7	-2,306
933,917	2	-0,007
934,571	-5	-2,416
935,231	-12,5	-3,155
935,879	1	-0,087
936,533	-2,5	-1,523
937,181	-13	-3,497
937,835	-0,5	-0,804
938,483	1,5	-0,576
939,137	-12,5	-3,46
939,792	-4	-1,748
940,445	2	-0,001
941,099	-8	-3,012
941,747	-8,5	-2,568
942,395	2	-0,015
943,043	-4	-2,057
943,697	-13	-3,5
944,345	0	-0,329
944,999	-1,5	-1,108
945,647	-13	-3,491
946,301	-2	-1,224
946,955	2	-0,231
947,602	-11	-3,373
948,256	-5,5	-2,078
948,904	2	-0,003
949,558	-5,5	-2,568
950,206	-12	-3,035
950,854	1,5	-0,061
951,502	-2	-1,565
952,156	-13,5	-3,498
952,804	-0,5	-0,843
953,458	0	-0,67
954,106	-13	-3,467
954,76	-3,5	-1,638
955,413	2	0
956,062	-8,5	-3,105
956,716	-8	-2,444
957,37	2	-0,01
958,024	-5	-2,25
958,672	-13,5	-3,394
959,326	0,5	-0,165
959,974	-2	-1,336
960,628	-13	-3,496
961,282	-1,5	-0,962
961,93	1,5	-0,423
962,584	-12	-3,436
963,232	-4,5	-1,878
963,886	2	-0,002
964,534	-7	-2,789
965,181	-10,5	-2,75
965,829	1,5	-0,026
966,489	-4	-2,042
967,137	-13	-3,5
967,797	0	-0,269
968,457	-1,5	-1,217
969,105	-13	-3,494
969,759	-2	-1,153
970,407	1,5	-0,274
971,061	-11	-3,398
971,709	-5,5	-2,058
972,363	2	-0,002
973,011	-6	-2,626
973,659	-11,5	-2,929
974,307	1,5	-0,044
974,961	-3	-1,685
975,609	-13	-3,498
976,263	-0,5	-0,739
976,917	0	-0,768
977,565	-13	-3,476
978,219	-3	-1,512
978,873	2	0
979,527	-9,5	-3,196
980,175	-7,5	-2,45
980,829	2	-0,009
981,477	-5	-2,336
982,13	-13	-3,21
982,784	1	-0,096
983,432	-2	-1,525
984,086	-13,5	-3,498
984,74	-0,5	-0,774
985,394	0	-0,675
986,042	-12,5	-3,467
986,696	-3,5	-1,653
987,344	2	-0,001
987,992	-8,5	-3,085
988,64	-9	-2,545
989,294	2	-0,012
989,942	-4,5	-2,239
990,602	-13	-3,369
991,25	0,5	-0,166
991,904	-2	-1,357
992,558	-13,5	-3,496
993,212	-1	-0,972
993,86	1,5	-0,446
994,514	-12	-3,44
995,162	-4,5	-1,909
995,816	2	-0,001
996,47	-7,5	-2,885
997,124	-9	-2,651
997,772	2	-0,019
998,426	-4	-2,107
999,08	-13	-3,461
999,727	0,5	-0,215
1000,381	-2	-1,27
1001,029	-13	-3,495
1001,683	-1,5	-1,095
1002,337	1,5	-0,384
1002,991	-12	-3,427
1003,645	-5	-1,967
1004,293	2	-0,002
1004,947	-7	-2,748
1005,595	-10,5	-2,808
1006,249	1,5	-0,028
1006,897	-3,5	-1,898
1007,551	-13	-3,499
1008,199	0	-0,474
1008,853	-1,5	-1,028
1009,501	-13	-3,489
1010,149	-2	-1,356
1010,797	2	-0,109
1011,451	-10,5	-3,336
1012,099	-6,5	-2,276
1012,759	2	-0,005
1013,407	-6	-2,549
1014,061	-12	-3,063
1014,715	1,5	-0,062
1015,369	-3	-1,667
1016,017	-13	-3,498
1016,676	0	-0,669
1017,324	-0,5	-0,857
1017,978	-13	-3,484
1018,632	-2,5	-1,431
1019,28	2	-0,032
1019,934	-10	-3,296
1020,582	-6	-2,287
1021,236	2	-0,006
1021,884	-5	-2,398
1022,538	-13	-3,201
1023,186	1,5	-0,103
1023,84	-2,5	-1,602
1024,488	-13	-3,498
1025,142	-0,5	-0,79
1025,79	0	-0,687
1026,456	-12,5	-3,476
1027,104	-3	-1,597
1027,758	2	0
1028,418	-9	-3,242
1029,066	-7	-2,378
1029,72	2	-0,008
1030,368	-5	-2,391
1031,022	-12,5	-3,174
1031,67	1,5	-0,096
1032,324	-2,5	-1,56
1032,972	-13	-3,498
1033,626	-0,5	-0,763
1034,274	0	-0,762
1034,928	-12,5	-3,477
1035,575	-3	-1,56
1036,223	2	0
1036,871	-8,5	-3,102
1037,525	-7,5	-2,428
1038,173	2	-0,009
1038,833	-4,5	-2,349
1039,481	-12,5	-3,231
1040,135	1	-0,103
1040,783	-2,5	-1,552
1041,437	-13	-3,498
1042,091	-0,5	-0,764
1042,739	0	-0,635
1043,393	-12,5	-3,467
1044,041	-3	-1,656
1044,701	2	-0,001
1045,349	-8	-3,041
1046,003	-7,5	-2,484
1046,651	2	-0,011
1047,305	-4,5	-2,252
1047,953	-13	-3,332
1048,613	1	-0,126
1049,261	-2,5	-1,431
1049,915	-13	-3,497
1050,563	-1	-0,87
1051,217	0,5	-0,626
1051,865	-12,5	-3,463
1052,524	-3	-1,662
1053,172	2	-0,001
1053,829	-8,5	-3,053
1054,48	-7,5	-2,525
1055,128	2	-0,013
1055,782	-4,5	-2,222
1056,436	-13	-3,37
1057,09	0,5	-0,154
1057,738	-2	-1,438
1058,392	-13	-3,497
1059,04	-1	-0,924
1059,694	1	-0,542
1060,342	-12	-3,451
1060,998	-4	-1,797
1061,644	2	-0,001
1062,298	-8,5	-2,998
1062,952	-9	-2,613
1063,606	2	-0,015
1064,26	-4,5	-2,123
1064,914	-13	-3,477
1065,562	0,5	-0,226
1066,216	-2	-1,328
1066,864	-13	-3,495
1067,518	-1	-0,989
1068,166	0,5	-0,536
1068,82	-12,5	-3,455
1069,468	-4	-1,782
1070,121	2	-0,001
1070,769	-7,5	-2,955
1071,423	-8	-2,576
1072,071	2	-0,015
1072,731	-4,5	-2,232
1073,379	-13	-3,382
1074,033	0,5	-0,16
1074,681	-2	-1,376
1075,341	-13	-3,497
1075,989	-1	-0,863
1076,649	0	-0,621
1077,297	-12,5	-3,462
1077,945	-4	-1,802
1078,593	2	-0,001
1079,247	-7,5	-2,914
1079,901	-8,5	-2,59
1080,555	2	-0,014
1081,209	-4,5	-2,214
1081,857	-13	-3,426
1082,511	0,5	-0,178
1083,159	-1,5	-1,287
1083,813	-13	-3,496
1084,461	-1	-1,12
1085,109	1,5	-0,377
1085,757	-12	-3,419
1086,405	-4,5	-2,005
1087,052	2	-0,002
1087,706	-6,5	-2,783
1088,36	-9,5	-2,79
1089,014	2	-0,027
1089,662	-3,5	-1,973
1090,316	-13	-3,499
1090,964	0	-0,399
1091,618	-1,5	-1,062
1092,266	-13	-3,49
1092,92	-1,5	-1,299
1093,568	2	-0,165
1094,222	-10,5	-3,36
1094,87	-6	-2,192
1095,524	2	-0,004
1096,172	-5,5	-2,598
1096,826	-11	-2,96
1097,48	2	-0,045
1098,128	-3	-1,723
1098,776	-13	-3,499
1099,43	0	-0,632
1100,084	-0,5	-0,855
1100,738	-12,5	-3,483
1101,392	-2,5	-1,47
1102,04	2	0
1102,694	-9	-3,222
1103,342	-7	-2,439
1103,996	2	-0,009
1104,649	-4,5	-2,323
1105,303	-12,5	-3,304
1105,951	1	-0,14
1106,605	-2	-1,438
1107,253	-13	-3,497
1107,913	-1	-0,903
1108,561	0,5	-0,553
1109,209	-12	-3,453
1109,863	-4,5	-1,817
1110,517	2	-0,001
1111,165	-7,5	-2,967
1111,813	-9	-2,614
1112,461	2	-0,017
1113,115	-4,5	-2,165
1113,763	-12,5	-3,499
1114,411	0,5	-0,262
1115,065	-1,5	-1,26
1115,719	-13	-3,495
1116,373	-1	-1,018
1117,021	1,5	-0,432
1117,675	-12	-3,438
1118,323	-4,5	-1,916
1118,977	2	-0,001
1119,625	-7	-2,784
1120,279	-10	-2,834
1120,927	2	-0,033
1121,581	-3,5	-1,92
1122,228	-13	-3,499
1122,882	0	-0,499
1123,53	-1	-0,99
1124,184	-12,5	-3,489
1124,839	-2	-1,331
1125,492	2	-0,221
1126,14	-10,5	-3,384
1126,8	-5	-2,095
1127,454	2	-0,003
1128,102	-6	-2,61
1128,756	-11	-2,991
1129,404	1,5	-0,054
1130,052	-3	-1,742
1130,706	-13	-3,499
1131,354	0	-0,624
1132,008	-0,5	-0,858
1132,656	-12,5	-3,482
1133,31	-2,5	-1,406
1133,958	2	-0,198
1134,612	-10,5	-3,372
1135,26	-5,5	-2,205
1135,914	2	-0,004
1136,562	-5,5	-2,576
1137,216	-10,5	-2,94
1137,864	1,5	-0,047
1138,518	-3,5	-1,918
1139,173	-12,5	-3,499
1139,819	0	-0,442
1140,474	-1,5	-1,124
1141,127	-13	-3,492
1141,775	-1,5	-1,173
1142,429	1,5	-0,415
1143,077	-12	-3,428
1143,731	-4,5	-1,929
1144,379	2	-0,002
1145,033	-7,5	-2,866
1145,681	-9,5	-2,768
1146,335	2	-0,027
1146,983	-3	-1,966
1147,637	-12,5	-3,499
1148,285	0	-0,452
1148,939	-1,5	-1,147
1149,587	-12,5	-3,492
1150,241	-1	-1,14
1150,889	1,5	-0,352
1151,543	-11,5	-3,42
1152,191	-4,5	-1,996
1152,863	2	-0,002
1153,511	-7	-2,804
1154,165	-10	-2,804
1154,813	2	-0,03
1155,467	-3,5	-1,957
1156,115	-12,5	-3,499
1156,768	0	-0,388
1157,416	-1,5	-1,185
1158,07	-12,5	-3,494
1158,718	-1,5	-1,203
1159,372	1,5	-0,369
1160,02	-11,5	-3,417
1160,68	-4,5	-1,999
1161,328	2	-0,002
1161,982	-7	-2,818
1162,63	-10	-2,824
1163,284	2	-0,03
1163,932	-3,5	-1,999
1164,586	-13	-3,5
1165,234	0	-0,336
1165,888	-1,5	-1,216
1166,542	-13	-3,494
1167,196	-1,5	-1,169
1167,844	1,5	-0,399
1168,498	-12	-3,431
1169,146	-5	-2,04
1169,8	2	-0,002
1170,448	-6	-2,707
1171,102	-10	-2,889
1171,75	1,5	-0,04
1172,404	-3	-1,918
1173,052	-12,5	-3,499
1173,706	0	-0,512
1174,354	-1,5	-1,094
1175,008	-12,5	-3,492
1175,655	-1,5	-1,188
1176,309	1,5	-0,389
1176,957	-11,5	-3,422
1177,611	-5,5	-2,221
1178,259	2	-0,005
1178,913	-5,5	-2,49
1179,561	-12	-3,207
1180,219	1,5	-0,096
1180,863	-2,5	-1,618
1181,517	-12,5	-3,498
1182,171	0	-0,719
1182,819	0	-0,722
1183,473	-12,5	-3,474
1184,121	-3	-1,645
1184,775	2	0
1185,423	-9	-3,167
1186,071	-7,5	-2,528
1186,719	2	-0,013
1187,373	-4,5	-2,226
1188,021	-12,5	-3,4
1188,675	1	-0,167
1189,323	-1,5	-1,274
1189,971	-13	-3,495
1190,625	-1,5	-1,204
1191,273	1,5	-0,364
1191,927	-11,5	-3,423
1192,574	-4,5	-1,954
1193,234	2	-0,002
1193,882	-7,5	-2,904
1194,536	-9	-2,76
1195,184	2	-0,026
1195,838	-3,5	-1,986
1196,492	-12,5	-3,5
1197,146	0	-0,354
3150,431	2	-0,008
3151,085	-2	-2,433
3151,733	-5,5	-3,178
3152,387	1,5	-0,08
3153,04	-1	-1,676
3153,688	-6	-3,498
3154,342	0	-0,694
3154,99	0	-0,862
3155,644	-6	-3,484
3156,292	-0,5	-1,499
3156,94	2	-0,072
3157,594	-4,5	-3,32
3158,242	-1,5	-2,216
3158,89	2,5	-0,005
3159,544	-2,5	-2,616
3160,198	-4,5	-2,97
3160,846	2	-0,052
3161,5	-1,5	-1,837
3162,148	-6	-3,499
3162,802	0	-0,56
3163,45	0	-0,976
3164,098	-5,5	-3,488
3164,758	0	-1,375
3165,406	2	-0,153
3166,06	-4,5	-3,355
3166,714	-1,5	-2,17
3167,362	2	-0,004
3168,016	-2,5	-2,625
3168,664	-5	-2,985
3169,311	1,5	-0,054
3169,965	-1,5	-1,832
3170,613	-6	-3,499
3171,261	0	-0,485
3171,915	0	-1,034
3172,563	-6	-3,489
3173,217	-0,5	-1,358
3173,865	2	-0,212
3174,513	-4,5	-3,364
3175,167	-1,5	-2,091
3175,815	2	-0,003
3176,469	-3	-2,762
3177,123	-4	-2,844
3177,771	2	-0,035
3178,425	-1,5	-1,979
3179,073	-6	-3,499
3179,721	0,5	-0,454
3180,375	-0,5	-1,164
3181,023	-6	-3,493
3181,671	0	-1,263
3182,229	2	-0,001