File: Cycling_tests/_50perc/_1gap/entrada/_5.txt
Time (s)	Load (N)	Displacement (mm)
0	0	-0,026
1,073	-22,5	-3,486
2,174	0,5	-0,244
3,197	-22	-3,491
4,274	0,5	-0,09
5,576	-14	-2,256
6,605	-4	-1,088
7,697	-13,5	-2,302
8,753	-4	-1,174
9,785	-15	-2,547
10,817	-2,5	-0,834
11,854	-18,5	-2,867
12,91	0,5	-0,581
13,972	-19,5	-2,996
15,022	0,5	-0,433
16,048	-21	-3,305
17,092	1	0
18,262	-19	-3,029
19,3	1	-0,268
20,338	-20,5	-3,491
21,364	1,5	-0,001
22,402	-20,5	-3,499
23,422	1,5	-0,003
24,574	-20,5	-3,499
25,624	1,5	-0,001
26,667	-20,5	-3,498
27,735	1,5	-0,002
28,786	-20	-3,498
29,913	1,5	-0,001
30,957	-20	-3,498
31,995	1,5	-0,002
33,051	-20	-3,496
34,095	1,5	-0,006
35,121	-19,5	-3,484
36,261	1,5	-0,004
37,287	-19,5	-3,492
76,033	-18,5	-3,498
77,077	2	-0,003
78,223	-18,5	-3,499
79,267	2	-0,002
80,305	-18,5	-3,497
81,341	2	-0,004
82,374	-18	-3,493
83,52	2	-0,002
84,564	-18	-3,497
85,602	2	-0,005
86,64	-18	-3,492
87,672	2	-0,015
88,698	-17,5	-3,468
89,862	2	-0,008
90,894	-18	-3,485
91,926	2	-0,028
92,976	-17,5	-3,462
94,008	1,5	-0,073
95,04	-15	-3,364
96,175	1,5	-0,054
97,206	-16	-3,403
98,232	0,5	-0,195
99,257	-12,5	-3,07
100,319	0	-0,491
101,339	-9,5	-2,724
102,485	0	-0,357
103,517	-11,5	-2,929
104,585	-0,5	-0,594
105,623	-10	-2,788
106,655	-1,5	-0,921
107,687	-7,5	-2,342
108,845	-0,5	-0,681
109,877	-9	-2,553
110,897	-2,5	-1,149
111,923	-6	-2,15
112,955	-4,5	-1,57
151,76	1	-0,17
152,797	-12,5	-3,201
153,842	0	-0,375
154,874	-11	-2,97
155,918	-0,5	-0,666
156,968	-9,5	-2,702
157,994	-1,5	-0,97
159,032	-7,5	-2,35
160,064	-3	-1,343
161,114	-5,5	-2,069
162,14	-5	-1,699
163,179	-4	-1,65
164,314	-4	-1,519
165,35	-4,5	-1,823
166,388	-5,5	-1,85
167,432	-3,5	-1,484
168,482	-8	-2,147
169,507	-3	-1,141
170,678	-6	-1,832
171,721	-3	-1,492
172,747	-8	-2,21
173,803	-3	-1,259
174,847	-9	-2,317
175,885	-1,5	-1,004
177,019	-8,5	-2,169
178,045	-2,5	-1,118
179,065	-12	-2,619
180,079	0	-0,612
181,117	-15	-3,057
182,137	2	-0,201
183,163	-17	-3,5
184,309	1,5	-0,336
185,346	-17	-3,3
186,372	2	0
187,392	-17	-3,499
188,43	2,5	-0,002
189,474	-16,5	-3,498
190,602	2	-0,001
191,658	-17	-3,499
192,696	2	-0,002
193,734	-17	-3,497
194,754	2,5	-0,007
195,774	-16,5	-3,486
196,902	2,5	-0,006
197,922	-16,5	-3,486
198,966	2,5	-0,019
199,998	-16,5	-3,472
201,03	2	-0,057
202,055	-14,5	-3,382
203,195	2	-0,048
204,227	-15	-3,403
205,247	1	-0,232
206,297	-12,5	-3,208
207,335	0	-0,408
208,369	-10,5	-2,894
209,519	0,5	-0,233
210,563	-12	-3,103
211,583	0	-0,72
212,609	-8,5	-2,577
213,629	-2	-1,193
214,655	-5,5	-2,132
215,681	-3,5	-1,036
216,815	-6	-2,24
217,835	-3,5	-1,488
218,867	-4,5	-1,841
219,91	-5	-1,814
220,936	-3	-1,426
221,968	-8	-2,28
223,12	-3	-1,611
224,146	-6,5	-2,102
225,178	-2,5	-1,2
263,516	2,5	-0,001
264,548	-15,5	-3,499
265,568	2,5	-0,003
266,588	-16	-3,494
267,608	2,5	-0,015
268,646	-15,5	-3,474
269,792	2,5	-0,008
270,808	-15,5	-3,479
271,832	2	-0,045
272,845	-14,5	-3,378
273,871	0,5	-0,257
274,903	-10	-3,007
276,037	1	-0,192
277,063	-11,5	-3,101
278,083	0	-0,691
279,121	-8,5	-2,618
280,159	-1	-1,072
281,197	-6	-2,244
282,325	-1	-0,964
283,345	-6	-2,228
284,371	-3	-1,469
285,397	-4	-1,775
286,417	-5,5	-1,963
287,437	-2	-1,214
288,463	-10	-2,541
289,596	-2	-1,275
290,623	-10	-2,496
291,654	0	-0,784
292,686	-14,5	-2,99
293,712	2	-0,268
294,744	-15,5	-3,425
295,884	1,5	-0,485
296,922	-15,5	-3,233
297,954	2	-0,12
298,974	-16	-3,499
300,006	2	-0,001
338,326	0,5	-0,275
339,352	-9,5	-3,01
340,378	-0,5	-0,73
341,41	-7,5	-2,608
342,436	-1	-1,052
343,467	-5,5	-2,244
344,505	-3,5	-1,468
345,633	-5,5	-2,313
346,647	-3,5	-1,534
347,685	-4	-1,797
348,711	-6	-1,934
349,737	-2,5	-1,317
350,757	-9	-2,432
351,801	-1	-0,919
352,935	-8	-2,318
353,961	-1	-0,937
354,989	-12	-2,786
356,001	1,5	-0,404
357,039	-15	-3,214
358,059	2,5	-0,009
359,097	-15	-3,499
360,248	2	-0,22
361,274	-15,5	-3,486
362,312	2,5	-0,001
363,332	-15,5	-3,499
364,37	2,5	-0,002
365,39	-15	-3,495
366,524	2,5	-0,002
367,556	-15	-3,496
368,588	2,5	-0,008
369,608	-15	-3,481
370,628	2	-0,045
371,654	-14	-3,395
372,794	2,5	-0,034
373,832	-14	-3,44
374,858	1,5	-0,131
375,878	-11	-3,183
376,897	0	-0,575
377,924	-7,5	-2,7
378,949	-1,5	-1,076
380,089	-7,5	-2,75
381,121	-0,5	-0,955
382,147	-5	-2,289
383,167	-3	-1,486
384,199	-3,5	-1,778
385,219	-5,5	-1,998
386,233	-2	-1,198
387,379	-5	-1,942
388,423	-2,5	-1,398
389,443	-8	-2,36
390,463	-0,5	-0,837
391,495	-12	-2,872
392,521	2	-0,388
393,553	-15	-3,256
394,68	1	-0,534
395,694	-15	-3,29
396,714	2,5	0
397,725	-15	-3,499
398,736	2,5	-0,003
399,78	-15	-3,495
400,806	2,5	-0,011
401,832	-15	-3,472
402,858	2	-0,054
403,884	-12,5	-3,374
404,911	0,5	-0,246
405,936	-10	-3,027
406,963	0	-0,73
407,988	-6	-2,501
409,014	-1,5	-1,234
410,028	-3,5	-1,913
411,054	-4,5	-1,853
485,827	-15	-3,498
486,841	2,5	-0,004
487,861	-15	-3,491
488,887	2,5	-0,022
489,913	-14,5	-3,452
491,035	2,5	-0,024
492,055	-14,5	-3,448
493,075	1	-0,132
494,095	-11	-3,266
495,109	0	-0,538
496,129	-7,5	-2,709
497,149	-1	-1,071
498,283	-7	-2,713
499,296	-1	-1,025
500,31	-5	-2,141
501,33	-3	-1,631
502,356	-2,5	-1,599
503,376	-6	-2,155
504,396	-1,5	-1,082
505,422	-10	-2,686
506,556	-1,5	-1,121
507,576	-10	-2,665
508,608	0	-0,631
509,628	-14	-3,162
510,642	2,5	-0,001
511,656	-15	-3,499
512,682	2,5	-0,002
513,696	-15	-3,496
514,824	2,5	-0,002
515,838	-15	-3,496
516,857	2,5	-0,01
517,871	-14,5	-3,472
518,891	2	-0,071
519,905	-11,5	-3,304
520,925	0,5	-0,404
522,071	-12	-3,354
523,091	0,5	-0,35
524,117	-9	-2,974
525,137	-0,5	-0,796
526,151	-6	-2,416
527,165	-2	-1,411
528,191	-3,5	-1,829
529,319	-2,5	-1,417
530,339	-3,5	-1,829
531,353	-5	-1,949
532,391	-2,5	-1,356
533,405	-8	-2,46
534,418	0	-0,719
535,445	-13	-3,021
536,596	-0,5	-0,864
537,61	-11,5	-2,877
538,624	1,5	-0,408
539,644	-15	-3,354
540,676	2,5	0
541,696	-15	-3,499
542,71	2,5	-0,002
543,73	-15	-3,495
544,756	2,5	-0,009
545,777	-15	-3,48
546,79	2	-0,061
547,81	-12	-3,354
548,824	0,5	-0,387
549,838	-7,5	-2,793
550,852	-1	-1,055
551,866	-4,5	-2,141
552,993	-1	-1,1
554,013	-4,5	-2,131
555,027	-3	-1,69
556,042	-3	-1,526
557,055	-7	-2,295
558,075	-1	-0,946
559,095	-11	-2,803
633,617	-7	-2,606
634,637	-1	-1,191
635,651	-4	-2,026
636,665	-3,5	-1,776
637,691	-2,5	-1,435
638,705	-7	-2,409
639,712	0	-0,743
640,738	-12	-3,026
641,752	2,5	-0,218
642,772	-14,5	-3,492
643,792	2,5	-0,001
644,806	-14,5	-3,498
645,826	2,5	-0,005
646,852	-14,5	-3,489
647,872	2,5	-0,027
648,904	-13,5	-3,434
650,032	2,5	-0,032
651,052	-13	-3,43
652,066	1	-0,207
653,086	-9,5	-3,07
654,1	0	-0,741
655,114	-5,5	-2,443
656,134	-2	-1,364
657,154	-3	-1,845
658,167	-4,5	-1,96
659,187	-1,5	-1,256
660,309	-5	-2,026
661,323	-1,5	-1,174
662,343	-8,5	-2,595
663,357	0	-0,589
664,377	-13,5	-3,182
665,397	2,5	-0,012
666,417	-14,5	-3,499
667,431	2,5	-0,002
668,457	-14,5	-3,496
669,585	2,5	-0,002
670,605	-14,5	-3,496
671,625	2,5	-0,013
672,639	-14	-3,465
673,659	2	-0,08
674,673	-10,5	-3,294
675,686	0	-0,535
676,7	-7	-2,682
677,72	-1	-1,065
678,734	-4,5	-2,16
679,868	-1	-1,098
680,888	-4,5	-2,122
681,902	-3	-1,688
682,916	-2,5	-1,507
683,936	-5,5	-2,241
684,956	-1	-0,963
685,97	-11	-2,864
686,984	2	-0,351
688,015	-14	-3,483
689,036	2,5	-0,001
690,056	-14,5	-3,498
691,07	2,5	-0,003
692,083	-14	-3,492
693,097	2,5	-0,021
694,111	-13,5	-3,447
695,125	1,5	-0,147
696,145	-9,5	-3,158
697,171	0	-0,62
698,185	-6	-2,587
699,319	0	-0,671
700,345	-6	-2,585
701,365	-1	-1,2
702,373	-4	-1,971
703,399	-3,5	-1,856
704,419	-2	-1,363
705,433	-7	-2,473
706,447	0	-0,685
707,467	-13	-3,091
708,601	0	-0,668
709,615	-13,5	-3,182
710,628	2,5	-0,041
711,642	-14	-3,499
712,662	2,5	-0,002
713,676	-14	-3,495
714,69	2,5	-0,016
715,704	-13,5	-3,461
716,718	1,5	-0,101
717,852	-13,5	-3,461
718,878	2	-0,088
719,91	-11	-3,329
720,936	0,5	-0,389
721,956	-8	-2,821
722,976	-0,5	-1,003
723,996	-5	-2,238
725,01	-2,5	-1,55
726,03	-3	-1,686
727,037	-5,5	-2,219
728,177	-3	-1,627
729,191	-5,5	-2,225
730,205	-1	-0,975
731,219	-10,5	-2,873
732,245	1,5	-0,41
733,265	-13,5	-3,365
734,279	2,5	-0,001
735,293	-14	-3,498
736,307	2,5	-0,004
737,321	-14	-3,498
738,455	3	-0,004
739,469	-14	-3,489
740,501	2,5	-0,022
741,515	-13,5	-3,442
742,529	1,5	-0,144
816,87	-13,5	-3,49
817,884	2,5	-0,028
818,904	-12,5	-3,426
819,924	1,5	-0,162
821,07	-13	-3,444
822,084	1	-0,153
823,098	-8,5	-3,151
824,124	0	-0,615
825,132	-5,5	-2,512
826,14	-1,5	-1,295
827,154	-3	-1,88
828,168	-4,5	-1,99
829,188	-1,5	-1,198
830,202	-10	-2,709
831,221	1,5	-0,516
832,355	-9,5	-2,667
833,375	1	-0,574
834,389	-14	-3,268
835,397	2,5	-0,001
836,423	-14	-3,499
837,443	3	-0,003
838,451	-14	-3,492
839,465	2,5	-0,021
840,491	-13	-3,451
841,505	1,5	-0,144
842,519	-8,5	-3,098
843,653	1	-0,166
844,661	-8	-3,053
845,681	0	-0,713
846,701	-5	-2,45
847,721	-2	-1,336
848,747	-3	-1,898
849,76	-4	-1,827
850,774	-1,5	-1,4
851,788	-7,5	-2,448
852,814	0	-0,818
853,825	-12,5	-3,049
854,956	0	-0,788
855,97	-12,5	-3,033
856,99	2,5	-0,21
858,004	-14	-3,5
859,024	2,5	-0,001
860,038	-14	-3,496
861,052	2,5	-0,009
862,069	-13,5	-3,476
863,086	2	-0,061
864,106	-11	-3,351
865,12	0,5	-0,389
866,237	-10	-3,306
867,255	0	-0,478
868,275	-6	-2,714
869,301	-0,5	-1,053
870,327	-4	-2,181
871,341	-2,5	-1,671
872,349	-2	-1,446
873,369	-6	-2,314
874,383	-0,5	-0,882
875,403	-10,5	-2,904
876,423	2	-0,273
877,557	-12	-2,97
878,581	2,5	-0,23
879,597	-14	-3,5
880,617	2,5	-0,001
881,631	-14	-3,497
882,651	2,5	-0,007
883,683	-13,5	-3,486
884,702	2,5	-0,036
885,716	-12	-3,406
886,736	0,5	-0,242
887,756	-7,5	-2,95
888,776	-0,5	-0,948
889,796	-4,5	-2,282
890,816	-2,5	-1,476
891,836	-2,5	-1,722
892,856	-6	-2,074
893,87	-1,5	-1,159
894,884	-9,5	-2,679
895,904	1	-0,514
896,918	-13,5	-3,36
897,932	2,5	-0,001
898,946	-14	-3,498
900,074	2,5	-0,001
901,094	-14	-3,498
902,107	2,5	-0,004
903,121	-14	-3,489
904,147	2,5	-0,025
905,161	-12,5	-3,434
906,175	1	-0,148
907,183	-8,5	-3,065
908,203	0	-0,7
909,229	-5,5	-2,603
910,243	-1	-1,218
911,377	-5,5	-2,609
912,397	-1,5	-1,193
913,411	-3,5	-2,024
914,437	-3,5	-1,726
915,445	-2	-1,481
916,461	-6	-2,292
917,473	-0,5	-0,919
918,492	-11	-2,898
919,506	2	-0,306
920,52	-13,5	-3,499
921,534	2,5	-0,001
922,542	-14	-3,497
923,682	2,5	-0,001
924,702	-13,5	-3,498
925,716	2,5	-0,006
926,73	-13,5	-3,484
927,744	2	-0,039
928,764	-12,5	-3,42
929,778	1	-0,208
930,786	-8	-2,969
931,794	-0,5	-0,914
932,814	-4,5	-2,29
933,834	-2,5	-1,5
934,968	-4,5	-2,327
935,982	-2	-1,442
937,013	-3	-1,832
938,027	-4,5	-1,951
939,041	-2	-1,255
940,055	-8,5	-2,524
941,075	0	-0,749
942,101	-11,5	-3,007
943,115	2,5	-0,2
944,129	-13,5	-3,5
945,143	2,5	-0,001
946,163	-14	-3,498
947,297	2,5	-0,001
948,317	-13,5	-3,498
949,331	2,5	-0,005
950,345	-13,5	-3,486
951,365	2	-0,034
952,385	-12	-3,412
953,405	1	-0,201
954,412	-8	-2,988
955,426	-0,5	-0,818
956,446	-5	-2,424
957,46	-1,5	-1,398
958,486	-3	-1,852
959,614	-2	-1,372
960,634	-3	-1,843
961,642	-4,5	-2,024
962,656	-1	-1,144
1037,04	-3	-1,685
1038,06	-2	-1,502
1039,074	-6	-2,324
1040,088	-0,5	-0,834
1041,108	-11,5	-2,951
1042,121	2,5	-0,179
1043,141	-13,5	-3,5
1044,161	2,5	-0,001
1045,175	-13,5	-3,496
1046,183	2,5	-0,012
1047,317	-13,5	-3,495
1048,337	2,5	-0,012
1049,353	-13	-3,466
1050,365	1,5	-0,093
1051,379	-10	-3,271
1052,411	0,5	-0,478
1053,419	-6	-2,703
1054,433	-0,5	-1,097
1055,447	-3,5	-2,12
1056,461	-3	-1,69
1057,475	-2	-1,493
1058,495	-5	-2,213
1059,502	-0,5	-0,91
1060,636	-5,5	-2,31
1061,656	-1	-0,892
1062,67	-10	-2,9
1063,684	2	-0,303
1064,704	-13,5	-3,419
1065,724	2,5	-0,001
1066,738	-13,5	-3,498
1067,764	2,5	-0,003
1068,778	-13,5	-3,492
1069,798	2,5	-0,018
1070,812	-13	-3,451
1071,826	1,5	-0,1
1072,84	-9,5	-3,245
1073,962	1,5	-0,138
1074,976	-9	-3,148
1075,99	0	-0,63
1077,003	-5,5	-2,554
1078,024	-1,5	-1,254
1079,037	-3	-1,91
1080,051	-3,5	-1,916
1081,065	-1,5	-1,279
1082,079	-7,5	-2,52
1083,099	0	-0,689
1084,123	-12	-3,046
1085,139	2	-0,142
1086,147	-13,5	-3,499
1087,281	2,5	-0,084
1088,301	-13,5	-3,499
1089,315	2,5	-0,002
1090,323	-13,5	-3,496
1091,337	2,5	-0,009
1092,363	-13	-3,478
1093,383	2	-0,066
1094,397	-10,5	-3,35
1095,411	0,5	-0,42
1096,424	-6	-2,75
1097,438	-0,5	-1,038
1098,452	-4	-2,146
1099,466	-3	-1,771
1100,612	-4	-2,153
1101,626	-3	-1,657
1102,646	-2,5	-1,61
1103,654	-5,5	-2,278
1104,674	-1	-0,98
1105,694	-10	-2,849
1106,714	2	-0,37
1107,728	-13,5	-3,498
1108,754	2	-0,001
1109,762	-13,5	-3,498
1110,782	2,5	-0,006
1111,807	-13,5	-3,486
1112,825	2	-0,04
1113,835	-11,5	-3,392
1114,969	2	-0,048
1115,977	-10,5	-3,343
1116,997	0	-0,434
1118,011	-6,5	-2,757
1119,031	-0,5	-1,034
1120,051	-4	-2,168
1121,065	-2,5	-1,636
1122,079	-2,5	-1,57
1123,093	-5,5	-2,263
1124,107	-1	-0,902
1125,121	-10,5	-2,924
1126,129	2	-0,253
1127,149	-13	-3,496
1128,289	1,5	-0,364
1129,308	-13	-3,489
1130,328	2	-0,001
1131,342	-13,5	-3,498
1132,368	2,5	-0,004
1133,382	-13	-3,488
1134,408	2,5	-0,021
1135,428	-12,5	-3,443
1136,454	1,5	-0,136
1137,468	-9	-3,165
1138,482	0	-0,694
1139,502	-5,5	-2,558
1140,526	-1	-1,165
1141,542	-3,5	-2,046
1142,676	-1	-1,219
1143,684	-3,5	-1,968
1144,704	-3	-1,823
1145,718	-1,5	-1,361
1146,731	-6	-2,418
1147,745	-0,5	-0,778
1148,759	-12	-3,07
1149,779	2,5	-0,13
1150,793	-13	-3,499
1151,807	3	-0,002
1152,833	-13,5	-3,496
1153,847	2,5	-0,007
1154,855	-13	-3,48
1155,983	2,5	-0,008
1157,003	-13	-3,479
1158,017	2	-0,052
1159,037	-10,5	-3,368
1160,045	0,5	-0,373
1161,068	-7	-2,81
1162,091	-0,5	-0,989
1163,105	-4	-2,182
1164,125	-2	-1,621
1165,138	-2	-1,563
1166,158	-5	-2,218
1167,172	-0,5	-0,931
1168,204	-8,5	-2,748
1169,218	1,5	-0,479
1170,352	-9	-2,747
1171,366	1,5	-0,442
1172,386	-13	-3,394
1173,4	2,5	-0,001
1174,42	-13	-3,499
1175,446	2,5	-0,003
1176,466	-13,5	-3,493
1177,48	2,5	-0,024
1178,5	-12	-3,433
1179,508	1,5	-0,205
1180,528	-8,5	-3,03
1181,541	0	-0,807
1182,555	-5	-2,422
1183,575	-2	-1,388
1184,703	-4,5	-2,378
1185,711	-1,5	-1,473
1186,731	-2,5	-1,72
1187,751	-4,5	-2,108
1188,771	-1	-1,069
1189,779	-9	-2,741
1190,793	1,5	-0,408
1191,807	-13	-3,479
1192,827	2,5	-0,001
1193,841	-13,5	-3,498
1194,855	2,5	-0,004
1195,881	-13	-3,492
1196,895	2,5	-0,022
1197,915	-12	-3,44
1198,929	1,5	-0,163
1200,056	-12	-3,434
1201,076	1	-0,196
1202,09	-8	-3,016
1203,104	0	-0,843
1204,13	-4,5	-2,412
1205,138	-1,5	-1,422
1206,152	-3	-1,795
1207,166	-4	-2,031
1208,18	-1,5	-1,083
1209,2	-8	-2,703
1210,208	1,5	-0,42
1211,222	-13	-3,439
1212,236	2,5	-0,001
1213,244	-13	-3,498
1214,258	3	-0,005
1215,326	-13	-3,495
1216,357	2,5	-0,01
1217,378	-12,5	-3,471
1218,391	2	-0,07
1219,417	-10	-3,328
1220,443	0,5	-0,439
1221,457	-6	-2,719
1222,471	-0,5	-1,074
1223,479	-3,5	-2,075
1224,499	-2,5	-1,705
1225,513	-2	-1,5
1226,527	-6	-2,369
1227,535	0,5	-0,758
1228,561	-10,5	-2,981
1229,575	2,5	-0,186
1230,703	-11	-3,059
1231,711	2,5	-0,064
1232,725	-13	-3,499
1233,751	2,5	-0,002
1234,764	-13	-3,496
1235,784	2,5	-0,011
1236,798	-13	-3,475
1237,818	2	-0,062
1238,837	-10,5	-3,324
1239,852	0,5	-0,452
1240,878	-7	-2,824
1241,886	0	-0,946
1242,9	-4,5	-2,226
1243,92	-1,5	-1,536
1244,934	-2,5	-1,652
1246,068	-2	-1,627
1247,076	-2	-1,502
1248,09	-5	-2,218
1249,104	-0,5	-0,972
1250,124	-9	-2,76
1251,138	2	-0,439
1252,145	-13	-3,461
1253,159	2,5	-0,001
1254,173	-13	-3,498
1255,187	2,5	-0,004
1548,001	-1	-1,42
1549,02	-2,5	-1,763
1550,035	-4	-2,017
1551,042	-1	-1,08
1552,062	-7,5	-2,638
1553,076	2	-0,489
1554,09	-12,5	-3,316
1555,098	2,5	-0,001
1556,118	-12,5	-3,498
1557,132	2,5	-0,004
1558,152	-12,5	-3,489
1559,16	2,5	-0,027
1560,18	-11,5	-3,428
1561,194	1,5	-0,17
1562,208	-7,5	-3,048
1563,216	0	-0,85
1564,236	-4	-2,326
1565,346	-0,5	-0,994
1566,359	-4	-2,213
1567,373	-3	-1,634
1568,394	-2	-1,569
1569,407	-5	-2,23
1570,421	-1	-0,938
1571,429	-10	-2,897
1572,443	2	-0,296
1573,457	-12,5	-3,499
1574,473	2,5	-0,001
1575,479	-12,5	-3,498
1576,493	2,5	-0,007
1577,507	-12,5	-3,479
1578,521	2	-0,059
1579,529	-9,5	-3,323
1580,549	0,5	-0,44
1581,563	-5,5	-2,697
1582,571	-0,5	-1,199
1583,711	-5	-2,571
1584,736	-0,5	-1,213
1585,75	-3	-1,993
1586,764	-3	-1,793
1587,778	-1,5	-1,341
1588,798	-6	-2,465
1589,806	0,5	-0,689
1590,82	-11,5	-3,128
1591,846	2,5	-0,071
1592,866	-12,5	-3,499
1593,88	2,5	-0,002
1594,888	-13	-3,496
1595,908	2,5	-0,01
1596,928	-12,5	-3,474
1597,942	2	-0,07
1598,95	-9,5	-3,304
1599,964	0	-0,485
1600,984	-5,5	-2,733
1601,992	-1	-1,112
1603,131	-5,5	-2,66
1604,145	-0,5	-1,087
1605,159	-3	-2,034
1606,167	-2,5	-1,764
1607,181	-1,5	-1,372
1608,195	-5,5	-2,42
1609,209	0	-0,72
1610,217	-11,5	-3,137
1611,231	2,5	0
1612,251	-12,5	-3,499
1613,265	2,5	-0,002
1614,279	-12,5	-3,494
1615,293	2,5	-0,015
1616,307	-12	-3,459
1617,315	1,5	-0,136
1618,329	-7,5	-3,087
1619,342	0	-0,723
1620,362	-4,5	-2,433
1621,496	0	-0,756
1622,516	-5	-2,421
1623,53	-1,5	-1,383
1624,544	-2,5	-1,764
1625,552	-4,5	-2,071
1626,566	-1	-1,076
1627,58	-8	-2,66
1628,594	1,5	-0,502
1629,608	-12,5	-3,309
1630,628	2,5	-0,001
1631,636	-13	-3,498
1632,656	2,5	-0,004
1633,676	-12,5	-3,49
1634,696	2	-0,028
1635,716	-11,5	-3,422
1636,729	0,5	-0,217
1637,749	-7,5	-3,023
1638,763	0	-0,745
1639,771	-4,5	-2,399
1640,905	0	-0,834
1641,919	-4	-2,337
1642,936	-1,5	-1,512
1643,941	-2,5	-1,579
1644,967	-5	-2,214
1645,981	-1	-0,907
1646,989	-10,5	-2,986
1648,003	2,5	-0,147
1649,023	-12,5	-3,5
1650,043	2,5	-0,001
1651,057	-12,5	-3,497
1652,077	2,5	-0,01
1653,091	-12	-3,472
1654,105	2	-0,067
1655,112	-9,5	-3,264
1656,138	0	-0,507
1657,152	-5,5	-2,635
1658,16	-1	-1,13
1659,174	-3	-1,974
1660,2	-2,5	-1,776
1661,214	-1,5	-1,36
1662,228	-6	-2,403
1663,248	0	-0,759
1664,262	-11	-3,052
1665,27	2,5	-0,077
1666,284	-12,5	-3,499
1667,298	2,5	-0,002
1668,312	-12,5	-3,495
1669,32	2,5	-0,014
1670,334	-12	-3,458
1671,348	1,5	-0,094
1672,373	-9	-3,232
1673,381	0	-0,626
1674,401	-5	-2,536
1675,415	-1	-1,291
1676,423	-2,5	-1,804
1677,437	-3	-1,942
1678,451	-1,5	-1,179
1679,591	-3	-1,974
1680,611	-1,5	-1,229
1681,625	-6,5	-2,502
1682,651	0	-0,689
1683,659	-12	-3,174
1684,679	2	-0,036
1685,693	-12,5	-3,499
1686,701	2,5	-0,002
1687,721	-12,5	-3,495
1688,747	2,5	-0,013
1689,76	-12	-3,464
1690,768	2	-0,104
1691,782	-8	-3,169
1692,808	0	-0,613
1693,816	-5	-2,493
1694,83	-1	-1,3
1695,844	-3	-1,841
1696,864	-3	-1,844
1697,872	-1,5	-1,274
1698,886	-6,5	-2,484
1700,026	-1,5	-1,309
1701,04	-6,5	-2,538
1702,054	0	-0,599
1703,074	-11,5	-3,139
1704,094	2,5	-0,01
1705,108	-12,5	-3,499
1706,122	2,5	-0,002
1707,135	-12,5	-3,494
1708,155	3	-0,012
1709,163	-12	-3,461
1710,177	2	-0,08
1711,191	-9,5	-3,264
1712,205	0	-0,483
1713,225	-5,5	-2,694
1714,239	-1	-1,138
1715,247	-3	-1,995
1716,267	-3	-1,812
1717,281	-1,5	-1,331
1718,295	-6,5	-2,504
1719,441	-1,5	-1,268
1720,455	-6,5	-2,52
1721,475	0	-0,683
1722,483	-12,5	-3,29
1723,497	2,5	0
1724,51	-12,5	-3,498
1725,524	2,5	-0,003
1726,532	-12,5	-3,489
1727,552	2,5	-0,031
1728,578	-11,5	-3,423
1729,598	1,5	-0,157
1730,606	-7	-3,02
1731,62	0	-0,806
1732,64	-4,5	-2,408
1733,648	-1,5	-1,448
1734,662	-2,5	-1,757
1735,676	-4	-2,106
1736,696	-1	-1,056
1737,704	-9,5	-2,848
1738,724	2	-0,374
1739,744	-12,5	-3,497
1740,758	2	-0,001
1741,771	-12,5	-3,498
1742,791	2,5	-0,006
1743,799	-12,5	-3,483
1744,819	2,5	-0,04
1745,833	-10,5	-3,374
1746,847	1	-0,324
1747,861	-6	-2,871
1748,881	0	-0,937
1749,889	-3	-2,222
1750,903	-2,5	-1,699
1751,923	-1,5	-1,479
1752,943	-5	-2,249
1753,951	0	-0,847
1754,965	-11	-2,936
1755,979	2,5	-0,206
1757,005	-12,5	-3,5
1758,019	2,5	-0,001
1759,152	-12	-3,5
1760,172	2,5	-0,001
1761,18	-12,5	-3,497
1762,194	2,5	-0,007
1763,208	-12	-3,476
1764,228	2	-0,064
1765,242	-8,5	-3,34
1766,256	0,5	-0,418
1767,27	-5,5	-2,693
1768,29	-0,5	-0,998
1769,298	-3	-2,126
1770,312	-2,5	-1,716
1771,32	-1,5	-1,368
1772,334	-6	-2,442
1773,354	0	-0,725
1774,368	-11,5	-3,101
1775,382	2	-0,006
1776,407	-12,5	-3,499
1777,421	2,5	-0,002
1778,429	-12,5	-3,495
1779,443	2,5	-0,018
1780,465	-12	-3,458
1781,477	1	-0,132
1782,491	-7,5	-3,124
1783,511	0	-0,64
1784,519	-4,5	-2,477
1785,533	-1	-1,303
1786,547	-2,5	-1,904
1787,561	-3,5	-1,912
1788,575	-1,5	-1,214
1789,589	-7,5	-2,601
1790,603	1	-0,546
1791,617	-12,5	-3,326
1792,631	2,5	-0,001
1793,651	-12,5	-3,498
1794,658	2,5	-0,004
1795,672	-12,5	-3,489
1796,692	2,5	-0,025
1797,7	-11	-3,429
1798,714	1	-0,165
1799,728	-7,5	-3,09
1800,754	0	-0,611
1801,762	-4,5	-2,473
1802,788	-1	-1,282
1803,802	-2,5	-1,876
1804,816	-3,5	-1,939
1805,836	-1	-1,206
1806,856	-7,5	-2,564
1807,864	0,5	-0,569
1808,878	-12,5	-3,248
1809,892	2,5	-0,001
1810,906	-12	-3,498
1811,913	2,5	-0,003
1812,933	-12,5	-3,492
1813,947	2,5	-0,025
1814,955	-10,5	-3,421
1815,975	1	-0,207
1817,001	-7,5	-2,989
1818,021	0	-0,834
1819,029	-3,5	-2,277
1820,043	-1,5	-1,517
1821,057	-2	-1,625
1822,065	-5	-2,252
1823,085	-1	-0,957
1824,105	-9	-2,797
1825,119	2,5	-0,311
1826,133	-12,5	-3,499
1827,147	2,5	-0,001
1828,161	-12,5	-3,498
1829,174	2,5	-0,007
1830,188	-12	-3,479
1831,202	2	-0,064
1832,21	-9	-3,322
1833,224	0,5	-0,42
1834,238	-5	-2,712
1835,252	-0,5	-1,12
1836,272	-3	-2,1
1837,286	-2	-1,652
1838,294	-1,5	-1,465
1839,308	-5,5	-2,376
1840,328	0	-0,842
1841,336	-11,5	-3,04
1842,35	2,5	-0,058
1843,37	-12	-3,499
1844,504	3	-0,046
1845,512	-12	-3,499
1846,525	2,5	-0,002
1847,545	-12,5	-3,494
1848,559	2,5	-0,014
1849,573	-11,5	-3,46
1850,587	1,5	-0,086
1851,595	-8	-3,238
1852,615	0	-0,517
1853,629	-5	-2,603
1854,649	-1	-1,187
1855,669	-3	-1,991
1856,683	-3	-1,826
1857,697	-1,5	-1,343
1858,705	-6,5	-2,486
1859,719	0	-0,639
1860,733	-12	-3,167
1861,741	2,5	0
1862,755	-12	-3,499
1863,775	2,5	-0,003
1864,788	-12	-3,491
1865,802	2,5	-0,024
1866,948	-12	-3,49
1867,956	2,5	-0,026
1868,976	-10,5	-3,426
1869,99	1	-0,141
1871,004	-7,5	-3,07
1872,012	0	-0,745
1873,032	-4,5	-2,439
1874,046	-1,5	-1,408
1875,054	-2,5	-1,73
1876,074	-4,5	-2,072
1877,094	-1	-1,154
1878,108	-8	-2,662
1879,116	2	-0,444
1880,13	-12	-3,377
1881,144	2,5	-0,001
1882,151	-12,5	-3,498
1883,171	2,5	-0,004
1884,191	-12	-3,486
1885,199	2	-0,035
1886,219	-10,5	-3,415
1887,233	0,5	-0,264
1888,247	-6	-2,861
1889,267	-0,5	-0,946
1890,287	-3,5	-2,246
1891,301	-2	-1,592
1892,321	-2	-1,63
1893,335	-5	-2,233
1894,349	-0,5	-0,998
1895,357	-9	-2,836
1896,377	1,5	-0,394
1897,391	-12	-3,451
1898,399	2,5	-0,001
1899,412	-12,5	-3,498
1900,432	2,5	-0,004
1901,452	-12	-3,489
1902,466	2,5	-0,031
1903,48	-10,5	-3,416
1904,494	0,5	-0,222
1905,502	-7	-3,004
1906,516	0	-0,818
1907,53	-4	-2,412
1908,538	-1,5	-1,459
1909,552	-2	-1,716
1910,584	-3,5	-1,961
1911,598	-1	-1,217
1912,612	-7,5	-2,604
1913,626	1	-0,586
1914,64	-12	-3,254
1915,648	2,5	0
1916,673	-12	-3,499
1917,688	2,5	-0,002
1918,695	-12,5	-3,493
1919,709	2,5	-0,022
1920,729	-11	-3,445
1921,737	1,5	-0,171
1922,751	-7	-3,051
1923,771	0	-0,713
1924,785	-4,5	-2,477
1925,799	-1	-1,386
1926,813	-2,5	-1,82
1927,821	-3	-1,967
1928,835	-1,5	-1,19
1929,849	-8	-2,641
1930,857	1,5	-0,46
1931,877	-12	-3,334
1933,017	1	-0,505
1934,024	-12	-3,294
1935,038	2,5	0
1936,058	-12,5	-3,499
1937,072	2,5	-0,002
1938,086	-12,5	-3,493
1939,106	2	-0,018
1940,114	-11,5	-3,444
1941,128	1	-0,13
1942,142	-8	-3,104
1943,15	0	-0,746
1944,17	-4	-2,436
1945,184	-1,5	-1,391
1946,198	-2,5	-1,714
1947,212	-4,5	-2,075
1948,232	-1	-1,15
1949,24	-8	-2,69
1950,248	1,5	-0,447
1951,256	-12,5	-3,371
1952,269	2	-0,001
1953,29	-12,5	-3,498
1954,297	2,5	-0,006
1955,443	-12,5	-3,497
1956,457	2,5	-0,006
1957,465	-12	-3,48
1958,479	2	-0,042
1959,493	-10,5	-3,388
1960,513	0,5	-0,252
1961,533	-7	-2,954
1962,547	-0,5	-0,868
1963,555	-4	-2,33
1964,569	-2	-1,486
1965,577	-2,5	-1,647
1966,591	-4,5	-2,125
1967,611	-0,5	-1,083
1968,625	-7,5	-2,713
1969,638	1,5	-0,398
1970,652	-12,5	-3,419
1971,66	2,5	-0,001
1972,686	-12,5	-3,498
1973,7	2	-0,004
1974,708	-12	-3,486
1975,728	2	-0,033
1976,754	-11	-3,419
1977,774	1	-0,142
1978,914	-11,5	-3,444
1979,928	1	-0,115
1980,948	-8	-3,188
1981,956	0	-0,609
1982,976	-5	-2,568
1983,99	-1	-1,168
1985,004	-3	-2,049
1986,018	-3	-1,809
1987,038	-1,5	-1,379
1988,051	-5,5	-2,353
1989,065	0	-0,763
1990,079	-11,5	-3,106
1991,093	2	-0,046
1992,101	-12,5	-3,499
1993,115	2	-0,002
1994,129	-12,5	-3,494
1995,143	2	-0,014
1996,163	-12	-3,462
1997,177	1,5	-0,107
1998,185	-8	-3,182
1999,199	0	-0,644
2000,225	-5	-2,532
2001,251	-1	-1,224
2002,259	-3	-1,893
2003,273	-3	-1,922
2004,293	-1,5	-1,249
2005,3	-7,5	-2,606
2006,314	0,5	-0,525
2007,328	-12	-3,296
2008,342	2	-0,001
2009,356	-12,5	-3,498
2010,37	2	-0,004
2011,378	-12	-3,484
2012,398	2	-0,034
2013,412	-10,5	-3,409
2014,42	0,5	-0,269
2015,44	-6	-2,901
2016,46	0	-0,821
2017,468	-4	-2,317
2018,476	-1,5	-1,48
2019,49	-2,5	-1,709
2020,498	-4,5	-2,216
2021,518	-1	-1,041
2022,531	-9	-2,813
2023,539	2,5	-0,312
2024,673	-9,5	-2,938
2025,687	2,5	-0,19
2026,701	-12	-3,499
2027,709	2,5	-0,002
2028,735	-12	-3,496
2029,749	2,5	-0,01
2030,757	-12	-3,47
2031,771	1,5	-0,119
2032,791	-8,5	-3,194
2033,805	0	-0,644
2034,819	-4,5	-2,504
2035,839	-1	-1,235
2036,847	-2,5	-1,906
2037,867	-3	-1,881
2038,881	-1,5	-1,309
2039,888	-6	-2,463
2040,908	0	-0,71
2041,922	-11,5	-3,107
2042,93	2,5	-0,015
2043,944	-12	-3,499
2044,958	2,5	-0,002
2045,966	-12	-3,494
2046,986	2,5	-0,016
2048,006	-12	-3,459
2049,02	1,5	-0,113
2050,04	-8	-3,195
2051,048	0	-0,625
2052,062	-4,5	-2,522
2053,076	-1	-1,283
2054,084	-2,5	-1,855
2055,098	-3,5	-2,007
2056,118	-1,5	-1,154
2057,125	-8	-2,665
2058,139	1,5	-0,434
2059,159	-12	-3,366
2060,173	2	-0,001
2061,181	-12,5	-3,498
2062,195	2	-0,006
2063,215	-12	-3,484
2064,229	2	-0,039
2065,243	-9,5	-3,384
2066,257	0,5	-0,282
2067,265	-6	-2,869
2068,273	0	-0,978
2069,293	-3,5	-2,237
2070,301	-2	-1,63
2071,321	-1,5	-1,552
2072,467	-1,5	-1,576
2073,487	-2	-1,65
2074,5	-4,5	-2,161
2075,514	-0,5	-0,981
2076,528	-9	-2,872
2077,542	2,5	-0,284
2078,556	-12	-3,5
2079,564	2,5	-0,001
2080,578	-12	-3,496
2081,598	2,5	-0,008
2082,606	-12	-3,473
2083,626	1,5	-0,078
2084,646	-9	-3,279
2085,66	0	-0,495
2086,674	-5	-2,648
2087,688	-0,5	-1,14
2088,696	-2,5	-1,992
2089,71	-2,5	-1,818
2090,724	-1,5	-1,377
2091,755	-5,5	-2,358
2092,775	0	-0,787
2093,789	-9,5	-2,929
2094,797	2,5	-0,156
2095,937	-10,5	-2,996
2096,957	2,5	-0,103
2097,965	-12	-3,499
2098,979	2,5	-0,002
2099,993	-12	-3,495
2101,007	2,5	-0,01
2102,027	-12	-3,474
2103,041	2	-0,054
2104,055	-9	-3,327
2105,069	0,5	-0,469
2106,083	-5,5	-2,678
2107,091	-0,5	-1,119
2108,117	-3	-2,072
2109,131	-2,5	-1,743
2110,138	-1,5	-1,347
2111,152	-5,5	-2,41
2112,172	0	-0,778
2113,18	-11	-3,084
2114,194	2,5	-0,018
2115,208	-12	-3,499
2116,234	2,5	-0,002
2117,248	-12	-3,495
2118,262	3	-0,013
2119,27	-11,5	-3,459
2120,41	2,5	-0,014
2121,424	-11,5	-3,464
2122,438	1,5	-0,093
2123,452	-8	-3,189
2124,472	0	-0,58
2125,48	-4,5	-2,575
2126,494	-1	-1,252
2127,513	-2,5	-1,978
2128,521	-2,5	-1,818
2129,541	-1,5	-1,368
2130,555	-6	-2,334
2131,563	-0,5	-0,813
2132,577	-10	-2,975
2133,591	2,5	-0,121
2134,599	-12	-3,499
2135,613	3	-0,002
2136,639	-12	-3,495
2137,653	2,5	-0,012
2138,667	-11,5	-3,461
2139,681	1,5	-0,088
2140,701	-9	-3,265
2141,721	0	-0,488
2142,735	-5	-2,652
2143,869	0	-0,558
2144,882	-5	-2,59
2145,902	-0,5	-1,17
2146,916	-2,5	-1,894
2147,93	-3,5	-1,885
2148,95	-1,5	-1,24
2149,958	-7	-2,575
2150,978	0,5	-0,581
2151,998	-11,5	-3,132
2153,012	2	0
2154,026	-12,5	-3,499
2155,04	2	-0,002
2156,048	-12	-3,493
2157,056	2	-0,019
2158,07	-11,5	-3,445
2159,078	1	-0,141
2160,098	-7	-3,043
2161,118	0	-0,646
2162,125	-4,5	-2,412
2163,139	-1,5	-1,377
2164,159	-2,5	-1,768
2165,167	-3,5	-1,981
2420,645	2	-0,022
2421,659	-10,5	-3,427
2422,667	0,5	-0,228
2423,681	-6	-2,919
2424,7	0	-0,787
2425,708	-4	-2,373
2426,722	-1,5	-1,433
2427,742	-2,5	-1,792
2428,75	-3,5	-2,026
2429,764	-1	-1,179
2430,772	-7	-2,599
2431,786	1	-0,512
2432,8	-12	-3,28
2433,808	2	-0,001
2434,822	-12	-3,498
2435,836	2,5	-0,004
2436,85	-12	-3,489
2437,87	2	-0,031
2438,884	-10,5	-3,414
2439,892	1	-0,248
2440,912	-6	-2,904
2441,931	0	-0,849
2442,939	-3,5	-2,279
2443,953	-2	-1,537
2444,961	-2	-1,548
2445,975	-5	-2,267
2446,989	-0,5	-0,854
2447,997	-9,5	-2,93
2449,017	2	-0,201
2450,031	-12,5	-3,5
2451,039	2,5	-0,002
2452,059	-12,5	-3,496
2453,073	2,5	-0,012
2454,081	-11,5	-3,459
2455,101	1,5	-0,109
2456,115	-7,5	-3,17
2457,129	0	-0,645
2458,143	-4,5	-2,459
2459,157	-1,5	-1,373
2460,176	-2,5	-1,777
2461,19	-3,5	-2,033
2462,204	-1	-1,12
2463,218	-8,5	-2,737
2464,232	2	-0,35
2465,24	-12	-3,5
2466,254	2,5	-0,001
2467,268	-12	-3,497
2468,282	2,5	-0,006
2469,296	-12	-3,479
2470,31	2	-0,053
2471,318	-8,5	-3,314
2472,338	0	-0,398
2473,352	-5	-2,728
2474,372	-0,5	-1,063
2475,386	-3	-2,064
2476,399	-2	-1,709
2477,407	-1,5	-1,402
2478,427	-5,5	-2,415
2479,441	0	-0,641
2480,455	-12	-3,202
2481,469	2,5	0
2482,477	-12	-3,498
2483,623	2,5	-0,001
2484,643	-12	-3,498
2485,651	2,5	-0,004
2486,665	-12	-3,488
2487,679	2,5	-0,035
2488,699	-10,5	-3,398
2489,707	0,5	-0,349
2490,721	-5,5	-2,707
2491,729	-0,5	-1,148
2492,743	-3	-1,946
3220,129	-1	-1,627
3221,143	-1,5	-1,494
3222,151	-3,5	-2,34
3223,165	0	-0,742
3224,179	-7,5	-3,036
3225,187	2,5	-0,022
3226,201	-9	-3,499
3227,215	2,5	-0,002
3228,229	-9	-3,494
3229,242	2,5	-0,014
3230,262	-9	-3,46
3231,27	1	-0,158
3232,29	-5,5	-3,106
3233,298	0	-0,701
3233,808	2,5	-0,001