File: Cycling_tests/_20perc/_4gap/entrada/_2.txt
Time (s)	Load (N)	Displacement (mm)
0	1	-0,034
2,34	-5	-1,038
4,775	-18	-2,547
7,248	-32	-3,481
9,629	-31,5	-3,471
11,993	-22	-2,357
14,885	3	-0,002
17,285	-0,5	-0,711
19,709	-13,5	-2,122
22,145	-27	-3,396
24,574	-30,5	-3,499
27,112	-15	-1,713
29,596	0	-0,184
32,038	3	-0,002
34,48	-3	-1,017
36,838	-11,5	-2,018
39,226	-25	-3,331
41,578	-29,5	-3,492
43,99	-28	-3,081
46,342	-16	-2,007
48,795	-1	-0,346
51,195	3	-0,009
53,439	3	-0,002
55,785	1	-0,508
58,119	-7	-1,564
60,614	-23,5	-3,28
62,978	-29	-3,492
65,277	-29	-3,499
67,55	-27	-3,019
69,938	-14	-1,855
72,85	3,5	-0,194
75,176	-4	-1,098
77,467	-9,5	-1,923
79,849	-20	-3,187
82,249	-28,5	-3,493
84,493	-28,5	-3,498
86,857	-26	-2,954
89,257	-11,5	-1,652
91,579	-3	-0,746
93,883	2	-0,095
96,252	3,5	-0,003
98,634	2	-0,451
101,038	-7,5	-1,795
103,8	-28	-3,498
106,236	-20	-2,556
108,6	-9	-1,468
110,994	0,5	-0,22
113,309	3,5	-0,008
115,698	3,5	-0,022
118,037	-2,5	-0,973
120,353	-8,5	-1,918
122,681	-17	-2,822
125,051	-26,5	-3,461
127,361	-27,5	-3,497
129,628	-27	-3,492
131,968	-19,5	-2,592
134,65	2,5	-0,1
136,897	3,5	-0,014
139,204	4	-0,002
141,424	4	0
143,728	-0,5	-0,759
146,085	-8	-1,831
148,395	-14,5	-2,636
150,724	-24,5	-3,406
152,997	-27	-3,488
155,337	-27	-3,499
157,593	-26	-3,147
159,879	-17	-2,44
162,135	-12,5	-1,935
164,378	-6	-1,403
166,67	-1	-0,608
169,395	1,5	-0,478
171,633	-2	-0,956
173,87	-5,5	-1,448
176,198	-12	-2,339
178,538	-22,5	-3,327
180,776	-25,5	-3,46
183,073	-26,5	-3,497
185,348	-26,5	-3,497
187,597	-23	-2,848
189,925	-13,5	-2,087
192,247	-5	-1,22
194,455	-2	-0,827
196,717	1	-0,302
198,983	3,5	-0,038
201,233	4	-0,006
203,61	4	-0,186
205,836	0,5	-0,576
208,098	-4,5	-1,201
210,342	-6,5	-1,693
212,598	-11	-2,27
214,86	-15,5	-2,878
217,079	-20,5	-3,253
219,269	-22	-3,402
221,514	-25,5	-3,48
223,697	-26	-3,493
225,995	-26	-3,499
228,179	-26	-3,5
230,446	-22,5	-2,912
232,679	-20	-2,454
235,372	3,5	-0,06
237,691	4	-0,005
239,92	4	-0,002
242,188	4	-0,278
244,474	-3,5	-1,056
246,706	-5,5	-1,611
249,028	-12	-2,464
251,314	-19,5	-3,117
253,521	-22	-3,347
255,772	-24,5	-3,468
257,979	-25	-3,487
260,205	-25,5	-3,497
262,419	-25,5	-3,499
264,645	-25,5	-3,5
266,847	-25	-3,26
269,115	-17,5	-2,603
271,335	-14	-2,253
273,554	-9,5	-1,875
275,799	-5,5	-1,411
278	-3,5	-1,155
280,22	-1,5	-0,801
282,392	-0,5	-0,693
284,606	0	-0,37
286,819	2,5	-0,122
289,034	3,5	-0,045
291,313	4	-0,006
293,449	4	-0,007
295,639	4	-0,004
297,787	4	-0,004
299,995	4	-0,002
302,215	4	0
304,915	-14,5	-2,769
307,086	-14,5	-2,873
309,36	-21,5	-3,386
311,58	-24	-3,474
313,764	-24,5	-3,486
315,936	-24,5	-3,49
318,144	-24,5	-3,497
320,352	-25	-3,499
322,619	-25	-3,426
324,851	-21,5	-2,92
327,047	-18	-2,653
329,273	-14	-2,257
331,469	-10,5	-1,942
333,623	-10,5	-1,84
335,819	-7,5	-1,602
338,039	-4	-1,178
340,714	4	-0,001
342,868	4	-0,001
345,124	4	-0,329
347,284	3,5	-0,465
349,438	2,5	-0,527
351,598	1,5	-0,636
353,782	0	-0,818
355,96	-2	-1,006
358,119	-2	-1,046
360,333	-4,5	-1,413
362,541	-5,5	-1,704
364,671	-5,5	-1,683
405,193	-1,5	-0,958
407,317	-0,5	-0,861
409,47	-1,5	-0,945
411,612	-2	-1,012
413,73	-1,5	-0,916
415,938	-3	-1,247
418,104	-4	-1,381
420,186	-2	-1,031
422,31	-1,5	-0,98
424,434	0	-0,824
426,575	0	-0,8
428,711	0,5	-0,735
430,865	0	-0,755
433,013	0	-0,777
435,119	2,5	-0,568
437,327	-1	-0,89
439,469	-1	-0,888
441,599	0	-0,83
443,728	0	-0,875
445,846	0	-0,714
448,006	0	-0,791
450,136	0	-0,776
452,309	-2	-0,992
454,444	-1,5	-0,912
456,58	-1,5	-0,88
458,722	-1,5	-0,953
460,858	0	-0,828
463,023	-1,5	-0,908
465,184	-2	-1,006
467,283	0	-0,8
469,377	3	-0,524
471,501	3	-0,41
473,655	1,5	-0,542
475,761	3,5	-0,342
477,872	4,5	-0,174
479,978	4	-0,004
482,084	4	-0,001
484,202	4,5	-0,001
486,302	4	-0,002
488,408	4	-0,002
490,562	4	-0,002
492,644	4,5	-0,004
494,75	4	-0,007
496,873	4	-0,011
499,003	4,5	-0,012
501,583	-2,5	-1,114
503,719	-2,5	-1,124
505,85	-2	-1,055
507,937	1	-0,762
510,073	0	-0,809
512,185	1,5	-0,645
514,308	2	-0,574
516,396	3,5	-0,338
518,538	3,5	-0,431
520,644	4	-0,132
522,78	4,5	-0,114
524,892	4,5	0
526,98	4	-0,001
529,062	4,5	-0,003
531,198	4	-0,004
533,291	4,5	-0,008
535,415	4,5	-0,012
537,509	4	-0,024
539,597	3,5	-0,058
541,697	3	-0,104
543,797	1,5	-0,218
545,909	1,5	-0,244
548,009	0,5	-0,4
550,078	-1	-0,784
552,166	-2,5	-1,048
554,26	-3	-1,248
556,372	-3,5	-1,358
558,466	-6	-1,615
560,542	-8,5	-1,921
562,654	-10	-2,09
564,718	-14,5	-2,504
566,847	-16	-2,594
568,971	-16	-2,675
571,06	-21	-3,019
573,147	-23,5	-3,3
575,235	-23,5	-3,5
577,317	-23,5	-3,499
579,423	-23,5	-3,498
581,487	-23	-3,494
583,598	-23,5	-3,491
585,698	-23	-3,484
587,816	-23	-3,482
590,372	-16,5	-2,712
592,472	-19,5	-2,941
594,596	-21	-3,013
596,684	-23	-3,323
598,796	-23	-3,498
600,883	-23	-3,499
602,995	-23	-3,499
605,101	-23	-3,498
607,207	-23	-3,495
609,307	-23	-3,486
611,383	-22	-3,452
613,495	-21	-3,412
615,601	-18,5	-3,317
617,725	-16,5	-3,233
619,794	-14,5	-2,907
621,912	-12	-2,687
624,018	-10	-2,446
626,136	-8,5	-2,287
628,218	-6	-2,007
630,336	-5,5	-1,787
632,436	-4,5	-1,522
634,524	-3	-1,2
636,635	-2	-1,109
638,771	-1,5	-0,899
640,871	0,5	-0,654
642,983	3	-0,459
645,083	4	-0,248
647,172	4	0
649,289	4	-0,001
651,428	4	-0,001
653,548	4	-0,001
655,63	4	-0,003
657,712	4,5	-0,008
659,776	4	-0,032
661,87	3,5	-0,071
663,958	1,5	-0,195
666,034	0	-0,528
668,122	-1	-0,784
670,228	-1	-0,945
672,321	-3	-1,188
674,415	-5	-1,452
676,491	-7	-1,838
678,579	-11	-2,189
680,655	-15	-2,564
682,767	-20	-2,718
684,867	-21,5	-2,952
686,949	-23	-3,218
689,552	-2	-1,069
691,67	-2,5	-1,193
693,77	-4,5	-1,463
695,852	-6,5	-1,798
697,934	-10,5	-2,196
700,034	-14	-2,467
702,164	-14	-2,562
704,24	-19,5	-2,904
706,339	-22,5	-3,178
708,415	-22,5	-3,5
710,497	-22,5	-3,499
712,591	-22,5	-3,498
714,685	-22,5	-3,493
716,755	-22,5	-3,48
718,867	-21	-3,466
720,955	-19,5	-3,408
723,018	-16,5	-3,226
725,166	-13,5	-3,17
727,26	-13	-2,878
729,372	-11,5	-2,663
731,46	-8,5	-2,363
733,536	-6	-2,041
735,606	-4,5	-1,652
737,694	-3	-1,272
739,788	-1,5	-0,945
741,899	0	-0,755
744,017	2,5	-0,558
746,105	4	-0,234
748,169	4,5	-0,001
750,275	4,5	-0,001
752,375	4,5	-0,002
754,445	4,5	-0,006
756,533	4,5	-0,014
758,614	4	-0,047
760,708	3	-0,104
762,808	2	-0,192
764,89	0,5	-0,488
766,966	-0,5	-0,809
769,066	-1,5	-1,018
771,148	-3	-1,358
773,242	-5	-1,653
775,3	-8,5	-2,092
777,411	-11,5	-2,268
779,493	-15	-2,633
781,593	-18	-2,877
783,711	-20,5	-3,064
785,811	-22	-3,205
787,911	-22	-3,5
789,999	-22	-3,499
792,105	-22	-3,498
794,187	-22	-3,494
796,292	-22	-3,488
798,404	-21,5	-3,48
800,486	-20,5	-3,438
802,586	-18	-3,346
804,68	-15	-3,178
806,75	-11	-2,757
808,844	-9	-2,482
810,92	-7	-2,135
813,019	-5,5	-1,927
815,119	-4	-1,672
817,201	-3	-1,332
819,319	-2,5	-1,172
821,407	0	-0,777
823,519	1,5	-0,62
825,679	1	-0,664
827,761	4	-0,3
829,891	4,5	-0,264
831,997	4	0
834,114	4	-0,001
836,202	4,5	-0,002
838,308	4	-0,004
840,426	4,5	-0,006
842,496	4	-0,023
844,566	3,5	-0,084
846,659	2	-0,197
848,765	0,5	-0,403
850,859	0	-0,634
852,959	-1	-0,858
855,035	-2,5	-1,212
857,147	-4	-1,402
859,229	-6	-1,704
861,311	-9,5	-2,049
863,399	-12	-2,338
865,48	-15	-2,657
867,55	-21,5	-3,094
869,65	-22	-3,326
871,75	-22	-3,5
873,844	-22	-3,499
875,914	-22	-3,497
878,008	-22	-3,493
880,083	-21,5	-3,481
882,177	-21	-3,454
884,247	-17	-3,335
886,359	-15,5	-3,232
888,441	-12	-2,933
890,535	-9	-2,585
892,599	-6,5	-2,16
894,675	-5	-1,795
896,751	-3,5	-1,56
898,838	-2,5	-1,254
900,92	-1	-0,973
903,002	2	-0,622
905,114	3	-0,517
907,19	4,5	-0,131
909,26	4,5	-0,001
911,36	4,5	-0,002
913,436	4,5	-0,005
915,511	4,5	-0,018
917,593	3,5	-0,064
919,699	2,5	-0,126
921,823	2	-0,157
923,911	1	-0,377
925,975	0	-0,696
928,075	-1	-0,966
930,157	-3	-1,333
932,239	-5,5	-1,678
934,326	-8,5	-1,956
936,396	-12	-2,362
938,472	-15	-2,684
940,542	-20,5	-3,057
942,618	-22	-3,446
944,712	-22	-3,5
946,788	-22	-3,498
948,888	-22	-3,496
950,975	-22	-3,49
953,045	-21	-3,465
955,115	-19	-3,405
957,191	-16,5	-3,261
959,267	-13,5	-2,944
961,385	-11	-2,801
963,491	-11	-2,708
965,573	-8,5	-2,39
967,661	-6	-2,09
969,748	-4,5	-1,849
971,837	-3,5	-1,523
973,906	-2,5	-1,14
976,012	-1,5	-0,946
978,112	0	-0,765
980,188	2,5	-0,464
982,276	4	-0,197
984,382	4,5	-0,015
986,451	4,5	-0,002
988,557	4,5	-0,002
990,615	4,5	-0,011
992,721	4	-0,024
994,809	3,5	-0,056
996,873	2	-0,166
998,949	0,5	-0,477
1001,031	-0,5	-0,828
1003,1	-2,5	-1,217
1005,188	-4	-1,527
1007,276	-6,5	-1,842
1009,358	-9,5	-2,128
1011,434	-13	-2,472
1013,516	-18,5	-2,833
1015,592	-21,5	-3,194
1017,668	-21,5	-3,5
1019,761	-21,5	-3,499
1021,844	-21,5	-3,498
1023,925	-21,5	-3,494
1026,019	-21,5	-3,486
1028,071	-19,5	-3,423
1030,159	-16,5	-3,315
1032,241	-13	-3,025
1034,305	-9	-2,567
1036,411	-8	-2,353
1038,511	-6	-2,092
1040,61	-4,5	-1,789
1042,716	-3,5	-1,628
1044,78	-2	-1,246
1046,856	-0,5	-0,918
1048,956	1,5	-0,641
1051,026	4	-0,278
1053,12	4,5	-0,001
1055,207	4,5	-0,001
1057,271	4,5	-0,004
1059,365	4,5	-0,01
1061,435	4	-0,031
1063,511	3,5	-0,083
1065,599	1,5	-0,224
1067,681	0	-0,596
1069,757	-1,5	-0,977
1071,839	-3	-1,322
1073,92	-4	-1,604
1076,002	-7	-1,953
1078,084	-9,5	-2,122
1080,172	-13	-2,498
1082,284	-14,5	-2,672
1084,36	-18,5	-3,005
1086,43	-21,5	-3,307
1088,518	-21	-3,499
1090,587	-21,5	-3,498
1092,675	-21	-3,495
1094,757	-21	-3,486
1096,833	-20,5	-3,464
1098,927	-20	-3,452
1101,015	-16,5	-3,324
1103,097	-14,5	-3,041
1105,191	-10,5	-2,718
1107,278	-9	-2,484
1109,343	-6	-2,027
1111,418	-4	-1,603
1113,482	-2,5	-1,189
1115,558	-0,5	-0,799
1117,634	3,5	-0,433
1119,71	4	-0,084
1121,786	4,5	-0,001
1123,868	4,5	-0,002
1125,938	4,5	-0,007
1128,001	4	-0,024
1130,066	3,5	-0,084
1132,135	1,5	-0,298
1134,205	0	-0,698
1136,293	-1,5	-0,991
1138,375	-2,5	-1,326
1140,445	-5	-1,683
1142,514	-8	-2,104
1144,644	-9,5	-2,204
1146,726	-12,5	-2,485
1148,796	-16,5	-2,896
1150,878	-21	-3,284
1152,948	-21	-3,5
1155,018	-21,5	-3,498
1157,094	-21	-3,496
1159,164	-21	-3,487
1161,239	-20,5	-3,459
1163,339	-19	-3,417
1165,415	-15	-3,181
1167,497	-12,5	-2,92
1169,573	-10	-2,587
1171,649	-6,5	-2,217
1173,767	-5,5	-1,995
1175,861	-4,5	-1,778
1177,943	-3	-1,481
1180,006	-1,5	-0,998
1182,094	0	-0,703
1184,17	4	-0,329
1186,24	4,5	0
1188,304	4,5	-0,002
1190,374	4,5	-0,007
1192,444	4,5	-0,021
1194,502	3,5	-0,085
1196,572	1,5	-0,306
1198,665	0	-0,593
1200,741	-0,5	-0,909
1202,823	-2,5	-1,302
1204,899	-4,5	-1,624
1206,969	-8	-2,06
1209,075	-10	-2,313
1211,139	-15	-2,749
1213,209	-20,5	-3,122
1215,278	-21	-3,5
1217,354	-21	-3,499
1219,424	-21	-3,496
1221,506	-21	-3,487
1223,57	-20	-3,455
1225,646	-16,5	-3,327
1227,71	-13	-2,924
1229,828	-10,5	-2,776
1231,891	-8	-2,404
1233,973	-6	-2,058
1236,061	-4,5	-1,769
1238,149	-3,5	-1,534
1240,243	-2,5	-1,282
1242,343	-1,5	-1,026
1244,437	0	-0,782
1246,495	3,5	-0,376
1248,565	4	0
1250,628	4,5	-0,002
1252,686	4,5	-0,007
1254,75	4	-0,032
1256,826	3	-0,122
1258,878	0,5	-0,524
1260,954	-0,5	-0,932
1263,042	-2	-1,268
1265,124	-4,5	-1,618
1267,181	-7,5	-2,058
1269,251	-11	-2,452
1271,357	-13,5	-2,666
1273,433	-19	-3,02
1275,479	-20,5	-3,5
1277,555	-20,5	-3,499
1279,631	-20,5	-3,497
1281,713	-20,5	-3,491
1283,77	-20	-3,464
1285,834	-16	-3,349
1287,91	-13,5	-3,07
1289,992	-10,5	-2,799
1292,068	-7,5	-2,419
1294,144	-5	-2,092
1296,208	-3,5	-1,693
1298,272	-2,5	-1,284
1300,329	0	-0,851
1302,441	1,5	-0,709
1304,505	4,5	-0,244
1306,593	4,5	0
1308,675	4,5	-0,001
1310,763	4,5	-0,004
1312,833	4,5	-0,011
1314,909	4	-0,028
1316,985	3	-0,1
1319,061	1,5	-0,27
1321,166	0,5	-0,524
1323,242	-0,5	-0,814
1325,318	-2,5	-1,215
1327,388	-4,5	-1,589
1329,464	-6	-1,843
1331,528	-9,5	-2,196
1333,592	-14	-2,628
1335,661	-19,5	-3,028
1337,737	-20,5	-3,412
1339,807	-20,5	-3,499
1341,877	-20,5	-3,497
1343,942	-20,5	-3,488
1346,029	-19,5	-3,469
1348,093	-17,5	-3,392
1350,169	-14	-3,155
1352,262	-12	-2,922
1354,32	-7,5	-2,495
1356,408	-6	-2,194
1358,484	-4	-1,788
1360,56	-2,5	-1,418
1362,63	-1	-0,991
1364,73	0	-0,827
1366,824	2,5	-0,51
1368,888	4,5	-0,07
1370,963	4,5	-0,001
1373,027	4,5	-0,003
1375,103	4,5	-0,006
1377,191	4,5	-0,019
1379,261	4	-0,065
1381,343	1,5	-0,17
1383,431	1	-0,394
1385,501	0	-0,719
1387,565	-1,5	-1,123
1389,646	-3	-1,441
1391,716	-5,5	-1,772
1393,798	-9	-2,138
1395,874	-12,5	-2,497
1397,926	-18	-3,009
1400,002	-20	-3,395
1402,09	-20,5	-3,499
1404,166	-20,5	-3,498
1406,26	-20,5	-3,496
1408,329	-20	-3,485
1410,405	-19,5	-3,459
1412,475	-15,5	-3,352
1414,569	-13	-3,242
1416,693	-12	-3,011
1418,769	-9	-2,63
1420,857	-7,5	-2,454
1422,95	-5,5	-2,173
1425,027	-4	-1,824
1427,108	-3	-1,537
1429,202	-2	-1,257
1431,302	-1,5	-1,067
1433,372	1,5	-0,666
1435,436	4,5	-0,222
1437,494	4,5	0
1439,57	4,5	-0,002
1441,658	4,5	-0,004
1443,715	4	-0,022
1445,779	3,5	-0,076
1447,862	2	-0,2
1449,925	0	-0,548
1451,995	-1	-0,901
1454,059	-2,5	-1,267
1456,141	-3,5	-1,543
1458,222	-5,5	-1,782
1460,298	-7,5	-2,119
1462,35	-13	-2,54
1464,426	-16	-2,858
1466,514	-19,5	-3,158
1468,566	-20	-3,5
1470,642	-20	-3,498
1472,724	-20,5	-3,495
1474,776	-20	-3,481
1476,857	-19,5	-3,446
1478,933	-16,5	-3,34
1481,009	-13	-3,114
1483,073	-10	-2,771
1485,149	-7	-2,394
1487,231	-5	-2,032
1489,295	-3,5	-1,634
1491,365	-2	-1,282
1493,428	-0,5	-0,885
1495,511	2,5	-0,565
1497,574	4,5	-0,078
1499,65	4,5	-0,001
1501,714	4,5	-0,003
1503,796	4,5	-0,009
1505,86	4	-0,031
1507,936	3	-0,102
1510,012	1,5	-0,29
1512,081	0	-0,682
1514,157	-0,5	-0,972
1516,233	-2	-1,283
1518,291	-4,5	-1,722
1520,811	3,5	-0,087
1522,869	1	-0,332
1524,921	0	-0,763
1526,991	-1,5	-1,143
1529,054	-3	-1,482
1531,118	-5	-1,826
1533,2	-8,5	-2,187
1535,264	-13,5	-2,628
1537,328	-19	-3,048
1539,404	-20	-3,457
1541,48	-20	-3,499
1543,55	-20	-3,498
1545,637	-20	-3,496
1547,701	-20	-3,484
1549,747	-18	-3,426
1551,817	-15	-3,266
1553,875	-10,5	-2,851
1555,939	-7,5	-2,495
1558,015	-5,5	-2,136
1560,091	-4	-1,75
1562,143	-2,5	-1,33
1564,219	-1	-0,97
1566,282	2	-0,593
1568,352	4,5	-0,176
1570,44	4,5	0
1572,51	4,5	-0,002
1574,574	4,5	-0,006
1576,632	4	-0,03
1578,69	3,5	-0,095
1580,778	1,5	-0,25
1582,878	1	-0,424
1584,941	0	-0,768
1587,023	-1,5	-1,124
1589,099	-3	-1,334
1591,175	-4,5	-1,747
1593,251	-7	-2,142
1595,351	-9,5	-2,371
1597,439	-14	-2,714
1599,508	-18	-3,088
1601,59	-19,5	-3,401
1603,642	-20	-3,499
1605,724	-20	-3,498
1607,8	-20	-3,491
1609,852	-19,5	-3,469
1611,916	-16,5	-3,387
1613,998	-14	-3,248
1616,049	-10	-2,77
1618,131	-8	-2,51
1620,195	-5	-2,064
1622,259	-3	-1,635
1624,353	-2	-1,344
1626,441	-1,5	-1,05
1628,517	1	-0,658
1630,569	4,5	-0,234
1633,106	-6	-2,183
1635,164	-4,5	-1,836
1637,21	-2,5	-1,47
1639,269	-1,5	-1,058
1641,327	1	-0,613
1643,396	4,5	-0,226
1645,472	4,5	-0,001
1647,536	4,5	-0,003
1649,612	4,5	-0,008
1651,681	4	-0,027
1653,751	3,5	-0,074
1655,815	1,5	-0,28
1657,897	0,5	-0,543
1659,985	0	-0,838
1662,049	-1,5	-1,242
1664,119	-3,5	-1,589
1666,189	-6	-1,988
1668,252	-9,5	-2,353
1670,304	-14,5	-2,779
1672,392	-19	-3,129
1674,456	-20	-3,5
1676,508	-20	-3,498
1678,572	-19,5	-3,492
1680,672	-19,5	-3,484
1682,742	-18	-3,455
1684,8	-14,5	-3,281
1686,846	-10	-2,769
1688,909	-7,5	-2,418
1690,961	-4,5	-1,917
1693,013	-2,5	-1,422
1695,065	-1	-0,964
1697,123	1,5	-0,584
1699,187	4,5	-0,197
1701,251	4,5	-0,001
1703,309	4,5	-0,003
1705,354	4,5	-0,01
1707,412	4	-0,048
1709,47	2	-0,194
1711,546	0,5	-0,542
1713,598	-1	-0,973
1715,662	-3	-1,494
1717,726	-6	-1,977
1719,771	-11	-2,502
1721,848	-14,5	-2,813
1723,899	-19	-3,237
1725,963	-19,5	-3,5
1728,015	-19,5	-3,498
1730,091	-19,5	-3,495
1732,149	-19	-3,48
1734,207	-18	-3,42
1736,271	-14	-3,213
1738,322	-10	-2,709
1740,398	-7	-2,307
1742,45	-4	-1,837
1744,514	-2,5	-1,37
1746,584	-1,5	-1,03
1748,642	1	-0,586
1750,688	4,5	-0,006
1752,752	4,5	-0,001
1754,815	4,5	-0,004
1756,915	4,5	-0,008
1758,991	4,5	-0,025
1761,061	3,5	-0,093
1763,119	1,5	-0,361
1765,195	0	-0,694
1767,253	-1,5	-1,143
1769,305	-4	-1,676
1771,351	-7,5	-2,137
1773,414	-12	-2,544
1775,472	-18	-3,054
1777,518	-19,5	-3,5
1779,577	-19,5	-3,498
1781,64	-19,5	-3,494
1783,704	-19,5	-3,477
1785,75	-15,5	-3,383
1787,826	-12	-3,097
1789,889	-8,5	-2,685
1791,953	-6	-2,255
1794,017	-3,5	-1,802
1796,081	-2,5	-1,4
1798,133	-0,5	-0,899
1800,191	4	-0,422
1802,255	4,5	-0,036
1804,331	4,5	-0,001
1806,395	4,5	-0,003
1808,447	4,5	-0,015
1810,51	3,5	-0,06
1812,58	1,5	-0,257
1814,644	0	-0,676
1816,696	-1,5	-1,224
1818,754	-4,5	-1,748
1820,806	-9	-2,264
1822,87	-14	-2,673
1824,921	-19,5	-3,224
1826,986	-19,5	-3,499
1829,038	-19,5	-3,498
1831,095	-19,5	-3,489
1833,147	-18	-3,447
1835,199	-13	-3,198
1837,257	-9	-2,707
1839,303	-5	-2,192
1841,373	-3,5	-1,802
1843,425	-1,5	-1,303
1845,488	0	-0,883
1847,564	3,5	-0,507
1849,61	4,5	0
1851,656	4,5	-0,002
1853,714	4,5	-0,008
1855,766	4	-0,041
1857,818	2	-0,199
1859,869	0	-0,708
1861,922	-1,5	-1,178
1863,967	-4,5	-1,735
1866,037	-7,5	-2,161
1868,089	-13	-2,688
1870,147	-19,5	-3,139
1872,193	-19,5	-3,499
1874,245	-19,5	-3,498
1876,327	-19,5	-3,491
1878,391	-19	-3,462
1880,442	-13,5	-3,266
1882,5	-9,5	-2,845
1884,552	-6	-2,311
1886,616	-3,5	-1,806
1888,662	-2	-1,287
1890,762	-0,5	-0,957
1892,814	3,5	-0,466
1894,877	4,5	-0,009
1896,942	4,5	-0,002
1899,005	4,5	-0,006
1901,057	4	-0,027
1903,127	3,5	-0,083
1905,179	1	-0,354
1907,237	0	-0,882
1909,283	-3	-1,408
1911,335	-5	-1,887
1913,387	-8,5	-2,297
1951,748	-19,5	-3,5
1953,8	-19,5	-3,498
1955,864	-19,5	-3,491
1957,916	-18,5	-3,462
1959,974	-13	-3,297
1962,026	-10	-2,86
1964,09	-7,5	-2,5
1966,135	-4,5	-2,041
1968,187	-2,5	-1,5
1970,257	-1	-1,047
1972,321	2	-0,632
1974,373	4,5	-0,126
1976,425	4,5	-0,001
1978,483	4,5	-0,003
1980,547	4,5	-0,007
1982,604	4	-0,035
1984,656	2,5	-0,149
1986,714	0,5	-0,538
1988,808	0	-0,823
1990,866	-1,5	-1,287
1992,942	-3,5	-1,647
1995,006	-5,5	-2,008
1997,064	-9,5	-2,457
1999,11	-15,5	-2,924
2001,168	-19,5	-3,327
2003,237	-19,5	-3,499
2005,295	-19,5	-3,498
2007,347	-19,5	-3,49
2009,393	-18	-3,458
2011,457	-15	-3,362
2013,527	-12	-3,052
2015,591	-8	-2,644
2017,636	-5	-2,145
2019,7	-3,5	-1,678
2021,752	-1,5	-1,199
2023,834	0	-0,848
2025,916	3	-0,508
2027,968	4,5	-0,009
2030,032	4,5	-0,001
2032,12	4,5	-0,003
2034,166	4,5	-0,01
2036,223	4	-0,036
2038,281	3	-0,147
2040,339	1	-0,458
2042,403	-0,5	-0,935
2044,467	-2	-1,302
2046,531	-4	-1,648
2048,595	-7	-2,092
2050,653	-11,5	-2,553
2052,705	-16,5	-2,961
2054,792	-19	-3,278
2056,862	-19	-3,499
2058,908	-19	-3,497
2060,966	-19	-3,488
2063,024	-18,5	-3,459
2065,088	-15	-3,342
2067,14	-10,5	-2,927
2069,186	-6,5	-2,408
2071,238	-4	-1,881
2073,283	-2,5	-1,409
2075,341	-1	-1,002
2077,387	3	-0,492
2079,451	4,5	-0,102
2081,497	4,5	-0,001
2083,549	4,5	-0,006
2085,625	4	-0,02
2087,688	3	-0,087
2089,753	1	-0,386
2091,798	-0,5	-0,927
2093,856	-2	-1,398
2095,908	-5	-1,861
2097,966	-9	-2,363
2100,012	-15	-2,868
2102,076	-19	-3,36
2104,128	-19,5	-3,499
2106,179	-19,5	-3,494
2108,243	-19	-3,475
2110,301	-16,5	-3,399
2112,359	-12,5	-3,111
2114,417	-8	-2,576
2116,481	-5,5	-2,188
2118,527	-3	-1,621
2120,573	-2	-1,185
2122,625	0,5	-0,722
2124,688	4	-0,35
2126,77	4,5	0
2128,822	4,5	-0,002
2130,88	4,5	-0,008
2132,932	4	-0,028
2134,99	3	-0,11
2137,036	0,5	-0,518
2139,088	-0,5	-1,014
2141,133	-2,5	-1,483
2143,185	-5,5	-1,99
2145,249	-11,5	-2,457
2147,307	-16,5	-2,987
2149,371	-19	-3,427
2151,417	-19	-3,499
2153,475	-19	-3,495
2155,521	-18	-3,473
2157,566	-15	-3,359
2159,63	-12	-3,072
2161,682	-7	-2,588
2163,758	-5,5	-2,202
2165,81	-3,5	-1,73
2167,868	-1,5	-1,247
2169,914	0	-0,727
2171,972	4	-0,287
2174,018	4,5	-0,001
2176,07	4,5	-0,003
2178,169	4,5	-0,007
2180,215	4	-0,038
2182,279	2,5	-0,139
2184,325	0	-0,549
2186,371	-1	-1,122
2188,429	-3	-1,593
2190,481	-6	-2,045
2192,539	-9,5	-2,483
2194,59	-15,5	-3,018
2196,642	-18,5	-3,483
2198,7	-18,5	-3,498
2200,752	-18,5	-3,495
2202,816	-18	-3,48
2204,868	-16	-3,403
2206,92	-11,5	-3,078
2208,984	-8	-2,701
2211,036	-5,5	-2,318
2213,087	-4	-1,833
2215,139	-2	-1,338
2217,191	-0,5	-0,874
2219,237	3,5	-0,333
2221,283	4,5	0
2223,335	4,5	-0,003
2225,399	4	-0,006
2227,474	4	-0,02
2229,52	3	-0,102
2231,572	1,5	-0,382
2233,636	0	-0,807
2235,688	-1	-1,302
2237,746	-3,5	-1,783
2239,792	-7,5	-2,313
2241,838	-12,5	-2,812
2243,92	-17,5	-3,137
2245,971	-18	-3,5
2248,029	-17,5	-3,498
2250,081	-17,5	-3,492
2252,133	-16	-3,465
2254,185	-14,5	-3,336
2256,237	-9	-2,968
2258,301	-7	-2,591
2260,353	-5	-2,149
2262,399	-3	-1,65
2264,463	-1,5	-1,231
2266,526	0	-0,865
2268,59	3	-0,488
2270,642	4,5	-0,076
2272,688	4,5	-0,001
2274,752	4,5	-0,004
2276,804	4,5	-0,018
2278,868	3,5	-0,061
2280,913	1,5	-0,293
2282,965	0	-0,697
2285,011	-0,5	-1,132
2287,063	-2,5	-1,547
2289,115	-5,5	-2,037
2291,161	-10	-2,54
2293,207	-14,5	-2,999
2295,259	-16,5	-3,492
2297,329	-17	-3,499
2299,386	-17	-3,497
2301,444	-17	-3,488
2303,49	-15	-3,446
2305,542	-12,5	-3,288
2307,588	-8	-2,782
2309,64	-4,5	-2,293
2311,698	-3,5	-1,902
2313,75	-2,5	-1,497
2315,801	-1	-1,007
2317,866	2	-0,588
2319,929	4	-0,321
2321,987	4,5	0
2324,039	4,5	-0,003
2326,103	4,5	-0,009
2328,179	4	-0,024
2330,231	3	-0,111
2332,306	1,5	-0,337
2334,37	0	-0,698
2336,434	-0,5	-1,122
2338,486	-2,5	-1,624
2340,538	-5,5	-2,096
2342,584	-10	-2,622
2344,636	-16	-3,139
2346,7	-16	-3,5
2348,746	-16	-3,498
2350,804	-16	-3,491
2352,862	-15	-3,463
2354,919	-12,5	-3,349
2356,995	-9	-3,09
2359,059	-7	-2,752
2361,135	-5	-2,328
2363,193	-3	-1,953
2365,269	-2,5	-1,652
2367,314	-1	-1,116
2369,39	1	-0,736
2371,442	4,5	-0,275
2373,518	4,5	0
2375,57	4,5	-0,002
2377,622	4,5	-0,008
2379,668	4	-0,05
2381,72	2	-0,238
2383,772	0	-0,768
2385,823	-1	-1,292
2387,899	-2,5	-1,646
2389,957	-4,5	-2,132
2392,009	-9	-2,554
2394,067	-13,5	-2,998
2396,113	-15	-3,479
2398,207	-15,5	-3,499
2400,259	-15	-3,497
2402,317	-15	-3,49
2404,368	-15	-3,452
2406,414	-10,5	-3,266
2408,478	-7,5	-2,832
2410,53	-4,5	-2,358
2412,588	-3	-1,898
2414,634	-1,5	-1,39
2416,686	0	-0,962
2418,744	3	-0,513
2420,808	4,5	-0,058
2422,871	4,5	-0,001
2424,917	4,5	-0,006
2426,981	4,5	-0,021
2429,033	3,5	-0,096
2431,085	1	-0,496
2433,143	0	-0,967
2435,195	-1	-1,483
2437,24	-3,5	-1,944
2439,298	-6	-2,383
2441,344	-12	-2,898
2443,408	-15	-3,342
2445,454	-15	-3,499
2447,506	-15	-3,496
2449,57	-15	-3,487
2451,628	-14	-3,449
2453,674	-11	-3,295
2455,732	-7,5	-2,886
2457,784	-4,5	-2,38
2459,829	-2,5	-1,844
2461,887	-1,5	-1,427
2463,939	-0,5	-0,958
2466,015	1	-0,678
2468,127	3	-0,557
2470,209	4,5	-0,23
2472,261	4,5	-0,001
2474,306	4,5	-0,002
2476,4	4,5	-0,006
2478,452	4,5	-0,026
2480,51	3,5	-0,109
2482,556	1,5	-0,496
2484,608	0	-0,981
2486,666	-1,5	-1,461
2488,712	-3,5	-1,982
2490,775	-6,5	-2,432
2492,839	-10,5	-2,852
2494,892	-15	-3,408
2496,955	-15	-3,499
2499,037	-15	-3,498
2501,095	-15	-3,492
2503,147	-14,5	-3,468
2505,211	-12	-3,364
2507,275	-9	-3,118
2509,326	-5	-2,57
2511,402	-3,5	-2,179
2513,448	-2,5	-1,681
2515,506	-1	-1,215
2517,558	0,5	-0,751
2519,622	4	-0,353
2521,68	4,5	-0,001
2523,732	4,5	-0,003
2525,79	4,5	-0,01
2527,841	4	-0,042
2529,893	2	-0,212
2531,957	1	-0,617
2534,003	0	-1,153
2536,085	-1	-1,397
2538,131	-3	-1,938
2540,183	-6	-2,417
2542,246	-9,5	-2,853
2544,293	-14,5	-3,321
2546,338	-14,5	-3,499
2548,396	-14	-3,496
2550,448	-14	-3,482
2552,494	-13	-3,425
2554,552	-9	-3,17
2556,598	-5,5	-2,624
2558,656	-3,5	-2,164
2560,702	-2	-1,655
2562,759	-1	-1,184
2564,817	1	-0,719
2566,875	4,5	-0,267
2568,939	4,5	-0,001
2570,991	4,5	-0,003
2573,073	4,5	-0,006
2575,125	4	-0,031
2577,177	3,5	-0,099
2579,234	1,5	-0,348
2581,286	0,5	-0,832
2583,338	-0,5	-1,272
2585,414	-1,5	-1,697
2587,466	-4	-2,208
2589,524	-7	-2,652
2591,57	-13,5	-3,19
2593,622	-14	-3,499
2595,68	-14	-3,497
2597,725	-14	-3,481
2599,771	-12	-3,394
2601,829	-8	-3,073
2603,875	-5	-2,532
2605,933	-3,5	-2,131
2607,979	-2	-1,558
2610,025	-1	-1,075
2612,077	2,5	-0,536
2614,122	4	0
2616,174	4,5	-0,002
2618,226	4,5	-0,009
2620,278	3,5	-0,044
2622,342	2,5	-0,154
2624,388	1	-0,607
2626,476	0	-0,918
2628,54	-0,5	-1,33
2630,586	-2,5	-1,867
2632,637	-5	-2,373
2634,695	-9,5	-2,85
2636,741	-13,5	-3,359
2638,793	-13,5	-3,499
2640,845	-13,5	-3,495
2642,897	-13	-3,47
2644,967	-12	-3,42
2647,031	-9	-3,221
2649,083	-5,5	-2,706
2651,146	-4	-2,325
2653,192	-2,5	-1,857
2655,244	-1,5	-1,378
2657,302	0	-0,897
2659,354	3,5	-0,401
2661,406	4,5	0
2663,47	4,5	-0,002
2665,527	4,5	-0,007
2667,574	4	-0,037
2669,631	2,5	-0,159
2671,701	1,5	-0,535
2673,771	0	-0,972
2675,823	-0,5	-1,483
2677,887	-2	-1,913
2679,933	-4,5	-2,413
2681,985	-8	-2,923
2684,042	-11,5	-3,378
2686,094	-12	-3,499
2688,146	-11,5	-3,494
2690,204	-11	-3,473
2692,256	-9	-3,38
2694,308	-6	-2,961
2696,372	-4	-2,516
2698,424	-3	-2,067
2700,475	-1,5	-1,572
2702,533	-0,5	-1,07
2704,585	1,5	-0,622
2706,637	4,5	-0,135
2708,701	4,5	-0,001
2710,759	4,5	-0,004
2712,805	4	-0,019
2714,863	3,5	-0,079
2716,927	1,5	-0,262
2718,984	1	-0,714
2721,03	0	-1,255
2723,082	-1	-1,692
2725,146	-2,5	-2,122
2727,198	-4,5	-2,59
2729,268	-9,5	-3,044
2731,326	-11	-3,5
2733,378	-11	-3,498
2735,429	-11	-3,49
2737,475	-10,5	-3,457
2739,569	-9	-3,391
2741,621	-6,5	-3,071
2743,673	-4	-2,607
2745,743	-3	-2,303
2747,795	-2	-1,813
2749,853	-1	-1,353
2751,905	0	-0,847
2753,956	4	-0,366
2756,008	4,5	0
2758,06	4,5	-0,002
2760,106	4,5	-0,009
2762,17	4	-0,033
2764,222	2,5	-0,13
2766,286	1,5	-0,436
2768,332	0,5	-0,892
2770,383	0	-1,308
2772,447	-1	-1,704
2774,493	-2,5	-2,162
2776,539	-6	-2,698
2778,603	-10,5	-3,102
2780,673	-11	-3,5
2782,719	-11	-3,498
2784,777	-11	-3,492
2786,823	-10	-3,454
2788,88	-8	-3,334
2790,956	-5,5	-2,991
2793,014	-3,5	-2,516
2795,078	-2	-2,031
2797,13	-1	-1,5
2799,206	-0,5	-1,082
2801,264	3	-0,58
2803,322	4,5	-0,201
2805,386	4,5	-0,001
2807,431	4,5	-0,004
2809,489	4	-0,025
2811,547	3	-0,097
2813,605	1,5	-0,414
2815,651	0,5	-0,914
2817,715	0	-1,464
2819,773	-2	-2,047
2821,819	-5,5	-2,647
2823,871	-10,5	-3,23
2825,922	-10,5	-3,499
2827,974	-10,5	-3,498
2830,032	-10,5	-3,489
2832,096	-10	-3,462
2834,16	-7,5	-3,313
2836,218	-5	-2,857
2838,27	-3	-2,33
2840,333	-2	-1,867
2842,385	-1	-1,304
2844,437	0	-0,85
2846,501	4	-0,356
2848,547	4,5	0
2850,599	4,5	-0,002
2852,657	4,5	-0,008
2854,709	4	-0,04
2856,761	2	-0,238
2858,824	0,5	-0,732
2860,87	0	-1,347
2862,922	-1,5	-1,836
2864,986	-3,5	-2,388
2867,032	-7,5	-2,904
2869,084	-10,5	-3,383
2871,136	-10,5	-3,499
2873,182	-10,5	-3,494
2875,245	-10	-3,48
2877,303	-8,5	-3,41
2879,349	-5,5	-3,02
2881,407	-3,5	-2,474
2883,453	-2,5	-2,03
2885,505	-1	-1,533
2887,563	0	-1,009
2889,633	2,5	-0,577
2891,685	4,5	-0,07
2893,748	4,5	-0,001
2895,801	4,5	-0,005
2897,852	4	-0,022
2899,904	3	-0,108
2901,95	1,5	-0,462
2904,002	0,5	-0,907
2906,066	0	-1,408
2908,118	-1,5	-1,893
2910,194	-2,5	-2,224
2912,245	-5,5	-2,757
2914,297	-10,5	-3,241
2916,355	-10,5	-3,499
2918,401	-10	-3,497
2920,453	-10	-3,482
2922,511	-9	-3,431
2924,563	-6	-3,117
2926,609	-3,5	-2,592
2928,672	-2,5	-2,168
2930,718	-1	-1,6
2932,77	0	-1,106
2934,864	1	-0,804
2936,916	4,5	-0,247
2938,968	4,5	-0,001
2941,026	4,5	-0,004
2943,078	4	-0,028
2945,159	3	-0,088
2947,212	1,5	-0,448
2949,263	0,5	-1,017
2951,321	-0,5	-1,562
2953,367	-2	-2,134
2955,419	-5,5	-2,667
2957,477	-10	-3,231
2959,523	-10	-3,499
2961,575	-10	-3,496
2963,632	-10	-3,482
2965,678	-7,5	-3,368
2967,73	-4,5	-2,886
2969,782	-3	-2,432
2971,828	-2	-1,972
2973,88	-1	-1,508
2975,938	0	-1,022
2977,99	2,5	-0,552
2980,041	4,5	-0,015
2982,1	4,5	-0,002
2984,145	4,5	-0,006
2986,191	4	-0,034
2988,243	2	-0,178
2990,289	0,5	-0,678
2992,335	0	-1,128
2994,399	-0,5	-1,521
2996,451	-1,5	-2,017
2998,503	-4	-2,591
3000,554	-9	-3,087
3002,606	-10	-3,5
3004,652	-9,5	-3,497
3006,71	-9,5	-3,487
3008,762	-9	-3,444
3010,808	-5,5	-3,207
3012,872	-4	-2,773
3014,923	-2,5	-2,257
3016,976	-1	-1,788
3019,039	-1	-1,363
3021,085	0	-0,902
3023,131	4	-0,37
3025,195	4,5	0
3027,241	4,5	-0,002
3029,287	4,5	-0,012
3031,345	3,5	-0,059
3033,396	1,5	-0,245
3035,448	0,5	-0,732
3037,494	0	-1,263
3039,558	-0,5	-1,756
3041,61	-2,5	-2,278
3043,662	-5	-2,768
3045,714	-9,5	-3,262
3047,766	-9,5	-3,499
3049,818	-9,5	-3,496
3051,882	-9,5	-3,482
3053,933	-9	-3,428
3056,057	-8	-3,398
3058,109	-5	-3,077
3060,167	-3,5	-2,622
3062,219	-2	-2,132
3064,271	-1	-1,6
3066,329	-0,5	-1,151
3068,435	0	-0,909
3070,486	3	-0,488
3072,562	4	-0,083
3074,614	4,5	-0,001
3076,672	4	-0,006
3078,73	4	-0,021
3080,782	3	-0,101
3082,828	1	-0,474
3084,886	0,5	-0,944
3086,938	0	-1,338
3088,983	-0,5	-1,853
3091,083	-1,5	-2,092
3093,135	-3	-2,496
3095,193	-5	-2,888
3097,257	-8,5	-3,224
3099,309	-9	-3,499
3101,361	-9	-3,498
3103,412	-9	-3,488
3105,477	-8,5	-3,461
3107,528	-5,5	-3,297
3109,58	-3,5	-2,832
3111,644	-2,5	-2,419
3113,696	-1	-1,876
3115,748	-0,5	-1,45
3117,812	0	-1,026
3119,864	2	-0,576
3121,909	4,5	-0,03
3123,967	4,5	-0,001
3126,019	4,5	-0,006
3128,071	4	-0,028
3130,135	3	-0,1
3132,205	1,5	-0,28
3134,251	1	-0,761
3136,309	0,5	-1,173
3138,36	0	-1,689
3140,406	-1,5	-2,14
3142,476	-2,5	-2,428
3144,528	-5	-2,929
3146,574	-9	-3,36
3148,632	-8,5	-3,499
3150,69	-9	-3,498
3152,742	-9	-3,491
3154,83	-8,5	-3,479
3156,881	-7	-3,405
3158,933	-4,5	-3,099
3160,997	-3	-2,648
3163,049	-2	-2,147
3165,101	-1	-1,69
3167,165	-0,5	-1,275
3169,223	0	-0,857
3171,275	3,5	-0,415
3173,333	4	0
3175,378	4	-0,002
3177,43	4	-0,009
3179,482	4	-0,033
3181,528	2,5	-0,128
3183,58	1,5	-0,503
3185,638	0,5	-0,948
3187,696	0	-1,338
3189,754	-0,5	-1,734
3191,811	-1,5	-2,177
3193,863	-4	-2,69
3195,915	-7	-3,068
3197,967	-8,5	-3,433
3200,031	-8,5	-3,499
3202,077	-8,5	-3,496
3204,129	-8,5	-3,478
3206,181	-7	-3,418
3208,232	-5	-3,143
3210,284	-3	-2,665
3212,342	-1,5	-2,221
3214,412	-1	-1,826
3216,464	-0,5	-1,384
3218,528	0	-1,033
3220,454	4	0