File: Cycling_tests/_20perc/_4gap/entrada/_5.txt
Time (s)	Load (N)	Displacement (mm)
0	1	-0,029
2,237	-4	-0,973
4,678	-16,5	-2,604
7,066	-28,5	-3,442
9,394	-29,5	-3,497
11,77	-28,5	-3,17
14,086	-18	-2,312
16,534	-4,5	-0,778
18,995	3	-0,015
21,448	2	-0,411
23,865	-8	-1,757
26,199	-17	-2,8
28,647	-27,5	-3,489
30,939	-27,5	-3,499
33,273	-24	-2,919
35,562	-15,5	-2,12
37,886	-5,5	-1,088
40,209	0,5	-0,238
42,614	3,5	-0,004
87,918	-10	-2,199
90,234	-18,5	-3,178
92,568	-25	-3,487
94,926	-25	-3,5
97,248	-18	-2,606
99,723	-3	-0,999
101,976	-1	-0,674
104,261	1,5	-0,185
106,528	3,5	-0,027
108,826	4	-0,002
111,04	3,5	0
113,764	-16	-2,909
116,099	-24	-3,473
118,36	-24,5	-3,496
120,604	-24,5	-3,5
122,926	-18,5	-2,71
125,326	-5	-1,354
127,773	3,5	-0,047
130,074	4	-0,002
132,639	-5	-1,411
135,153	-19	-3,275
137,463	-24	-3,486
140,061	-17,5	-2,64
142,317	-10,5	-2,021
144,464	-10,5	-1,989
147,219	4	-0,004
149,492	4	-0,015
151,838	-3,5	-1,206
153,992	-4,5	-1,369
156,146	-4,5	-1,458
158,468	-10	-2,339
160,688	-14	-2,801
162,853	-15	-3,014
165,007	-17	-3,13
167,185	-20	-3,364
169,393	-22	-3,436
171,65	-23,5	-3,486
173,803	-24	-3,49
176,071	-24	-3,498
178,26	-24	-3,499
180,402	-23,5	-3,499
182,574	-23,5	-3,452
184,77	-23,5	-3,115
186,947	-21	-2,96
189,156	-20	-2,734
191,358	-14	-2,4
193,512	-14	-2,321
195,695	-10,5	-2,028
197,982	-4	-1,296
200,19	-1,5	-0,84
202,404	1	-0,319
204,575	1,5	-0,228
206,771	3	-0,094
208,895	2,5	-0,153
211,067	3	-0,103
213,244	3,5	-0,044
215,328	3	-0,117
217,966	0	-0,745
220,078	1	-0,603
222,184	2,5	-0,506
224,404	0	-0,877
226,546	-2,5	-1,03
228,742	-3,5	-1,275
231,028	-7,5	-2,104
233,229	-10	-2,454
235,441	-14	-2,838
237,633	-17	-3,161
239,823	-20	-3,39
242,079	-21,5	-3,478
244,251	-22,5	-3,487
246,399	-22,5	-3,488
248,576	-22,5	-3,494
250,742	-22,5	-3,497
252,86	-22,5	-3,496
255,044	-23	-3,498
257,306	-22,5	-3,296
259,479	-22,5	-3,114
261,644	-19	-2,878
263,906	-10	-2,153
266,054	-9	-2,02
268,237	-6,5	-1,71
270,379	-6	-1,644
272,516	-6	-1,698
274,615	-7	-1,767
276,709	-7,5	-1,861
278,809	-9	-2,015
280,933	-9	-2,033
283,069	-8	-1,922
285,198	-8	-1,875
287,262	-12	-2,165
289,854	3	-0,085
331,198	-13	-2,917
333,364	-16	-3,173
335,466	-14,5	-3,014
337,581	-13	-2,933
339,687	-12,5	-2,81
341,775	-10	-2,562
343,857	-8	-2,297
345,915	-5,5	-1,955
348,015	-5	-1,796
350,127	-4,5	-1,663
352,298	-5	-1,817
354,386	-4	-1,544
356,42	-2,5	-1,13
358,442	1,5	-0,59
360,566	1,5	-0,642
362,696	1,5	-0,664
364,802	2	-0,57
366,854	4	-0,187
368,942	4	-0,004
371,053	4,5	0
373,081	4,5	-0,002
375,187	4,5	-0,004
377,312	4,5	-0,004
379,376	4,5	-0,012
381,469	4	-0,028
383,575	4	-0,055
385,645	2,5	-0,162
387,721	1,5	-0,331
389,868	2	-0,2
392,01	2	-0,192
394,14	2	-0,211
396,21	1	-0,338
398,331	1	-0,398
400,416	0	-0,562
402,528	0	-0,656
404,633	-1	-0,878
406,685	-3	-1,284
408,737	-6	-1,656
410,807	-8	-1,91
412,847	-13	-2,434
414,899	-18	-2,91
416,993	-21	-3,094
419,075	-21,5	-3,323
421,139	-21,5	-3,499
423,184	-21,5	-3,498
425,194	-21	-3,488
427,246	-21	-3,468
429,388	-21	-3,478
431,5	-21	-3,478
433,606	-21	-3,473
435,658	-20	-3,428
437,729	-16,5	-3,287
439,786	-13	-2,955
441,789	-7,5	-2,289
443,823	-4,5	-1,777
483,487	0,5	-0,521
485,527	-0,5	-0,88
487,531	-4	-1,477
489,565	-7,5	-1,908
491,599	-12	-2,424
493,639	-17	-2,868
495,636	-21	-3,5
497,724	-21	-3,499
499,758	-21	-3,497
501,762	-20,5	-3,485
503,784	-19	-3,423
505,806	-13,5	-3,061
507,834	-10	-2,59
509,891	-8	-2,295
511,944	-5,5	-2,039
513,995	-4,5	-1,644
516,035	-2,5	-1,18
518,039	2	-0,556
520,067	4,5	-0,053
522,095	4,5	-0,002
524,159	4,5	-0,005
526,205	4,5	-0,02
528,244	3,5	-0,095
530,248	0	-0,583
532,27	-1	-1,122
534,274	-5	-1,708
536,296	-10	-2,258
538,348	-14,5	-2,635
540,394	-18	-2,986
542,44	-21	-3,349
544,449	-20,5	-3,499
546,46	-21	-3,494
548,487	-20	-3,478
550,509	-19	-3,411
552,507	-13	-3,019
554,523	-8	-2,429
556,527	-4,5	-1,806
595,783	-11	-2,349
597,786	-16,5	-2,903
599,796	-20,5	-3,5
601,794	-20,5	-3,496
603,84	-20	-3,486
605,844	-17,5	-3,391
607,872	-13	-2,956
609,918	-9	-2,553
611,928	-5	-1,949
613,968	-3,5	-1,521
615,995	-1,5	-1,04
618,029	1,5	-0,561
620,051	4,5	-0,13
622,079	4,5	-0,002
624,131	4,5	-0,007
626,171	4,5	-0,023
628,199	3	-0,12
630,215	0,5	-0,587
632,212	-2	-1,256
634,258	-5	-1,729
636,274	-9,5	-2,27
638,29	-15	-2,818
640,324	-20	-3,304
642,364	-20	-3,499
644,362	-20	-3,494
646,402	-20	-3,479
648,411	-17	-3,365
650,427	-11,5	-2,843
652,455	-6,5	-2,281
654,477	-4	-1,737
656,505	-2,5	-1,271
658,521	1	-0,734
660,525	4,5	-0,094
662,553	4,5	-0,001
664,557	4,5	-0,013
666,561	3,5	-0,094
668,57	1	-0,493
670,598	-0,5	-0,938
672,614	-3,5	-1,516
674,624	-8	-2,142
676,67	-12	-2,54
678,698	-19	-3,092
680,726	-20	-3,5
682,76	-20	-3,498
684,782	-19,5	-3,49
686,875	-19,5	-3,484
688,891	-18	-3,397
690,925	-13	-2,994
692,947	-8	-2,455
694,957	-4,5	-1,903
696,967	-2,5	-1,3
698,989	0	-0,826
701,005	4,5	-0,248
703,02	4,5	-0,001
705,036	4,5	-0,005
744,131	-8	-2,498
746,17	-5	-1,959
748,186	-3	-1,416
750,214	-0,5	-0,907
752,242	4	-0,329
754,239	4,5	-0,001
756,237	4,5	-0,013
758,265	4	-0,066
760,329	2	-0,186
762,321	0	-0,906
764,331	-4	-1,595
766,431	-6	-1,876
768,459	-10	-2,344
770,463	-17,5	-2,962
772,478	-19,5	-3,5
774,494	-19,5	-3,498
776,51	-19,5	-3,488
778,532	-16,5	-3,405
780,554	-12	-3,056
782,582	-7,5	-2,487
784,652	-5,5	-2,2
786,65	-2,5	-1,52
788,66	0	-0,878
790,663	4,5	-0,191
792,661	4,5	-0,002
794,683	4,5	-0,014
796,681	3	-0,138
798,691	0	-0,709
800,725	-1,5	-1,279
802,747	-5,5	-1,844
804,745	-13	-2,566
806,748	-19,5	-3,274
808,801	-19,5	-3,499
810,84	-19,5	-3,497
812,863	-19,5	-3,488
814,89	-16,5	-3,41
816,894	-11,5	-2,91
818,91	-6	-2,287
820,914	-3	-1,602
822,96	-1,5	-1,113
824,976	2,5	-0,556
826,979	4,5	0
829,031	4,5	-0,002
831,059	4,5	-0,014
833,075	3,5	-0,083
835,085	1	-0,526
837,095	-1	-1,194
839,141	-4	-1,623
841,163	-8,5	-2,183
843,178	-15	-2,758
845,176	-19,5	-3,5
847,192	-19,5	-3,498
849,244	-19,5	-3,491
851,248	-17,5	-3,438
853,27	-14	-3,18
855,274	-8	-2,531
857,308	-4,5	-2,002
859,33	-2,5	-1,448
861,352	-1,5	-1,119
863,379	1,5	-0,698
865,389	4,5	-0,149
867,429	4,5	-0,001
869,481	4,5	-0,005
871,497	4,5	-0,03
873,507	2	-0,202
875,517	0	-0,908
877,544	-2,5	-1,432
879,549	-6,5	-2,092
881,564	-13,5	-2,656
883,592	-19	-3,183
885,596	-19	-3,499
887,654	-19,5	-3,497
889,658	-19	-3,47
891,662	-13,5	-3,209
893,666	-7,5	-2,532
895,663	-3,5	-1,783
897,679	-1,5	-1,204
899,695	2	-0,597
901,711	4,5	0
903,733	4,5	-0,004
905,797	4,5	-0,011
907,801	3,5	-0,098
909,805	0	-0,669
911,826	-1,5	-1,271
913,83	-6,5	-2,033
915,84	-14	-2,717
917,85	-19	-3,426
919,854	-19	-3,498
921,864	-19	-3,491
923,868	-17	-3,389
925,914	-12,5	-3,12
927,96	-7,5	-2,652
929,982	-5	-2,206
932,027	-3	-1,59
934,049	-0,5	-0,945
936,047	4,5	-0,25
938,045	4,5	-0,002
940,049	4,5	-0,018
942,089	3	-0,116
944,111	0,5	-0,569
946,145	-1	-1,158
948,166	-4,5	-1,745
950,188	-9	-2,3
952,223	-14,5	-2,834
954,232	-19	-3,491
956,266	-19	-3,498
958,294	-19,5	-3,492
960,316	-18	-3,452
962,32	-12,5	-3,123
964,342	-7,5	-2,547
966,399	-5,5	-2,173
968,421	-3	-1,612
970,431	-1	-0,987
972,441	4	-0,378
974,463	4,5	0
976,491	4,5	-0,003
978,501	4,5	-0,024
980,565	4	-0,074
982,574	1	-0,514
984,578	-1	-1,148
986,588	-4,5	-1,799
988,592	-11	-2,503
990,614	-17	-2,989
992,624	-19	-3,499
994,658	-19	-3,498
996,686	-19	-3,488
998,683	-16	-3,376
1000,717	-11	-3,003
1002,733	-6,5	-2,419
1004,741	-4	-1,814
1006,777	-1,5	-1,255
1008,787	2	-0,582
1010,809	4,5	-0,004
1012,825	4,5	-0,003
1014,865	4,5	-0,016
1016,886	3,5	-0,078
1018,902	1,5	-0,468
1020,93	-0,5	-1,047
1022,928	-4	-1,743
1024,932	-9,5	-2,393
1026,961	-14,5	-2,885
1029,012	-18,5	-3,438
1031,04	-19	-3,498
1033,056	-18,5	-3,491
1035,114	-18	-3,471
1037,153	-13,5	-3,286
1039,157	-7,5	-2,524
1041,167	-3,5	-1,781
1043,177	-1	-1,097
1045,181	2,5	-0,536
1047,191	4,5	-0,001
1049,189	4,5	-0,013
1051,174	3	-0,128
1053,172	0	-0,755
1055,176	-3	-1,54
1057,18	-10	-2,37
1059,184	-18	-3,127
1061,2	-19	-3,499
1063,192	-19	-3,489
1065,196	-16	-3,398
1067,176	-9	-2,763
1069,162	-4,5	-1,986
1071,172	-2	-1,297
1073,176	1,5	-0,583
1075,173	4,5	-0,001
1077,219	4,5	-0,006
1079,223	3,5	-0,08
1081,203	0	-0,704
1083,237	-1,5	-1,329
1085,247	-6	-2,029
1087,262	-13,5	-2,767
1089,284	-19	-3,45
1091,3	-19	-3,498
1093,31	-19	-3,49
1095,338	-17,5	-3,435
1097,33	-10	-2,871
1099,352	-5,5	-2,283
1101,344	-3	-1,568
1103,378	-1	-1,041
1105,375	4	-0,306
1107,373	4,5	-0,001
1109,377	4,5	-0,015
1111,381	3,5	-0,08
1113,379	1,5	-0,474
1115,371	-0,5	-1,093
1117,399	-3	-1,64
1119,415	-8	-2,314
1121,395	-17	-3,112
1123,405	-18,5	-3,499
1125,408	-19	-3,495
1127,406	-18	-3,463
1129,398	-12,5	-3,126
1131,42	-8	-2,607
1133,442	-4,5	-2,069
1135,482	-3	-1,605
1137,498	-1	-1,031
1139,495	4,5	-0,305
1141,469	4,5	-0,002
1143,461	4,5	-0,018
1145,477	3,5	-0,138
1147,481	1	-0,611
1149,485	-1,5	-1,273
1151,489	-4,5	-1,843
1153,589	-6	-2,019
1155,593	-12,5	-2,737
1157,596	-18,5	-3,419
1160,074	-3	-1,678
1162,09	-7,5	-2,248
1164,124	-13,5	-2,753
1166,122	-18,5	-3,472
1168,144	-18,5	-3,498
1170,148	-18	-3,482
1172,17	-16	-3,384
1174,161	-9,5	-2,813
1176,16	-5,5	-2,197
1178,193	-3	-1,554
1180,185	0	-0,811
1182,189	4,5	-0,187
1184,229	4,5	-0,001
1186,239	4,5	-0,012
1188,243	3,5	-0,095
1190,247	0,5	-0,584
1192,25	-1	-1,234
1194,248	-4,5	-1,898
1196,24	-10,5	-2,54
1198,256	-18,5	-3,222
1200,248	-18,5	-3,499
1202,252	-18,5	-3,491
1204,268	-14,5	-3,417
1206,296	-11	-2,936
1208,288	-5,5	-2,152
1210,327	-3,5	-1,698
1212,367	-1,5	-1,158
1214,377	2	-0,571
1216,405	4,5	0
1218,397	4,5	-0,006
1220,395	4	-0,054
1222,387	1,5	-0,457
1224,397	-0,5	-1,093
1226,395	-4,5	-1,774
1228,398	-10	-2,418
1230,408	-17,5	-3,12
1232,406	-18,5	-3,499
1234,422	-18,5	-3,496
1236,439	-18	-3,475
1238,442	-13,5	-3,309
1240,464	-8	-2,708
1242,456	-4	-1,998
1244,459	-1,5	-1,337
1246,451	1,5	-0,653
1248,461	4,5	-0,072
1250,459	4,5	-0,003
1252,445	4,5	-0,027
1254,449	2	-0,254
1256,453	-0,5	-0,984
1258,469	-3	-1,621
1260,449	-9,5	-2,412
1262,452	-17,5	-3,115
1264,45	-18	-3,499
1266,442	-18	-3,492
1268,458	-16,5	-3,446
1270,462	-11	-3,103
1272,466	-6,5	-2,458
1274,482	-3	-1,82
1276,498	-1	-1,193
1278,567	0	-0,895
1280,566	4,5	-0,264
1282,606	4,5	-0,001
1284,615	4,5	-0,008
1286,619	3,5	-0,066
1288,629	1	-0,458
1290,645	-0,5	-1,097
1292,637	-5	-1,774
1294,629	-10,5	-2,534
1296,633	-18	-3,191
1298,612	-18,5	-3,498
1300,616	-18	-3,49
1302,614	-16	-3,416
1304,624	-10,5	-2,998
1306,658	-6	-2,419
1308,65	-3	-1,805
1310,66	-1	-1,169
1312,64	4,5	-0,408
1314,643	4,5	-0,001
1316,647	4,5	-0,005
1318,651	4	-0,033
1320,643	1,5	-0,346
1322,629	-1	-1,123
1324,633	-4,5	-1,746
1326,637	-10	-2,418
1328,635	-18,5	-3,175
1330,639	-18,5	-3,499
1332,618	-18	-3,489
1334,623	-17	-3,435
1336,626	-11,5	-3,079
1338,637	-6	-2,427
1340,64	-3	-1,718
1342,65	-1	-1,126
1344,672	2	-0,639
1346,676	4,5	-0,005
1348,673	4,5	-0,003
1350,654	4	-0,044
1352,663	1,5	-0,339
1354,661	0	-0,903
1356,665	-3	-1,619
1358,645	-8,5	-2,383
1360,655	-16,5	-3,003
1362,659	-18	-3,499
1364,663	-18	-3,495
1366,661	-17	-3,44
1368,64	-9,5	-2,878
1370,644	-5	-2,244
1372,642	-2,5	-1,569
1374,646	0	-0,802
1376,644	4,5	-0,108
1378,648	4,5	-0,003
1380,634	4	-0,047
1382,638	1,5	-0,496
1384,63	-0,5	-1,137
1386,639	-4,5	-1,927
1388,619	-12	-2,704
1390,635	-18	-3,243
1392,609	-18	-3,497
1394,607	-17,5	-3,471
1396,611	-11,5	-3,257
1398,627	-7	-2,622
1400,643	-3,5	-1,916
1402,64	-1,5	-1,177
1404,644	3,5	-0,49
1406,654	4,5	-0,001
1408,658	4,5	-0,007
1410,638	3,5	-0,079
1412,642	1	-0,529
1414,634	-1	-1,313
1416,626	-5,5	-1,978
1418,612	-13,5	-2,778
1420,633	-18	-3,315
1422,625	-18	-3,498
1424,617	-18	-3,482
1426,621	-13,5	-3,364
1428,613	-8,5	-2,728
1430,605	-4	-2,008
1432,597	-1,5	-1,293
1434,607	2	-0,62
1436,61	4,5	0
1438,591	4,5	-0,008
1440,582	4	-0,067
1442,622	1,5	-0,351
1444,608	-0,5	-1,134
1446,618	-4	-1,791
1448,646	-9	-2,423
1450,65	-17	-3,079
1452,648	-18	-3,499
1454,64	-18	-3,491
1456,637	-15,5	-3,402
1458,617	-8,5	-2,788
1460,615	-4,5	-2,085
1462,619	-1,5	-1,335
1464,629	1,5	-0,687
1466,609	4,5	-0,001
1468,613	4,5	-0,008
1470,658	4,5	-0,036
1472,656	1,5	-0,452
1474,648	-1,5	-1,269
1476,67	-3,5	-1,813
1478,668	-10	-2,487
1480,672	-17,5	-3,268
1482,658	-18	-3,498
1484,662	-18	-3,485
1486,648	-13,5	-3,311
1488,645	-7	-2,593
1490,637	-3	-1,808
1492,683	-1	-1,315
1494,693	1,5	-0,62
1496,697	4,5	-0,001
1498,695	4,5	-0,004
1500,711	4,5	-0,038
1502,727	2,5	-0,183
1504,731	0	-0,82
1506,71	-2,5	-1,606
1508,697	-8	-2,363
1510,712	-16,5	-3,134
1512,71	-17,5	-3,499
1514,708	-18	-3,493
1516,7	-16	-3,436
1518,68	-9,5	-2,929
1520,69	-4,5	-2,149
1522,694	-2	-1,5
1524,716	0	-0,853
1526,69	4,5	-0,037
1528,693	4,5	-0,004
1530,679	4,5	-0,04
1532,671	2	-0,338
1534,663	-0,5	-1,096
1536,667	-3	-1,73
1538,659	-10	-2,54
1540,651	-17,5	-3,249
1542,643	-18	-3,498
1544,628	-17,5	-3,484
1546,626	-15	-3,347
1548,618	-8	-2,683
1551,024	-17	-3,472
1553,004	-11,5	-3,182
1555,002	-6,5	-2,529
1556,982	-2,5	-1,627
1558,973	0	-0,836
1560,953	4,5	-0,087
1562,933	4,5	-0,004
1564,931	4,5	-0,039
1566,959	2	-0,187
1568,975	0,5	-0,748
1570,949	-2	-1,558
1572,947	-6	-2,217
1574,939	-13,5	-2,864
1576,93	-17,5	-3,499
1578,952	-18	-3,497
1580,95	-17,5	-3,474
1582,948	-13	-3,256
1584,94	-6	-2,502
1586,932	-3	-1,834
1588,924	-1	-1,081
1590,922	4	-0,347
1592,902	4,5	-0,002
1594,905	4,5	-0,017
1596,915	3	-0,145
1598,889	0	-1,023
1600,887	-3,5	-1,83
1602,861	-13,5	-2,827
1604,853	-17,5	-3,5
1606,833	-17,5	-3,494
1608,837	-15	-3,437
1610,835	-10	-2,972
1612,814	-4	-2,143
1614,806	-2	-1,455
1616,804	0	-0,753
1618,79	4,5	-0,001
1620,806	4,5	-0,007
1622,804	4	-0,095
1624,796	0	-0,763
1626,776	-3	-1,65
1628,798	-7,5	-2,274
1630,789	-15,5	-3,07
1632,769	-17,5	-3,499
1634,773	-17,5	-3,491
1636,765	-15,5	-3,421
1638,757	-7	-2,658
1640,749	-4	-2,082
1642,753	-1,5	-1,335
1644,745	1,5	-0,588
1646,73	4,5	-0,001
1648,722	4,5	-0,015
1650,702	2	-0,304
1652,7	0	-1,125
1654,686	-5	-2,056
1656,678	-14,5	-2,92
1658,694	-17,5	-3,499
1660,674	-17,5	-3,494
1662,672	-15,5	-3,421
1664,651	-7	-2,612
1666,637	-3	-1,788
1668,641	-1	-1,086
1670,615	4,5	-0,111
1672,625	4,5	-0,002
1674,629	4,5	-0,03
1676,603	1,5	-0,454
1678,607	0	-1,125
1680,617	-3,5	-1,835
1682,59	-11	-2,694
1684,582	-17,5	-3,483
1686,562	-17,5	-3,497
1688,554	-15,5	-3,464
1690,528	-10,5	-3,079
1692,52	-6	-2,385
1694,506	-2,5	-1,64
1696,498	0	-0,85
1698,484	4,5	-0,007
1700,475	4,5	-0,005
1702,455	4	-0,057
1704,459	2	-0,301
1706,439	0	-1,093
1708,419	-4,5	-1,948
1710,399	-12	-2,739
1712,391	-17,5	-3,5
1714,377	-17,5	-3,497
1716,363	-16,5	-3,465
1718,337	-10	-3,029
1720,328	-4	-2,133
1722,308	-1	-1,272
1724,294	3	-0,512
1726,292	4,5	-0,001
1728,272	4,5	-0,019
1730,252	1,5	-0,294
1732,238	0	-1,134
1734,211	-6	-2,088
1736,197	-14,5	-2,946
1738,177	-17,5	-3,499
1740,169	-17,5	-3,492
1742,161	-15	-3,419
1744,147	-7	-2,697
1746,127	-3	-1,869
1748,119	-1	-1,084
1750,099	4,5	-0,248
1752,09	4,5	-0,002
1754,064	4,5	-0,023
1756,075	2,5	-0,221
1758,048	0	-1,056
1760,058	-2,5	-1,586
1762,038	-9	-2,456
1764,024	-17,5	-3,419
1766,016	-17,5	-3,497
1768,002	-16,5	-3,47
1769,975	-11	-3,167
1771,961	-5	-2,385
1773,941	-2,5	-1,662
1775,921	0,5	-0,813
1777,901	4,5	-0,027
1779,875	4,5	-0,005
1781,879	4	-0,073
1783,859	0	-0,788
1785,839	-3	-1,664
1787,813	-9,5	-2,534
1789,792	-17,5	-3,366
1791,772	-17,5	-3,498
1793,788	-17	-3,485
1795,768	-12	-3,277
1797,754	-5,5	-2,442
1799,752	-2	-1,618
1801,768	0	-0,862
1803,748	4,5	-0,089
1805,787	5	-0,002
1807,761	4,5	-0,036
1809,765	1	-0,47
1811,751	-1	-1,348
1813,731	-6,5	-2,271
1815,711	-16,5	-3,193
1817,697	-17,5	-3,499
1819,677	-17	-3,482
1821,663	-11,5	-3,229
1823,642	-5	-2,394
1825,622	-2	-1,522
1827,602	1,5	-0,704
1829,618	4,5	-0,003
1831,598	4,5	-0,005
1833,602	3,5	-0,093
1835,576	0	-0,934
1837,568	-3	-1,777
1839,542	-12	-2,748
1841,516	-17	-3,499
1843,495	-17	-3,49
1845,469	-15	-3,393
1847,461	-6,5	-2,66
1849,459	-3,5	-2,007
1851,451	-0,5	-1,157
1853,431	4,5	-0,312
1855,411	4,5	-0,002
1857,385	4,5	-0,039
1859,376	1	-0,662
1861,35	-2,5	-1,664
1863,33	-10,5	-2,663
1865,322	-17	-3,5
1867,302	-17	-3,496
1869,294	-15	-3,439
1871,268	-8	-2,797
1873,248	-3,5	-2,042
1875,228	-1	-1,211
1877,201	4,5	-0,366
1879,181	4,5	-0,002
1881,161	4,5	-0,026
1883,153	2	-0,303
1885,127	0	-1,113
1887,113	-4	-1,939
1889,093	-12	-2,757
1891,078	-17	-3,5
1893,058	-17	-3,496
1895,038	-15	-3,444
1897,018	-8,5	-2,888
1899,046	-5	-2,278
1901,038	-1,5	-1,457
1903,03	1,5	-0,64
1905,01	4,5	-0,001
1906,984	4,5	-0,014
1908,964	3	-0,167
1910,937	0	-1,045
1912,93	-3	-1,745
1914,903	-10,5	-2,691
1916,913	-17	-3,486
1918,893	-17	-3,496
1920,885	-16	-3,452
1922,865	-9,5	-2,938
1924,869	-4,5	-2,182
1926,848	-1,5	-1,305
1928,834	3,5	-0,475
1930,814	4,5	-0,001
1932,788	4,5	-0,021
1934,768	2,5	-0,199
1936,748	0	-0,84
1938,728	-2,5	-1,627
1940,708	-8	-2,414
1942,682	-16,5	-3,221
1944,716	-17,5	-3,499
1946,695	-17	-3,492
1948,681	-15,5	-3,423
1950,673	-8,5	-2,898
1952,665	-4	-2,062
1954,639	-0,5	-1,14
1956,619	4,5	-0,335
1958,611	4,5	-0,001
1960,621	4,5	-0,01
1962,6	3,5	-0,119
1964,593	1	-0,636
1966,584	-0,5	-1,219
1968,564	-4	-1,936
1970,55	-9	-2,527
1972,56	-14	-2,983
1974,54	-17	-3,499
1976,52	-17	-3,491
1978,506	-14,5	-3,389
1980,485	-7	-2,689
1982,483	-3	-1,934
1984,481	-1	-1,137
1986,473	4	-0,4
1988,453	4,5	-0,001
1990,439	4,5	-0,011
1992,437	3,5	-0,066
1994,447	1	-0,541
1996,427	-1,5	-1,38
1998,413	-5	-2,035
2000,392	-12	-2,785
2002,366	-17	-3,499
2004,358	-17	-3,495
2006,332	-14,5	-3,452
2008,318	-9,5	-2,972
2010,298	-5	-2,323
2012,284	-2	-1,573
2014,263	0,5	-0,771
2016,237	4,5	0
2018,217	4,5	-0,006
2020,191	3,5	-0,094
2022,177	0	-0,79
2024,157	-2	-1,586
2026,131	-8	-2,418
2028,117	-15,5	-3,16
2030,097	-17	-3,499
2032,077	-17	-3,49
2034,056	-15	-3,4
2036,042	-7,5	-2,731
2038,023	-3	-1,891
2040,02	-1	-1,147
2041,994	4	-0,313
2043,974	4,5	-0,002
2045,96	4,5	-0,019
2047,94	2,5	-0,24
2049,931	0	-0,998
2051,905	-3,5	-1,92
2053,879	-10	-2,662
2055,865	-17	-3,497
2057,839	-17	-3,496
2059,819	-16	-3,453
2061,805	-9,5	-3,025
2063,785	-4,5	-2,238
2065,765	-1,5	-1,422
2067,745	2	-0,618
2069,736	4,5	0
2071,716	4,5	-0,007
2073,69	3,5	-0,094
2075,676	1	-0,676
2077,656	-2	-1,543
2079,636	-7,5	-2,408
2081,616	-16,5	-3,17
2083,608	-17	-3,499
2085,642	-17	-3,495
2087,615	-15	-3,433
2089,601	-9	-2,973
2091,575	-4,5	-2,205
2093,549	-1	-1,292
2095,541	3	-0,481
2097,521	4,5	-0,002
2099,507	4,5	-0,018
2101,486	2,5	-0,171
2103,472	0,5	-0,819
2105,446	-3	-1,741
2107,426	-9	-2,526
2109,412	-16,5	-3,334
2111,386	-17	-3,498
2113,372	-16,5	-3,476
2115,352	-11,5	-3,166
2117,326	-4,5	-2,242
2119,317	-1,5	-1,384
2121,297	1,5	-0,597
2123,277	4,5	-0,001
2125,269	4,5	-0,011
2127,249	3,5	-0,124
2129,241	0	-0,808
2131,221	-2,5	-1,684
2133,195	-8,5	-2,548
2135,181	-16,5	-3,346
2137,16	-16,5	-3,497
2139,146	-15	-3,466
2141,126	-10,5	-3,175
2143,1	-4,5	-2,252
2145,092	-1,5	-1,357
2147,072	3	-0,446
2149,052	4,5	-0,001
2151,038	4,5	-0,021
2153,018	2	-0,368
2155,004	-0,5	-1,14
2156,977	-4	-2,02
2158,951	-11,5	-2,853
2160,931	-16,5	-3,499
2162,911	-16,5	-3,492
2164,891	-14,5	-3,384
2166,877	-7	-2,718
2168,857	-3	-1,852
2170,849	-0,5	-1,174
2172,829	4,5	-0,317
2174,808	4,5	-0,002
2176,794	4,5	-0,019
2178,774	2	-0,204
2180,754	0	-0,959
2182,746	-2,5	-1,754
2184,726	-9	-2,599
2186,718	-16,5	-3,242
2188,698	-16,5	-3,498
2190,696	-16	-3,479
2192,681	-10,5	-3,243
2194,661	-4,5	-2,4
2196,641	-1,5	-1,586
2198,615	1,5	-0,744
2200,589	4,5	-0,001
2202,575	5	-0,006
2204,555	3,5	-0,093
2206,529	0,5	-0,759
2208,515	-2,5	-1,61
2210,488	-9,5	-2,506
2212,462	-16,5	-3,338
2214,448	-16,5	-3,497
2216,422	-15	-3,455
2218,408	-9	-2,95
2220,406	-4,5	-2,222
2222,398	-1,5	-1,394
2224,377	3,5	-0,523
2226,375	4,5	-0,001
2228,355	4,5	-0,014
2230,371	3	-0,113
2232,357	0	-0,793
2234,337	-3	-1,684
2236,311	-9,5	-2,554
2238,297	-16,5	-3,438
2240,271	-16,5	-3,496
2242,245	-15	-3,453
2244,237	-8,5	-2,989
2246,21	-4	-2,195
2248,208	-1,5	-1,442
2250,206	1,5	-0,686
2252,186	4,5	-0,001
2254,196	4,5	-0,007
2256,182	3,5	-0,088
2258,168	0,5	-0,737
2260,148	-2,5	-1,614
2262,128	-9	-2,505
2264,113	-16,5	-3,3
2266,105	-16,5	-3,498
2268,103	-16	-3,477
2270,089	-10,5	-3,216
2272,073	-5,5	-2,552
2274,049	-2	-1,603
2276,022	1	-0,745
2278,008	4,5	0
2279,988	4,5	-0,008
2281,968	3,5	-0,101
2283,972	0,5	-0,705
2285,946	-2	-1,548
2287,926	-8	-2,465
2289,906	-15,5	-3,11
2291,898	-16,5	-3,499
2293,895	-16	-3,489
2295,876	-13	-3,387
2297,885	-7,5	-2,806
2299,865	-3,5	-2,083
2301,851	-1	-1,215
2303,843	4	-0,387
2305,823	4,5	-0,002
2307,815	4,5	-0,023
2309,801	2	-0,247
2311,781	0	-0,85
2313,773	-2	-1,539
2315,764	-6	-2,314
2317,738	-15	-3,115
2319,724	-16,5	-3,499
2321,722	-16,5	-3,489
2323,702	-12	-3,299
2325,676	-5	-2,345
2327,662	-1,5	-1,436
2329,647	0,5	-0,776
2331,621	4,5	-0,001
2333,607	4,5	-0,01
2335,593	3	-0,127
2337,573	0	-0,97
2339,553	-4	-1,804
2341,545	-9,5	-2,624
2343,525	-16,5	-3,5
2345,505	-16,5	-3,495
2347,49	-15	-3,459
2349,47	-9	-3,045
2351,45	-3,5	-2,291
2353,436	-2	-1,582
2355,41	1	-0,756
2357,384	4,5	0
2359,364	4,5	-0,007
2361,344	3	-0,135
2363,324	0	-0,894
2365,303	-2,5	-1,691
2367,278	-8,5	-2,539
2369,257	-16	-3,355
2371,237	-16,5	-3,497
2373,217	-15,5	-3,466
2375,221	-10,5	-3,163
2377,237	-5	-2,451
2379,217	-2	-1,596
2381,203	1	-0,818
2383,182	4,5	0
2385,162	4,5	-0,005
2387,148	4	-0,05
2389,122	1	-0,536
2391,138	-0,5	-1,269
2393,124	-5	-2,118
2395,104	-14,5	-2,994
2397,096	-16,5	-3,499
2399,075	-16,5	-3,49
2401,049	-13	-3,379
2403,029	-5,5	-2,608
2405,015	-2,5	-1,715
2406,995	0	-0,853
2408,987	4,5	-0,026
2410,961	4,5	-0,003
2412,947	4	-0,043
2414,933	1,5	-0,417
2416,907	-0,5	-1,196
2418,88	-5	-2,018
2420,86	-11,5	-2,776
2422,84	-16,5	-3,497
2424,82	-16	-3,496
2426,806	-15	-3,454
2428,786	-9	-3,043
2430,778	-4,5	-2,338
2432,782	-1,5	-1,53
2434,761	1	-0,727
2436,736	4,5	0
2438,727	4,5	-0,007
2440,707	3	-0,104
2442,681	0	-0,869
2444,667	-2,5	-1,687
2446,647	-8	-2,436
2448,627	-16	-3,23
2450,613	-16	-3,498
2452,593	-16	-3,481
2454,566	-9,5	-3,126
2456,546	-4	-2,258
2458,52	-1,5	-1,443
2460,494	2	-0,563
2462,474	4,5	-0,001
2464,46	4,5	-0,009
2466,434	3	-0,138
2468,414	0	-0,877
2470,393	-2,5	-1,791
2472,379	-8	-2,499
2474,371	-14,5	-3,093
2476,351	-16	-3,499
2478,331	-16	-3,486
2480,311	-12,5	-3,324
2482,291	-6,5	-2,671
2484,271	-2,5	-1,832
2486,263	-0,5	-1,037
2488,243	4	-0,318
2490,222	4,5	-0,002
2492,208	4,5	-0,026
2494,188	1,5	-0,465
2496,168	-0,5	-1,283
2498,148	-3	-1,95
2500,128	-10	-2,737
2502,108	-15,5	-3,5
2504,099	-15,5	-3,496
2506,079	-15	-3,463
2508,059	-9	-3,129
2510,045	-4,5	-2,325
2512,025	-1,5	-1,522
2514,041	0	-0,948
2516,015	4,5	-0,139
2517,995	4,5	-0,003
2519,981	4,5	-0,032
2521,955	2	-0,378
2523,934	0	-1,073
2525,926	-1,5	-1,684
2527,942	-5,5	-2,219
2529,916	-13,5	-2,984
2531,896	-15	-3,499
2533,882	-15	-3,494
2535,862	-13,5	-3,422
2537,854	-8	-2,945
2539,834	-4	-2,233
2541,819	-1	-1,451
2543,805	1,5	-0,646
2545,785	4,5	0
2547,765	4,5	-0,01
2549,739	3,5	-0,134
2551,725	0,5	-0,762
2553,705	-1,5	-1,564
2555,685	-5,5	-2,35
2557,676	-14	-3,034
2559,65	-15	-3,499
2561,63	-15	-3,491
2563,622	-14,5	-3,418
2565,602	-7,5	-2,802
2567,582	-3	-1,973
2569,568	-1	-1,234
2571,56	2	-0,529
2573,564	5	-0,001
2575,543	5	-0,009
2577,523	4	-0,082
2579,503	1	-0,627
2581,495	-0,5	-1,359
2583,475	-4,5	-2,107
2585,449	-11,5	-2,908
2587,561	-13	-3,044
2589,559	-15	-3,499
2591,544	-15	-3,492
2593,519	-13,5	-3,392
2595,552	-8	-3
2597,64	-6,5	-2,786
2599,614	-3	-1,922
2601,594	-0,5	-1,098
2603,586	4	-0,345
2605,566	4,5	-0,002
2607,552	4,5	-0,021
2609,532	3	-0,202
2611,517	0	-1,008
2613,498	-2	-1,736
2615,507	-6	-2,303
2617,487	-14,5	-3,137
2619,461	-15	-3,499
2621,441	-15	-3,49
2623,421	-13	-3,383
2625,395	-6	-2,71
2627,369	-2,5	-1,841
2629,354	-0,5	-1,122
2631,334	4,5	-0,356
2633,314	4,5	-0,002
2635,306	4,5	-0,016
2637,28	3	-0,178
2639,26	0	-0,914
2641,234	-2,5	-1,81
2643,22	-7	-2,55
2645,199	-15	-3,382
2647,203	-15	-3,498
2649,177	-15	-3,478
2651,151	-9	-3,219
2653,125	-4,5	-2,46
2655,105	-1,5	-1,591
2657,079	1	-0,737
2659,053	4,5	-0,001
2661,039	4,5	-0,009
2663,012	3	-0,105
2664,992	0,5	-0,749
2666,984	-1	-1,508
2668,958	-5,5	-2,312
2670,932	-14,5	-3,136
2672,924	-15	-3,499
2674,904	-15	-3,491
2676,878	-13	-3,414
2678,852	-6	-2,805
2680,88	-3,5	-2,232
2682,865	-1	-1,519
2684,839	1,5	-0,713
2686,825	4,5	-0,047
2688,811	4,5	-0,004
2690,785	4	-0,051
2692,789	1,5	-0,338
2694,769	0	-1,124
2696,76	-3	-1,85
2698,741	-8	-2,604
2700,72	-15	-3,316
2702,694	-15	-3,498
2704,674	-14,5	-3,478
2706,654	-9,5	-3,238
2708,64	-4,5	-2,533
2710,644	-2	-1,851
2712,624	0	-1,071
2714,604	4,5	-0,271
2716,583	4,5	-0,002
2718,563	4,5	-0,021
2720,537	2,5	-0,233
2722,523	0,5	-0,805
2724,503	-1	-1,534
2726,477	-4,5	-2,265
2728,451	-13,5	-3,07
2730,443	-14,5	-3,499
2732,428	-14,5	-3,49
2734,426	-12,5	-3,427
2736,418	-6,5	-2,854
2738,392	-3	-2,048
2740,366	-0,5	-1,248
2742,358	2	-0,622
2744,332	4,5	-0,001
2746,306	4,5	-0,01
2748,28	3,5	-0,102
2750,271	0,5	-0,821
2752,264	-1,5	-1,568
2754,255	-5	-2,299
2756,235	-12,5	-3,075
2758,209	-14	-3,499
2760,183	-13,5	-3,489
2762,163	-11	-3,394
2764,143	-5	-2,714
2766,123	-2,5	-2,029
2768,108	-1	-1,198
2770,088	3,5	-0,438
2772,062	4,5	-0,001
2774,042	4,5	-0,018
2776,028	3	-0,164
2778,008	0,5	-0,9
2779,988	-1,5	-1,65
2781,974	-5	-2,384
2783,947	-13	-3,252
2785,933	-13,5	-3,498
2787,919	-13	-3,481
2789,899	-8	-3,217
2791,873	-3,5	-2,422
2793,871	-1,5	-1,658
2795,845	2	-0,698
2797,825	5	-0,001
2799,805	5	-0,009
2801,791	4	-0,09
2803,77	1	-0,792
2805,75	-0,5	-1,604
2807,739	-5	-2,372
2809,716	-13	-3,192
2811,69	-13	-3,498
2813,664	-12,5	-3,478
2815,65	-9	-3,272
2817,636	-4	-2,473
2819,627	-1,5	-1,768
2821,619	0	-0,957
2823,593	4,5	-0,086
2825,573	5	-0,005
2827,565	4,5	-0,045
2829,545	1,5	-0,432
2831,525	0	-1,208
2833,511	-3	-2,044
2835,527	-6,5	-2,609
2837,507	-13	-3,432
2839,48	-13	-3,496
2841,466	-12,5	-3,466
2843,446	-7	-3,061
2845,42	-3	-2,197
2847,406	-1	-1,488
2849,386	1	-0,696
2851,384	4,5	-0,059
2853,394	4,5	-0,003
2855,38	4,5	-0,035
2857,359	2	-0,32
2859,339	0	-1,088
2861,337	-1,5	-1,754
2863,311	-6	-2,57
2865,303	-12,5	-3,311
2867,277	-12,5	-3,498
2869,251	-12	-3,478
2871,225	-8	-3,252
2873,216	-3,5	-2,491
2875,196	-1,5	-1,764
2877,182	-0,5	-1,029
2879,156	4,5	-0,236
2881,136	4,5	-0,002
2883,116	4,5	-0,028
2885,096	2,5	-0,196
2887,082	1	-0,9
2889,061	-0,5	-1,664
2891,042	-3,5	-2,344
2893,015	-11	-3,114
2895,001	-11,5	-3,499
2896,981	-12	-3,493
2898,961	-10	-3,416
2900,947	-5	-2,881
2902,921	-2,5	-2,022
2904,901	-0,5	-1,316
2906,88	3	-0,519
2908,867	4,5	-0,001
2910,84	4,5	-0,011
2912,82	4	-0,097
2914,806	1,5	-0,695
2916,786	0	-1,454
2918,766	-3	-2,229
2920,746	-9	-2,98
2922,744	-11	-3,499
2924,729	-11	-3,495
2926,704	-10	-3,444
2928,677	-5,5	-2,941
2930,663	-2,5	-2,248
2932,643	-0,5	-1,436
2934,617	1,5	-0,657
2936,597	4,5	-0,001
2938,571	4,5	-0,01
2940,551	3,5	-0,098
2942,542	1	-0,738
2944,529	0	-1,505
2946,502	-2,5	-2,3
2948,488	-9	-3,055
2950,468	-10,5	-3,499
2952,442	-10,5	-3,489
2954,422	-8	-3,362
2956,414	-4	-2,674
2958,394	-1,5	-1,866
2960,367	0	-0,966
2962,347	4,5	-0,126
2964,333	4,5	-0,003
2966,313	4	-0,041
2968,287	1,5	-0,47
2970,261	0	-1,254
2972,253	-1,5	-2,028
2974,239	-6	-2,815
2976,212	-10	-3,5
2978,204	-10,5	-3,496
2980,19	-9,5	-3,456
2982,17	-4,5	-2,971
2984,144	-1,5	-2,06
2986,13	-0,5	-1,287
2988,11	4	-0,427
2990,09	4,5	-0,002
2992,088	4,5	-0,017
2994,097	3	-0,147
2996,077	0,5	-0,981
2998,057	-1	-1,847
3000,037	-5,5	-2,734
3002,017	-10,5	-3,5
3003,991	-10,5	-3,495
3005,977	-9,5	-3,446
3007,963	-5	-2,963
3009,943	-2,5	-2,226
3011,935	-1	-1,51
3013,908	1	-0,763
3015,882	4,5	0
3017,856	4,5	-0,005
3019,848	4	-0,059
3021,822	1,5	-0,67
3023,802	0	-1,472
3025,782	-2,5	-2,327
3027,774	-8,5	-3,065
3029,747	-10	-3,499
3031,721	-10	-3,485
3033,701	-8	-3,365
3035,693	-4	-2,684
3037,667	-1	-1,883
3039,647	0	-1,113
3041,639	4	-0,424
3043,619	4,5	-0,001
3045,599	4,5	-0,018
3047,584	3	-0,192
3049,559	1	-0,953
3051,532	0	-1,779
3053,518	-3,5	-2,567
3055,51	-9,5	-3,299
3057,49	-9,5	-3,498
3059,47	-9,5	-3,478
3061,45	-6	-3,223
3063,435	-3	-2,464
3065,422	-1	-1,766
3067,401	0	-0,98
3069,381	4,5	-0,244
3071,367	4,5	-0,002
3073,341	4,5	-0,026
3075,321	2	-0,282
3077,307	0,5	-1,014
3079,281	-0,5	-1,814
3081,267	-4,5	-2,645
3083,253	-9,5	-3,444
3085,238	-9,5	-3,497
3087,224	-9,5	-3,476
3089,216	-6	-3,295
3091,202	-3,5	-2,661
3093,176	-1,5	-1,828
3095,156	0	-1,069
3097,142	4	-0,344
3099,121	4,5	-0,002
3101,107	4,5	-0,019
3103,099	3	-0,167
3105,085	1	-0,88
3107,059	0	-1,654
3109,033	-3	-2,55
3111,013	-9,5	-3,3
3112,993	-9,5	-3,498
3114,973	-9	-3,476
3116,976	-6	-3,297
3118,963	-2,5	-2,53
3120,936	-0,5	-1,73
3122,922	0	-0,995
3124,902	4,5	-0,21
3126,876	5	-0,003
3128,85	4	-0,038
3130,842	2	-0,268
3132,816	0,5	-1,086
3134,795	-0,5	-1,808
3136,781	-4	-2,569
3138,761	-9,5	-3,438
3140,747	-9,5	-3,498
3142,727	-9	-3,474
3144,701	-5	-3,209
3146,687	-2,5	-2,46
3148,697	-1	-1,833
3150,707	0	-1,256
3152,699	3	-0,6
3154,678	5	-0,001
3156,652	4,5	-0,009
3158,638	3	-0,105
3160,612	1	-0,808
3162,592	0	-1,652
3164,572	-3	-2,448
3166,558	-9	-3,191
3168,538	-9	-3,498
3170,517	-9	-3,484
3172,497	-5	-3,283
3174,49	-2,5	-2,581
3176,469	-0,5	-1,716
3178,449	0	-0,951
3180,435	4,5	-0,166
3182,415	5	-0,004
3184,389	4	-0,045
3186,363	1,5	-0,494
3188,433	1	-0,92
3190,406	-0,5	-1,783
3192,38	-4	-2,579
3194,384	-9	-3,242
3196,448	-9	-3,499
3198,428	-9	-3,494
3200,414	-8	-3,441
3202,388	-3,5	-2,928
3204,361	-1,5	-2,102
3206,347	0	-1,343
3208,195	4,5	0