File: Cycling_tests/_20perc/_3gap/entrada/_2.txt
Time (s)	Load (N)	Displacement (mm)
87,032	-27	-3,465
88,856	-12	-2,212
90,464	3,5	-0,002
92,167	-4,5	-0,959
93,733	-28	-3,499
95,311	-12	-2,158
96,883	3,5	-0,004
98,647	-4	-0,867
100,201	-28	-3,499
101,833	-14,5	-2,433
103,399	3,5	-0,002
105,127	-3,5	-0,845
106,734	-27,5	-3,5
108,478	-22	-3,24
110,202	-4	-1,102
111,87	3	-0,027
113,605	-10,5	-1,683
115,375	-27,5	-3,499
117,102	-20	-3,098
119,086	-11	-2,194
120,756	3,5	-0,001
122,412	-3,5	-0,879
123,996	-27,5	-3,499
125,616	-13,5	-2,392
127,241	3,5	-0,001
128,849	-6	-1,251
289,61	-4	-1,333
291,11	1,5	-0,155
292,637	-25	-3,296
294,122	-10,5	-2,325
295,628	4	-0,008
297,182	-13	-2,149
298,693	-22,5	-3,414
300,199	3,5	-0,259
301,742	-3	-1,02
303,289	-25	-3,498
304,801	-6	-1,688
306,343	3,5	-0,029
307,876	-21	-2,796
309,349	-14	-2,747
310,891	4	-0,001
312,421	-7,5	-1,576
313,975	-24,5	-3,491
315,444	0	-0,738
317,004	0	-0,405
318,505	-24,5	-3,499
320,004	-7	-1,879
321,516	3,5	-0,031
323,059	-19	-2,71
324,546	-15	-2,873
326,076	4	-0,001
518,881	4	-0,002
520,351	-12	-2,173
521,797	-16,5	-3,138
523,291	4	-0,001
524,737	-10	-1,989
526,212	-21	-3,396
527,694	4	-0,096
529,176	-6	-1,513
530,652	-22,5	-3,475
532,086	3,5	-0,328
533,571	-3,5	-1,255
535,014	-23	-3,484
536,496	0,5	-0,703
537,972	-1,5	-0,92
539,466	-23,5	-3,497
540,948	-3,5	-1,353
542,418	0,5	-0,338
543,881	-23	-3,499
545,345	-4,5	-1,613
546,773	1,5	-0,243
548,279	-23,5	-3,5
549,767	-7,5	-2,075
551,213	3,5	-0,044
552,695	-23	-3,151
554,171	-9,5	-2,382
555,635	4	-0,013
668,188	4	0
669,628	-7,5	-1,851
671,104	-21	-3,422
672,568	4	-0,21
673,996	-5	-1,601
675,448	-21	-3,457
676,9	3	-0,362
678,34	-4	-1,364
679,81	-22,5	-3,481
681,256	1,5	-0,526
682,702	-2,5	-1,139
684,141	-22,5	-3,487
685,587	0	-0,697
687,045	-1,5	-0,919
688,485	-22,5	-3,494
689,973	-2,5	-1,064
691,443	0	-0,445
692,907	-22,5	-3,499
694,359	-4,5	-1,5
695,793	2	-0,23
697,257	-22,5	-3,499
698,703	-4,5	-1,64
700,148	1,5	-0,169
701,594	-22,5	-3,499
703,028	-4,5	-1,653
704,456	2,5	-0,114
705,908	-22,5	-3,5
707,366	-5,5	-1,871
708,806	3	-0,08
710,27	-22,5	-3,376
711,716	-6,5	-2,058
713,168	4	-0,035
714,632	-22,5	-3,064
716,066	-8	-2,239
717,529	4	-0,018
718,993	-17,5	-2,844
720,439	-10	-2,507
721,891	4	-0,01
723,331	-19,5	-2,834
724,777	-11	-2,575
726,217	4	-0,007
727,681	-13,5	-2,482
729,145	-13,5	-2,99
730,585	4	-0,003
732,025	-13,5	-2,363
733,465	-14	-3,005
734,928	4	-0,002
736,362	-12	-2,221
737,814	-15,5	-3,155
739,26	4	-0,001
740,712	-10,5	-2,183
816,224	-11,5	-2,209
817,676	-16	-3,212
819,116	4	-0,001
820,568	-9	-2,043
822,013	-17,5	-3,311
823,465	4	-0,001
824,911	-7	-1,818
826,375	-19,5	-3,42
827,803	4	-0,012
829,243	-5,5	-1,668
830,689	-20,5	-3,44
832,129	4	-0,142
833,575	-5,5	-1,592
835,015	-20,5	-3,447
836,461	4	-0,292
837,925	-3,5	-1,4
839,376	-21,5	-3,478
840,822	2,5	-0,442
842,268	-3	-1,271
843,714	-22	-3,483
845,184	0	-0,738
846,624	-1,5	-1,018
848,082	-22	-3,494
849,522	-0,5	-0,822
850,966	-1	-0,914
852,408	-22	-3,494
853,872	-1	-0,923
855,3	-1,5	-0,898
856,776	-22	-3,496
858,222	-2	-1,025
859,661	0	-0,72
861,125	-22	-3,497
862,571	-3	-1,308
864,011	0	-0,47
865,451	-22	-3,498
866,909	-3	-1,439
868,337	0,5	-0,355
869,789	-22	-3,499
871,235	-3,5	-1,484
872,711	1,5	-0,161
874,169	-22	-3,499
875,62	-5	-1,792
877,078	3	-0,076
878,542	-22	-3,316
879,982	-6	-2,012
881,434	4	-0,031
882,874	-21,5	-3,166
884,326	-7,5	-2,237
885,76	4	-0,027
887,212	-21	-3,103
962,724	-22	-3,498
964,175	-3,5	-1,438
965,645	2	-0,154
967,085	-21,5	-3,499
968,513	-3,5	-1,581
969,971	2,5	-0,113
971,405	-21,5	-3,499
972,869	-4	-1,782
974,297	3	-0,095
975,737	-21,5	-3,5
977,189	-5	-1,876
978,617	3,5	-0,06
980,044	-21,5	-3,409
981,497	-6	-1,996
982,942	4	-0,037
984,382	-20	-3,013
985,87	-8,5	-2,436
987,304	4	-0,013
988,762	-16,5	-2,793
990,202	-9	-2,473
991,63	4	-0,012
993,088	-16	-2,738
994,516	-9,5	-2,544
995,962	4	-0,007
997,419	-14,5	-2,62
998,847	-9,5	-2,603
1000,3	4	-0,005
1001,739	-13,5	-2,558
1003,203	-12,5	-2,911
1004,631	4,5	-0,003
1006,107	-12	-2,355
1007,547	-12,5	-2,94
1009,005	4	-0,002
1010,457	-11	-2,344
1011,885	-12,5	-2,906
1013,337	4	-0,003
1014,776	-13,5	-2,558
1016,204	-10,5	-2,735
1017,657	4	-0,003
1019,084	-12,5	-2,421
1020,53	-12,5	-2,939
1021,982	4	-0,002
1023,422	-11	-2,311
1024,85	-12,5	-2,933
1026,303	4	-0,002
1027,736	-11,5	-2,39
1029,176	-13,5	-2,957
1030,634	4	-0,002
1032,062	-9,5	-2,174
1033,489	-14,5	-3,123
1034,941	4	-0,001
1036,381	-7,5	-1,909
1037,821	-17,5	-3,351
1039,273	4	0
1040,701	-6	-1,799
1042,141	-18,5	-3,399
1043,606	4	-0,018
1045,057	-4,5	-1,614
1046,509	-20	-3,453
1047,937	4	-0,154
1049,365	-5	-1,633
1050,804	-19,5	-3,426
1052,232	4	-0,083
1053,666	-5	-1,638
1055,544	-20,5	-3,1
1056,996	-7,5	-2,292
1058,424	4	-0,026
1059,858	-21	-3,202
1061,28	-5,5	-2,021
1062,732	4	-0,04
1064,16	-21	-3,372
1065,588	-5	-1,923
1067,027	3,5	-0,055
1068,473	-21,5	-3,467
1069,913	-5	-1,824
1071,347	3	-0,09
1072,799	-21	-3,5
1074,239	-4,5	-1,812
1075,685	3	-0,093
1077,113	-21	-3,499
1078,577	-5	-1,912
1080,029	3,5	-0,068
1081,451	-21	-3,5
1082,891	-4,5	-1,764
1084,355	3,5	-0,08
1085,783	-21	-3,452
1087,246	-5	-1,922
1088,686	3,5	-0,07
1090,114	-21	-3,494
1091,578	-5	-1,938
1093,024	3,5	-0,056
1094,464	-21	-3,366
1095,928	-6	-2,072
1097,368	4	-0,039
1098,82	-20,5	-3,144
1100,254	-7	-2,196
1101,682	4	-0,029
1103,121	-20	-3,074
1104,549	-7	-2,172
1106,001	4	-0,02
1107,441	-21	-2,978
1108,869	-7,5	-2,298
1110,333	4	-0,013
1111,767	-16,5	-2,901
1113,189	-8	-2,377
1114,641	4	-0,013
1116,075	-17,5	-2,914
1117,515	-8	-2,417
1118,961	4	-0,013
1120,394	-16,5	-2,814
1121,846	-10	-2,582
1123,298	4,5	-0,006
1124,732	-14	-2,624
1126,172	-10,5	-2,707
1127,612	4,5	-0,004
1129,058	-13	-2,488
1130,54	-13,5	-3,011
1131,968	4	-0,002
1133,42	-10,5	-2,29
1134,848	-13,5	-2,987
1136,282	4,5	-0,002
1137,733	-10,5	-2,294
1139,173	-13	-3,053
1140,601	4	-0,002
1142,071	-8,5	-2,124
1143,499	-14,5	-3,13
1144,927	4	-0,002
1146,361	-9,5	-2,18
1513,6	-5	-1,938
1515,028	3,5	-0,064
1516,456	-20	-3,5
1517,896	-4	-1,759
1519,324	2,5	-0,128
1520,758	-20	-3,499
1522,192	-3,5	-1,665
1523,619	2,5	-0,19
1525,053	-20	-3,499
1526,481	-3	-1,407
1527,915	1	-0,309
1529,343	-20	-3,498
1530,783	-2	-1,2
1532,211	0	-0,609
1533,651	-20	-3,497
1535,079	-1	-0,92
1536,519	0	-0,739
1537,971	-20	-3,495
1539,399	0	-0,775
1540,839	-0,5	-0,9
1542,266	-20	-3,491
1543,694	1	-0,692
1545,134	-1,5	-1,054
1546,574	-20	-3,488
1548,026	0,5	-0,665
1549,46	-1,5	-1,125
1550,888	-19,5	-3,48
1552,328	3,5	-0,35
1553,792	-2,5	-1,294
1555,22	-19,5	-3,465
1556,66	4	-0,221
1558,099	-3,5	-1,546
1559,539	-19	-3,444
1560,973	4	-0,018
1562,425	-4	-1,618
1563,853	-18	-3,418
1565,281	4	0
1566,703	-7	-2,03
1568,137	-15	-3,206
1569,571	4,5	-0,002
1570,999	-9,5	-2,326
1572,421	-12	-2,909
1573,855	4	-0,003
1575,282	-11	-2,449
1576,717	-11	-2,852
1578,162	4,5	-0,003
1579,59	-12,5	-2,553
1581,018	-10	-2,702
1582,452	4	-0,006
1584,288	0	-0,636
1585,716	-20	-3,496
1587,156	-1,5	-1,042
1588,602	0	-0,604
1590,03	-20	-3,496
1591,47	-1	-0,926
1592,897	0	-0,798
1594,332	-20	-3,495
1595,753	0	-0,852
1597,193	-0,5	-0,84
1598,645	-20	-3,495
1600,085	-1	-0,921
1601,525	-0,5	-0,759
1602,953	-20	-3,494
1604,381	-0,5	-0,832
1605,821	-0,5	-0,859
1607,273	-20	-3,496
1608,713	-0,5	-0,902
1610,134	-0,5	-0,959
1611,574	-20	-3,492
1613,014	0	-0,695
1614,454	-1	-1,055
1615,9	-20	-3,49
1617,328	1,5	-0,611
1618,768	-1,5	-1,124
1620,19	-19,5	-3,482
1621,63	2,5	-0,525
1623,07	-2	-1,193
1624,498	-19,5	-3,477
1625,932	3,5	-0,407
1627,371	-2,5	-1,283
1628,799	-19,5	-3,471
1630,233	3	-0,37
1631,661	-3	-1,429
1633,095	-19,5	-3,469
1634,529	4	-0,157
1635,957	-4	-1,619
1637,379	-18	-3,402
1638,819	4	0
1640,247	-5	-1,796
1641,675	-16,5	-3,341
1643,115	4	-0,001
1644,542	-6,5	-2,007
1645,976	-15	-3,228
1647,398	4	-0,002
1648,832	-8,5	-2,269
1650,26	-12	-2,948
1651,688	4	-0,003
1653,116	-11	-2,493
1654,556	-10,5	-2,77
1655,996	4,5	-0,004
1657,424	-13	-2,607
1658,852	-9	-2,661
1660,298	4,5	-0,006
1661,726	-14,5	-2,75
1663,153	-8,5	-2,537
1664,593	4	-0,01
1666,015	-17	-2,929
1667,443	-6	-2,268
1668,883	4,5	-0,021
1670,347	-17,5	-3,019
1671,793	-7,5	-2,407
1673,221	4	-0,016
1674,649	-18	-3,051
1676,077	-5,5	-2,178
1677,517	4	-0,029
1678,957	-18,5	-3,14
1680,384	-5	-2,134
1681,825	4	-0,03
1683,246	-19,5	-3,201
1684,674	-5	-2,046
1686,114	4	-0,039
1687,542	-19,5	-3,289
1688,982	-4,5	-2,013
1690,422	4	-0,036
1691,862	-19	-3,13
1693,32	-6	-2,281
1694,748	4	-0,022
1696,176	-17,5	-3,059
1697,615	-5,5	-2,252
1699,044	4	-0,022
1700,483	-18	-3,066
1701,911	-5	-2,132
1703,351	4	-0,03
1704,791	-18,5	-3,105
1706,213	-5,5	-2,168
1707,641	4	-0,034
1709,063	-20	-3,231
1710,503	-5	-2,097
1711,925	3,5	-0,045
1713,353	-19,5	-3,305
1714,793	-4,5	-1,983
1716,233	4	-0,042
1717,66	-19,5	-3,343
1719,094	-4	-1,887
1720,528	3,5	-0,071
1721,95	-19,5	-3,5
1723,402	-3,5	-1,795
1724,842	3	-0,092
1726,27	-19,5	-3,5
1727,77	-5	-2,066
1729,216	4	-0,03
1730,644	-19,5	-3,229
1732,072	-4,5	-1,992
1733,5	3,5	-0,056
1734,927	-19,5	-3,421
1736,367	-4	-1,897
1737,795	3	-0,091
1739,223	-19,5	-3,499
1740,651	-3	-1,647
1742,103	2,5	-0,114
1743,531	-19,5	-3,499
1744,953	-2,5	-1,453
1746,393	1,5	-0,254
1747,821	-19,5	-3,498
1749,248	-2,5	-1,356
1750,683	0,5	-0,376
1752,104	-19,5	-3,498
1753,55	-2	-1,211
1754,978	0	-0,55
1756,424	-19,5	-3,497
1757,852	-1,5	-1,089
1759,292	0	-0,555
1760,714	-19,5	-3,496
1762,148	-1,5	-1,074
1763,576	0	-0,64
1765,004	-19,5	-3,496
1766,426	-0,5	-0,896
1767,854	-0,5	-0,839
1805,633	-8,5	-2,656
1807,055	4	-0,006
1808,483	-14,5	-2,774
1809,911	-7	-2,434
1811,345	4	-0,011
1812,809	-13,5	-2,675
1814,237	-7,5	-2,56
1815,659	4,5	-0,009
1817,087	-14	-2,768
1818,509	-7,5	-2,456
1819,93	4,5	-0,011
1821,365	-14,5	-2,772
1822,792	-7	-2,456
1824,22	4	-0,012
1825,648	-17	-2,98
1827,07	-5,5	-2,22
1828,498	4	-0,024
1829,927	-19	-3,16
1831,384	-6	-2,236
1832,812	4	-0,022
1834,234	-19	-3,145
1835,674	-4,5	-2,107
1837,113	4	-0,03
1838,541	-19	-3,224
1839,97	-4,5	-2,056
1841,403	4	-0,041
1842,849	-19,5	-3,27
1844,277	-4	-1,947
1845,711	3,5	-0,054
1847,133	-19,5	-3,489
1848,561	-3,5	-1,751
1849,989	3	-0,113
1851,441	-19	-3,5
1852,869	-3	-1,775
1854,291	3	-0,112
1855,718	-19	-3,499
1857,14	-3	-1,586
1858,574	2	-0,15
1860,002	-19	-3,499
1861,43	-2,5	-1,51
1862,852	1,5	-0,264
1864,28	-19	-3,498
1865,708	-2	-1,322
1867,148	1,5	-0,317
1868,576	-19	-3,498
1870,004	-2	-1,307
1871,426	0,5	-0,475
1872,86	-19	-3,498
1874,281	-1,5	-1,202
1875,709	0	-0,501
1877,137	-19	-3,497
1878,565	-1,5	-1,132
1879,993	0	-0,619
1881,415	-19	-3,496
1882,837	-1	-1,02
1884,265	0	-0,685
1885,693	-19	-3,495
1887,115	0	-0,878
1888,543	0	-0,836
1889,965	-19	-3,492
1891,392	1	-0,667
1892,814	-1	-1,093
1894,248	-19	-3,487
1895,676	1,5	-0,55
1897,104	-1,5	-1,195
1898,544	-19	-3,483
1899,972	4	-0,487
1901,4	-1,5	-1,205
1902,828	-18,5	-3,475
1904,25	4	-0,346
1905,672	-2,5	-1,393
1907,093	-18	-3,456
1908,527	4	-0,222
1909,955	-2,5	-1,499
1911,377	-18	-3,445
1912,805	4,5	-0,185
1914,233	-3	-1,485
1915,661	-17,5	-3,429
1917,083	4,5	0
1918,505	-5	-1,839
1919,939	-15,5	-3,366
1921,373	4	0
1922,795	-5	-1,906
1924,222	-14	-3,269
1925,651	4,5	-0,001
1927,078	-7	-2,134
1928,5	-12	-3,076
1929,922	4,5	-0,002
1931,35	-9	-2,289
1932,778	-11	-2,951
1934,206	4	-0,002
1935,634	-9,5	-2,432
1937,056	-9,5	-2,766
1938,484	4,5	-0,004
1939,906	-12,5	-2,629
1941,328	-7,5	-2,537
1942,785	4,5	-0,006
1944,225	-12	-2,599
1945,659	-9	-2,738
1947,087	4,5	-0,005
1948,509	-12,5	-2,626
1949,949	-7,5	-2,614
1951,383	4,5	-0,005
1952,823	-13	-2,7
1954,251	-6,5	-2,465
1955,691	4,5	-0,01
1957,113	-14,5	-2,85
1958,553	-6,5	-2,396
1959,98	4	-0,017
1961,414	-16,5	-3,054
1962,842	-5	-2,123
1964,264	4	-0,041
1965,692	-18,5	-3,336
1967,12	-4	-1,875
1968,542	3,5	-0,084
1969,964	-19	-3,499
1971,404	-3	-1,715
1972,856	3,5	-0,097
1974,29	-19	-3,499
1975,718	-2,5	-1,599
1977,139	2	-0,2
1978,568	-19	-3,499
1979,989	-1,5	-1,342
1981,417	1,5	-0,329
1982,839	-19	-3,498
1984,268	-1,5	-1,206
1985,689	0,5	-0,575
1987,111	-19	-3,495
1988,539	-1	-1,003
1989,961	0	-0,774
1991,389	-18,5	-3,494
1992,811	0	-0,714
1994,233	-0,5	-1,04
1995,672	-18,5	-3,486
1997,094	3,5	-0,394
1998,522	-2	-1,346
1999,944	-18	-3,47
2001,372	4	-0,244
2002,794	-2,5	-1,512
2004,222	-17	-3,435
2005,644	4,5	0
2007,066	-5	-1,874
2008,494	-14,5	-3,296
2009,922	4,5	-0,001
2011,35	-6	-2,055
2012,796	-13	-3,204
2014,223	4,5	-0,001
2015,651	-7,5	-2,243
2017,091	-12	-3,031
2018,531	4,5	-0,002
2019,971	-8,5	-2,344
2021,411	-10,5	-2,926
2022,839	4,5	-0,003
2024,255	-10,5	-2,514
2025,689	-10	-2,787
2027,117	4,5	-0,005
2028,539	-13,5	-2,742
2029,955	-6,5	-2,451
2031,382	4	-0,014
2032,798	-17	-3,055
2034,22	-4,5	-2,128
2035,648	4	-0,036
2037,07	-18,5	-3,395
2038,498	-3,5	-1,837
2039,932	3,5	-0,086
2041,36	-18,5	-3,499
2042,788	-3	-1,581
2044,21	2	-0,242
2045,632	-18,5	-3,498
2047,053	-2	-1,283
2048,488	1	-0,469
2049,909	-18,5	-3,496
2051,337	-1	-1,076
2052,771	0,5	-0,635
2054,199	-18	-3,496
2055,621	0	-0,88
2057,049	0	-0,889
2058,471	-18,5	-3,491
2059,893	1	-0,671
2061,321	-0,5	-1,065
2062,743	-18	-3,485
2064,171	3	-0,427
2065,604	-1,5	-1,309
2067,032	-17,5	-3,466
2068,46	4,5	-0,18
2069,888	-2,5	-1,57
2071,316	-16,5	-3,436
2072,762	4	-0,108
2074,19	-3	-1,608
2075,618	-15	-3,41
2077,046	4	0
2078,51	-3	-1,629
2079,938	-15	-3,426
2081,378	4,5	-0,186
2082,805	-2,5	-1,554
2084,233	-15	-3,433
2085,691	4,5	-0,153
2087,131	-2,5	-1,493
2088,559	-16,5	-3,438
2089,987	4	-0,094
2091,415	-3	-1,563
2092,843	-16,5	-3,428
2094,265	4,5	0
2095,693	-4	-1,804
2097,121	-14	-3,323
2098,573	4,5	-0,001
2099,995	-4	-1,82
2101,416	-13,5	-3,299
2102,85	4,5	-0,001
2104,278	-5	-1,949
2105,706	-14	-3,276
2107,128	4	-0,001
2108,556	-6,5	-2,127
2109,984	-11,5	-3,059
2111,406	4,5	-0,002
2112,84	-8,5	-2,339
2114,262	-9,5	-2,837
2115,69	4,5	-0,003
2117,117	-9,5	-2,36
2118,546	-9,5	-2,859
2119,967	4	-0,003
2121,389	-9,5	-2,484
2122,811	-8	-2,673
2124,251	4,5	-0,004
2125,685	-10	-2,55
2127,113	-8	-2,672
2128,541	4,5	-0,006
2129,969	-12	-2,71
2131,397	-6,5	-2,487
2132,843	4,5	-0,009
2134,265	-12,5	-2,809
2135,692	-6	-2,366
2137,126	4,5	-0,014
2138,554	-15	-2,95
2139,994	-5,5	-2,322
2141,416	4	-0,017
2142,844	-15	-3,027
2144,278	-4,5	-2,205
2145,7	4	-0,029
2147,128	-17,5	-3,193
2148,574	-4,5	-2,085
2150,014	4	-0,028
2151,442	-16,5	-3,203
2152,87	-4	-1,986
2154,297	4	-0,051
2155,725	-17,5	-3,427
2157,147	-3,5	-1,838
2158,569	3,5	-0,091
2159,997	-18	-3,492
2161,431	-3,5	-1,812
2162,853	3	-0,102
2164,275	-17,5	-3,5
2165,697	-3	-1,748
2167,113	3	-0,115
2168,535	-17,5	-3,499
2169,962	-3	-1,6
2171,384	3	-0,153
2172,812	-17,5	-3,499
2174,234	-2,5	-1,598
2175,656	2	-0,176
2177,078	-17,5	-3,499
2178,506	-3	-1,586
2179,928	2	-0,201
2181,356	-18	-3,499
2182,784	-3	-1,572
2184,218	2,5	-0,183
2185,658	-17,5	-3,499
2187,086	-3	-1,603
2188,525	3	-0,118
2189,953	-17,5	-3,5
2191,381	-3	-1,717
2192,803	2,5	-0,128
2194,231	-17,5	-3,499
2195,659	-3	-1,682
2197,081	1,5	-0,157
2198,527	-17,5	-3,499
2199,949	-2,5	-1,557
2201,377	2	-0,182
2202,805	-17,5	-3,499
2204,245	-2,5	-1,57
2205,673	1,5	-0,187
2207,094	-17,5	-3,499
2208,54	-2,5	-1,614
2209,968	1,5	-0,177
2211,396	-17,5	-3,499
2212,818	-2,5	-1,578
2214,246	2	-0,178
2215,674	-17,5	-3,499
2217,102	-3	-1,669
2218,524	2	-0,167
2219,976	-17,5	-3,5
2221,404	-3	-1,7
2222,825	2,5	-0,124
2224,254	-17,5	-3,499
2225,681	-3	-1,671
2227,103	2	-0,16
2228,531	-17,5	-3,499
2229,953	-2	-1,498
2231,381	2	-0,185
2232,803	-17,5	-3,499
2234,225	-2	-1,433
2235,653	1,5	-0,292
2237,075	-17,5	-3,498
2238,503	-2	-1,408
2239,925	1	-0,352
2241,34	-17,5	-3,498
2242,762	-1,5	-1,256
2244,184	0,5	-0,504
2245,642	-17	-3,498
2247,076	-2	-1,322
2248,498	1	-0,39
2249,926	-17	-3,498
2251,354	-2	-1,287
2252,77	0,5	-0,455
2254,198	-17	-3,498
2255,62	-1	-1,212
2257,053	1	-0,499
2258,475	-17	-3,497
2259,897	-1,5	-1,172
2261,319	0,5	-0,6
2262,741	-17	-3,496
2264,169	-1	-1,079
2265,597	0,5	-0,629
2267,025	-17,5	-3,496
2268,453	-1	-1,058
2269,887	0	-0,589
2271,327	-17	-3,497
2272,755	-1,5	-1,18
2274,183	0,5	-0,486
2275,604	-17,5	-3,497
2277,044	-1,5	-1,199
2278,472	1	-0,488
2279,894	-17	-3,497
2281,328	-1,5	-1,263
2282,756	1	-0,403
2284,184	-17	-3,498
2285,612	-2	-1,332
2287,034	1,5	-0,348
2288,456	-17	-3,498
2289,878	-2	-1,331
2291,306	1	-0,313
2292,733	-17	-3,498
2294,155	-1,5	-1,297
2295,577	1	-0,43
2296,999	-17	-3,498
2298,427	-1,5	-1,327
2299,861	1,5	-0,294
2301,289	-17	-3,498
2302,705	-2	-1,426
2304,133	1	-0,364
2305,561	-17	-3,498
2306,983	-1,5	-1,278
2308,411	1	-0,425
2309,851	-17	-3,498
2311,278	-1,5	-1,264
2312,712	1	-0,414
2314,14	-17	-3,498
2315,568	-1,5	-1,252
2316,996	1	-0,431
2318,418	-17	-3,498
2319,846	-1,5	-1,231
2321,28	1	-0,473
2322,708	-17	-3,498
2324,13	-1,5	-1,178
2325,552	1	-0,555
2326,998	-17	-3,498
2328,443	-2	-1,377
2329,865	1	-0,394
2331,293	-17	-3,498
2332,721	-1	-1,139
2334,143	0	-0,578
2335,577	-17	-3,497
2337,005	-1	-1,118
2338,427	0	-0,61
2339,849	-16,5	-3,497
2341,277	-1	-1,042
2342,705	0,5	-0,614
2344,127	-17	-3,496
2345,555	-1	-1,023
2346,982	0	-0,654
2348,398	-16,5	-3,495
2349,82	-0,5	-0,907
2351,248	0	-0,824
2352,676	-16,5	-3,492
2354,098	0,5	-0,722
2355,526	0	-0,955
2356,954	-16,5	-3,49
2358,382	1,5	-0,636
2359,81	0	-1,072
2361,238	-16	-3,482
2362,659	3,5	-0,437
2364,081	-1,5	-1,324
2365,509	-16	-3,465
2366,937	4	-0,238
2368,359	-2	-1,491
2369,817	-15,5	-3,461
2371,245	4,5	-0,213
2372,667	-1,5	-1,494
2374,083	-15	-3,444
2375,511	4,5	-0,022
2376,939	-3	-1,687
2378,367	-14,5	-3,397
2379,794	4	0
2381,216	-4	-1,854
2382,639	-12,5	-3,322
2384,06	4	-0,001
2385,488	-5,5	-2,099
2386,916	-10,5	-3,17
2388,344	4	-0,001
2389,766	-6	-2,12
2391,188	-10	-3,051
2392,616	4,5	-0,002
2394,044	-6,5	-2,31
2395,466	-9	-2,941
2396,887	4,5	-0,002
2398,309	-7,5	-2,379
2399,726	-7,5	-2,812
2401,159	4,5	-0,004
2402,581	-8,5	-2,523
2404,003	-7	-2,642
2405,431	4	-0,007
2406,859	-10	-2,654
2408,281	-5,5	-2,523
2409,703	4	-0,011
2411,125	-12	-2,91
2412,559	-4,5	-2,343
2413,981	4	-0,02
2415,409	-13,5	-3,006
2416,831	-4,5	-2,262
2418,276	4	-0,015
2419,704	-11	-2,838
2421,12	-4,5	-2,346
2422,548	4	-0,018
2423,97	-14	-3,057
2425,392	-4	-2,131
2426,814	4	-0,036
2428,242	-14,5	-3,139
2429,682	-4,5	-2,187
2431,11	4	-0,027
2432,537	-14,5	-3,126
2433,965	-3	-2,044
2435,387	4	-0,041
2436,821	-15	-3,258
2438,249	-3,5	-1,991
2439,671	4	-0,053
2441,093	-15	-3,446
2442,515	-3	-1,821
2443,943	3,5	-0,07
2445,365	-15	-3,484
2446,793	-3	-1,796
2448,209	3	-0,099
2449,63	-15	-3,499
2451,052	-2	-1,581
2452,474	2	-0,192
2453,902	-15	-3,499
2455,33	-1,5	-1,364
2456,764	1,5	-0,325
2458,186	-15	-3,498
2459,614	-1,5	-1,316
2461,036	1,5	-0,369
2462,482	-14,5	-3,498
2463,91	-1,5	-1,387
2465,332	1,5	-0,28
2466,754	-14,5	-3,498
2468,181	-1,5	-1,308
2469,604	1	-0,448
2471,037	-14,5	-3,498
2472,465	-1,5	-1,226
2473,893	1	-0,509
2475,321	-14,5	-3,497
2476,749	-0,5	-1,052
2478,165	0,5	-0,697
2479,593	-14,5	-3,495
2481,015	0	-0,924
2482,437	0	-0,8
2483,865	-14,5	-3,494
2485,292	0	-0,931
2486,72	0,5	-0,778
2488,142	-14	-3,493
2489,57	0	-0,837
2490,992	0	-0,908
2492,42	-14	-3,491
2493,842	1,5	-0,617
2495,276	0	-1,071
2496,698	-14	-3,483
2498,12	2,5	-0,47
2499,548	-0,5	-1,206
2500,97	-13,5	-3,476
2502,385	3,5	-0,466
2503,813	-0,5	-1,28
2505,235	-13,5	-3,468
2506,663	3,5	-0,311
2508,091	-0,5	-1,385
2509,531	-13,5	-3,465
2510,959	4	-0,232
2512,387	-1	-1,5
2513,815	-12,5	-3,439
2515,243	4	-0,083
2516,677	-1,5	-1,603
2518,099	-12,5	-3,411
2519,527	4,5	0
2520,973	-1,5	-1,619
2522,394	-11,5	-3,406
2523,852	4	-0,026
2525,28	-1,5	-1,678
2526,708	-12	-3,404
2528,13	4,5	0
2529,546	-2,5	-1,873
2530,98	-10,5	-3,299
2532,414	4	-0,001
2533,83	-3	-1,97
2535,258	-9,5	-3,228
2536,686	4,5	-0,001
2538,113	-4	-2,098
2539,535	-9	-3,126
2540,963	4,5	-0,001
2542,385	-3,5	-2,099
2543,813	-8	-3,145
2545,241	4,5	-0,002
2546,687	-3	-2,095
2548,115	-9	-3,208
2549,537	4,5	-0,002
2550,959	-3,5	-2,149
2552,387	-7,5	-3,069
2553,809	4,5	-0,002
2555,23	-4,5	-2,294
2556,682	-7	-3,022
2558,11	4,5	-0,002
2559,532	-5,5	-2,396
2560,972	-6	-2,851
2562,394	4,5	-0,003
2563,822	-5	-2,388
2565,238	-6	-2,782
2566,666	4,5	-0,004
2568,088	-7	-2,626
2569,516	-5	-2,591
2570,938	4,5	-0,008
2572,366	-7,5	-2,746
2573,787	-4,5	-2,457
2575,215	4,5	-0,011
2576,643	-8	-2,819
2578,071	-4	-2,452
2579,499	4,5	-0,014
2580,921	-9,5	-2,971
2582,343	-3	-2,243
2583,771	4	-0,021
2585,193	-10	-3,069
2586,621	-3	-2,181
2588,037	4	-0,037
2589,465	-12,5	-3,249
2590,887	-2,5	-1,936
2592,32	4	-0,052
2593,754	-12,5	-3,306
2595,182	-2,5	-1,917
2596,61	3,5	-0,069
2598,05	-12,5	-3,447
2599,478	-2,5	-1,812
2600,906	3	-0,093
2602,334	-12,5	-3,499
2603,768	-1,5	-1,677
2605,202	3	-0,1
2606,63	-12,5	-3,499
2608,051	-2	-1,592
2609,479	2	-0,174
2610,907	-12,5	-3,499
2612,329	-1	-1,372
2613,751	1,5	-0,421
2615,173	-12,5	-3,498
2616,601	-1	-1,184
2618,017	1	-0,612
2619,445	-12,5	-3,496
2620,867	0	-0,971
2622,301	0,5	-0,697
2623,723	-12,5	-3,495
2625,15	-0,5	-0,928
2626,579	0,5	-0,749
2628,006	-12,5	-3,494
2629,434	0	-0,802
2630,862	0	-0,934
2632,284	-12,5	-3,49
2633,724	1	-0,692
2635,152	0	-1,053
2636,58	-12	-3,488
2638,002	2	-0,567
2639,43	0	-1,159
2640,846	-12	-3,482
2642,304	2	-0,604
2643,732	0	-1,104
2645,147	-12	-3,482
2646,599	2	-0,546
2648,015	0	-1,156
2649,443	-12	-3,478
2650,871	3,5	-0,369
2652,293	0	-1,369
2653,721	-12	-3,465
2655,143	4	-0,264
2656,571	-0,5	-1,51
2657,999	-11	-3,44
2659,42	4	-0,006
2660,842	-1,5	-1,767
2662,264	-9,5	-3,364
2663,692	4	0
2665,12	-1,5	-1,855
2666,542	-8,5	-3,318
2667,964	4,5	-0,001
2669,38	-2,5	-2,044
2670,808	-7,5	-3,109
2672,236	4	-0,002
2673,658	-3,5	-2,288
2675,086	-6	-2,982
2676,514	4,5	-0,002
2677,978	-3,5	-2,209
2679,406	-6,5	-3,062
2680,833	4,5	-0,002
2682,267	-3,5	-2,232
2683,695	-6	-3,013
2685,123	4,5	-0,003
2686,551	-5	-2,492
2687,985	-4,5	-2,803
2689,407	4,5	-0,004
2690,847	-6,5	-2,694
2692,269	-3,5	-2,501
2693,697	4	-0,016
2695,118	-12	-3,213
2696,546	-2,5	-2,087
2697,974	3,5	-0,065
2699,402	-12	-3,5
2700,818	-1,5	-1,62
2702,246	1,5	-0,299
2703,674	-12	-3,498
2705,102	-0,5	-1,267
2706,524	1	-0,584
2707,952	-12	-3,496
2709,392	0	-0,823
2710,82	0	-0,97
2712,241	-12	-3,489
2713,669	2,5	-0,538
2715,091	0	-1,238
2716,513	-11,5	-3,473
2717,935	4	-0,287
2719,357	-0,5	-1,45
2720,779	-10,5	-3,448
2722,202	4	-0,026
2723,641	-1	-1,636
2725,069	-10,5	-3,429
2726,485	4,5	0
2727,907	-1,5	-1,9
2729,328	-8,5	-3,308
2730,756	4	-0,001
2732,184	-3	-2,122
2733,612	-6,5	-3,106
2735,04	4,5	-0,002
2736,468	-3,5	-2,234
2737,896	-6	-3,032
2739,318	4	-0,002
2740,746	-4	-2,296
2742,174	-5,5	-2,96
2743,596	4	-0,003
2745,012	-5,5	-2,54
2746,434	-4	-2,632
2747,861	4,5	-0,008
2749,289	-7,5	-2,767
2750,711	-3,5	-2,422
2752,133	4	-0,018
2753,555	-11,5	-3,103
2754,977	-2,5	-2,086
2756,405	4	-0,039
2757,839	-12	-3,344
2759,261	-1,5	-1,805
2760,689	3	-0,09
2762,111	-11,5	-3,5
2763,539	-1,5	-1,722
2764,966	2	-0,126
2766,394	-12	-3,499
2767,834	-1	-1,637
2769,25	2	-0,167
2770,678	-12	-3,499
2772,124	-1	-1,508
2773,552	1,5	-0,246
2774,992	-12	-3,499
2776,42	-1	-1,409
2777,842	1,5	-0,352
2779,27	-12	-3,498
2780,698	-0,5	-1,267
2782,125	1	-0,485
2783,547	-12	-3,497
2784,975	-0,5	-1,109
2786,403	1	-0,594
2787,819	-12	-3,495
2789,241	0	-0,891
2790,675	0	-0,78
2792,097	-12	-3,493
2793,519	0,5	-0,744
2794,947	0	-0,996
2796,375	-12	-3,486
2797,803	2,5	-0,527
2799,224	0	-1,218
2800,652	-11,5	-3,478
2802,074	4	-0,235
2803,502	-0,5	-1,486
2804,93	-10,5	-3,445
2806,346	4	-0,058
2807,775	-1	-1,658
2809,202	-9,5	-3,393
2810,63	4,5	-0,001
2812,052	-2	-1,916
2813,492	-8,5	-3,355
2814,92	4	-0,001
2816,342	-2,5	-2,052
2817,769	-7	-3,113
2819,191	4	-0,002
2820,613	-4,5	-2,378
2822,053	-5	-2,885
2823,475	4,5	-0,003
2824,904	-4,5	-2,469
2826,319	-4,5	-2,682
2827,741	4	-0,007
2829,169	-6,5	-2,671
2830,591	-4	-2,585
2832,019	4	-0,008
2833,477	-5,5	-2,62
2834,899	-4	-2,567
2836,32	4	-0,011
2837,754	-9	-2,884
2839,182	-3	-2,312
2840,61	4	-0,024
2842,044	-11	-3,16
2843,472	-2,5	-2,061
2844,894	3,5	-0,048
2846,328	-11,5	-3,312
2847,756	-2,5	-1,965
2849,184	3,5	-0,046
2850,612	-11,5	-3,408
2852,033	-1,5	-1,844
2853,461	3	-0,091
2854,883	-11,5	-3,499
2856,312	-1	-1,586
2857,733	1,5	-0,23
2859,155	-11	-3,498
2860,583	-1	-1,34
2862,011	1	-0,423
2863,433	-11	-3,498
2864,849	0	-1,091
2866,277	1	-0,672
2867,705	-11	-3,496
2869,133	0	-0,946
2870,56	0,5	-0,757
2871,988	-11	-3,494
2873,41	1,5	-0,73
2874,838	0	-1,069
2876,26	-10,5	-3,484
2877,688	3,5	-0,412
2879,11	0	-1,405
2880,538	-10	-3,46
2881,954	4,5	-0,163
2883,376	-0,5	-1,601
2884,816	-9,5	-3,425
2886,238	4,5	0
2887,666	-1	-1,784
2889,094	-8,5	-3,363
2890,521	4	-0,001
2891,943	-2	-2,005
2893,377	-7,5	-3,29
2894,799	4,5	-0,001
2896,239	-1,5	-1,929
2897,679	-7,5	-3,322
2899,107	4	-0,001
2900,529	-2,5	-2,023
2901,951	-6,5	-3,16
2903,367	4,5	-0,002
2904,794	-3,5	-2,368
2906,222	-4,5	-2,845
2907,644	4	-0,004
2909,066	-5	-2,598
2910,494	-3,5	-2,641
2911,916	4	-0,006
2913,344	-5,5	-2,644
2914,766	-3,5	-2,576
2916,188	4	-0,009
2917,616	-6,5	-2,842
2919,032	-3	-2,32
2920,454	4	-0,02
2921,882	-9,5	-3,061
2923,309	-2,5	-2,18
2924,737	4	-0,03
2926,159	-10,5	-3,207
2927,587	-2	-2,091
2929,009	3,5	-0,041
2930,437	-10,5	-3,284
2931,859	-1,5	-1,942
2933,281	3,5	-0,048
2934,703	-10,5	-3,428
2936,125	-1,5	-1,866
2937,541	2,5	-0,118
2938,969	-10,5	-3,499
2940,397	-1	-1,547
2941,83	2	-0,212
2943,258	-10,5	-3,499
2944,686	-1	-1,492
2946,108	1,5	-0,237
2947,53	-10,5	-3,499
2948,952	-1	-1,422
2950,38	1,5	-0,34
2951,802	-10,5	-3,498
2953,254	-1	-1,348
2954,682	1	-0,394
2956,109	-10,5	-3,498
2957,526	-0,5	-1,202
2958,953	1	-0,464
2960,375	-10,5	-3,498
2961,803	-0,5	-1,231
2963,231	1	-0,52
2964,653	-10,5	-3,497
2966,075	0	-1,011
2967,515	0,5	-0,707
2968,949	-10,5	-3,496
2970,377	0	-0,883
2971,805	0	-0,858
2973,239	-10	-3,493
2974,666	1	-0,722
2976,094	0	-1,044
2977,517	-10	-3,486
2978,932	2	-0,565
2980,354	0	-1,288
2981,776	-9,5	-3,472
2983,198	4	-0,213
2984,626	0	-1,506
2986,054	-9	-3,434
2987,482	4	0
2988,91	-1	-1,911
2990,788	-10	-3,367
2992,215	-1,5	-1,92
2993,637	3	-0,076
2995,059	-10	-3,5
2996,481	-1	-1,571
2997,921	2	-0,154
2999,349	-10	-3,499
3000,771	-1	-1,482
3002,193	1,5	-0,426
3003,633	-10	-3,498
3005,061	-0,5	-1,157
3006,489	1	-0,525
3007,911	-10	-3,496
3009,332	0	-0,836
3010,754	0,5	-0,914
3012,176	-9,5	-3,49
3013,622	1,5	-0,659
3015,044	0	-1,181
3016,466	-9,5	-3,473
3017,888	4	-0,269
3019,304	-0,5	-1,663
3020,726	-8	-3,388
3022,148	4	-0,001
3023,57	-2	-2,221
3024,992	-5	-2,983
3026,432	4,5	-0,003
3027,86	-4	-2,589
3029,287	-3,5	-2,666
3030,715	4	-0,008
3032,137	-6	-2,848
3033,559	-2,5	-2,382
3034,981	4	-0,018
3036,397	-9,5	-3,21
3037,819	-1,5	-1,986
3039,241	3	-0,088
3040,669	-9,5	-3,5
3042,091	-1	-1,612
3043,519	1,5	-0,24
3044,941	-9,5	-3,498
3046,363	-0,5	-1,302
3047,784	1	-0,569
3049,212	-9,5	-3,497
3050,64	0	-1,091
3052,062	1	-0,722
3053,49	-9,5	-3,494
3054,906	1	-0,666
3056,334	0,5	-1,015
3057,756	-9	-3,484
3059,184	2,5	-0,482
3060,612	0	-1,375
3062,033	-9	-3,465
3063,455	4	-0,094
3064,878	-0,5	-1,764
3066,305	-7	-3,354
3067,733	4,5	-0,001
3069,149	-1,5	-2,099
3070,577	-5	-3,139
3071,999	4,5	-0,002
3073,433	-1,5	-2,148
3074,861	-5	-3,06
3076,289	4	-0,002
3077,717	-2	-2,199
3079,151	-5	-3,121
3080,596	4,5	-0,001
3082,024	-1	-2,001
3083,452	-5,5	-3,257
3084,88	4	-0,001
3086,332	-1,5	-2,083
3087,76	-5,5	-3,209
3089,188	4,5	-0,002
3090,616	-2	-2,28
3092,074	-5	-3,163
3093,49	4	-0,002
3094,912	-3	-2,502
3096,346	-3,5	-2,806
3097,768	4	-0,006
3099,195	-6	-2,89
3100,623	-2,5	-2,402
3102,051	4	-0,014
3103,479	-5,5	-2,954
3104,913	-2	-2,315
3106,335	4	-0,026
3107,751	-9	-3,268
3109,179	-1,5	-2,013
3110,607	3,5	-0,075
3112,029	-9	-3,467
3113,451	-1	-1,81
3114,878	3	-0,128
3116,307	-9	-3,499
3117,728	-0,5	-1,439
3119,174	1,5	-0,255
3120,602	-9	-3,499
3122,03	-0,5	-1,284
3123,446	1	-0,675
3124,874	-9	-3,495
3126,296	0,5	-0,747
3127,724	0,5	-1,079
3129,158	-9	-3,488
3130,586	1,5	-0,602
3132,008	0	-1,37
3133,435	-8,5	-3,463
3134,864	4	-0,222
3136,285	0	-1,704
3137,713	-7,5	-3,411
3139,129	4	-0,001
3140,551	-2	-2,208
3141,979	-5	-3,047
3143,407	4	-0,002
3144,829	-3	-2,494
3146,251	-3	-2,732
3147,673	4	-0,01
3149,131	-4,5	-2,776
3150,57	-2,5	-2,523
3151,999	4	-0,016
3153,426	-6	-2,954
3154,854	-2	-2,358
3156,27	4	-0,02
3157,698	-6	-2,978
3159,126	-2	-2,252
3160,548	4	-0,022
3161,97	-8	-3,134
3163,398	-1,5	-2,127
3164,82	3,5	-0,043
3166,248	-9	-3,428
3167,675	-1,5	-1,827
3169,115	3,5	-0,08
3170,531	-9	-3,5
3171,959	-1	-1,682
3173,381	2,5	-0,157
3174,809	-9	-3,499
3176,231	-0,5	-1,548
3177,659	2	-0,21
3179,081	-9	-3,499
3180,503	-0,5	-1,302
3181,925	1,5	-0,469
3183,347	-9	-3,497
3184,762	0	-0,942
3186,184	0,5	-0,779
3187,613	-9	-3,494
3189,04	1,5	-0,673
3190,474	0,5	-1,112
3191,902	-9	-3,488
3193,324	3	-0,508
3194,746	0	-1,348
3196,168	-8	-3,464
3197,59	4	-0,114
3199,018	-0,5	-1,726
3200,434	-6,5	-3,403
3201,856	4	-0,001
3203,283	-2	-2,258
3204,705	-3,5	-2,941
3206,127	4	-0,004
3207,555	-4,5	-2,791
3208,983	-2	-2,406
3210,411	4	-0,012
3211,833	-6	-2,986
3213,255	-2	-2,271
3214,671	3,5	-0,036
3216,099	-8,5	-3,156
3217,521	-1	-2,048
3218,943	3,5	-0,055
3220,37	-8,5	-3,411
3221,798	-1	-1,843
3223,226	2,5	-0,115
3224,648	-9	-3,499
3226,07	-0,5	-1,522
3227,492	1,5	-0,233
3228,914	-9	-3,498
3230,33	0	-1,147
3231,758	1	-0,664
3233,186	-9	-3,496
3234,608	0,5	-0,873
3236,03	0,5	-1,046
3237,457	-8,5	-3,486
3238,741	4	0