File: Cycling_tests/_20perc/_3gap/entrada/_3.txt
Time (s)	Load (N)	Displacement (mm)
0	0	-0,041
0,403	-18	-2,081
0,823	-35	-3,486
1,297	-22,5	-2,27
1,747	0	-0,114
2,179	1	-0,465
2,599	-19	-2,55
3,055	-33,5	-3,497
3,505	-16,5	-1,826
3,997	1,5	-0,016
4,501	-8,5	-1,44
4,939	-30	-3,407
5,419	-28	-2,826
5,884	-3	-0,485
6,33	1,5	0
6,774	-15	-2,175
7,209	-32,5	-3,492
7,663	-19,5	-2,19
8,13	1	-0,072
8,623	-3,5	-0,798
9,066	-24	-3,018
9,535	-32,5	-3,321
10,002	-9	-1,06
10,458	2	-0,003
10,896	-10	-1,636
11,364	-31,5	-3,48
11,857	-22	-2,299
12,331	0	-0,115
13,236	-20	-2,724
13,68	-31,5	-3,498
14,154	-12	-1,42
14,61	2,5	-0,01
15,054	-7	-1,4
15,516	-29,5	-3,419
15,966	-27	-2,91
16,398	-5	-0,75
16,836	2,5	-0,001
17,304	-13,5	-2,037
17,748	-31,5	-3,489
18,186	-22	-2,299
18,618	0	-0,139
19,062	1,5	-0,397
19,53	-19	-2,678
19,95	-31,5	-3,498
20,454	-12	-1,518
20,922	2,5	-0,009
21,42	-8,5	-1,554
21,912	-30,5	-3,476
22,35	-22,5	-2,542
22,805	-0,5	-0,266
23,261	2,5	-0,252
23,711	-17	-2,554
24,15	-31	-3,497
24,592	-17,5	-1,888
25,092	2,5	-0,018
25,535	-4,5	-1,185
25,967	-23,5	-3,275
26,405	-31	-3,432
26,855	-8	-1,098
27,336	3	-0,003
27,803	-11	-1,857
28,236	-30	-3,476
28,686	-24	-2,571
29,118	-1,5	-0,417
29,537	2,5	0
29,975	-12	-2,132
30,42	-30,5	-3,491
30,857	-19,5	-2,264
31,301	0,5	-0,136
31,733	2	-0,477
32,244	-21	-2,897
32,67	-30,5	-3,499
33,13	-10,5	-1,464
33,587	3	-0,01
34,061	-7	-1,465
34,523	-29	-3,445
34,961	-25	-2,866
35,375	-4,5	-0,796
35,807	3	-0,001
36,269	-11	-2,046
36,749	-30	-3,491
37,193	-19	-2,296
37,625	0,5	-0,179
38,051	2	-0,356
38,507	-18	-2,632
38,963	-30	-3,498
39,389	-13	-1,71
39,803	2,5	-0,038
40,253	-3	-0,911
40,673	-20	-3,011
41,54	-10,5	-1,475
41,968	3	-0,014
42,461	-7	-1,376
42,898	-24,5	-3,418
43,348	-26,5	-2,99
43,817	-3	-0,654
44,26	3	-0,001
44,692	-11,5	-2,02
45,112	-29,5	-3,483
45,565	-21	-2,35
46,037	1	-0,11
46,492	0	-0,562
46,933	-18,5	-2,758
47,35	-30	-3,498
47,783	-13,5	-1,745
48,226	3	-0,027
48,7	-4,5	-1,112
49,132	-24	-3,262
49,558	-29,5	-3,353
49,996	-7	-1,159
50,459	3	-0,003
50,908	-9	-1,68
51,358	-29	-3,474
51,814	-22	-2,618
52,276	-0,5	-0,313
52,762	2	-0,336
53,2	-15,5	-2,522
53,632	-29,5	-3,497
54,058	-15	-1,961
54,49	2	-0,053
54,947	-2	-0,795
55,378	-19	-2,95
55,798	-29,5	-3,499
56,272	-8,5	-1,344
56,698	3	-0,01
57,142	-6	-1,259
57,586	-26	-3,375
58,018	-29	-3,18
58,45	-5,5	-1,022
58,858	3	-0,005
59,308	-7,5	-1,505
59,709	-26,5	-3,388
60,135	-28,5	-3,141
60,568	-5	-0,98
60,994	3	-0,003
61,413	-7	-1,503
61,87	-28	-3,452
62,301	-28	-2,843
62,745	-2	-0,508
63,207	3	0
63,669	-13,5	-2,235
64,104	-29	-3,492
64,545	-16,5	-2,202
64,989	1,5	-0,111
65,433	1,5	-0,54
65,871	-17,5	-2,671
66,307	-29	-3,498
66,735	-12	-1,76
67,179	2,5	-0,029
67,635	-3	-0,921
68,061	-21,5	-3,116
68,505	-29	-3,498
68,967	-6,5	-1,159
69,417	3	-0,005
70,287	-23,5	-3,407
70,701	-27,5	-3,13
71,151	-4,5	-0,879
71,585	3	-0,002
72,075	-11	-2,031
72,471	-28,5	-3,482
72,909	-21,5	-2,626
73,353	-0,5	-0,406
73,761	3	0
74,205	-12	-2,117
74,655	-29	-3,492
75,087	-17	-2,219
75,553	2	-0,081
75,981	0	-0,518
76,442	-18	-2,828
76,863	-29	-3,498
77,306	-11	-1,684
77,714	2,5	-0,039
78,134	0	-0,737
78,567	-18	-2,842
79,016	-29	-3,499
79,412	-11	-1,665
79,85	3	-0,023
80,258	-2	-0,791
80,678	-17,5	-2,892
81,098	-28,5	-3,499
81,524	-10,5	-1,669
81,945	3	-0,031
82,37	-1,5	-0,808
82,79	-17	-2,903
83,223	-29	-3,499
83,666	-9	-1,475
84,098	3,5	-0,013
84,542	-5	-1,136
84,976	-20,5	-3,275
85,412	-28,5	-3,31
85,827	-6,5	-1,238
86,228	3,5	-0,011
86,672	-5	-1,228
87,117	-24	-3,363
87,518	-28,5	-3,301
87,908	-7,5	-1,314
88,34	3	-0,01
88,784	-5,5	-1,316
89,192	-20,5	-3,317
89,612	-28,5	-3,326
90,064	-5	-1,064
90,5	3,5	-0,004
90,902	-6	-1,346
91,34	-26	-3,428
91,76	-28,5	-3,096
92,174	-5	-1,025
92,611	3	-0,003
93,038	-6	-1,656
93,482	-26,5	-3,455
93,925	-21,5	-2,739
94,363	-1	-0,544
94,783	3,5	-0,001
95,216	-9	-1,89
95,665	-28	-3,484
96,079	-21,5	-2,504
96,541	0	-0,255
97,003	2,5	-0,328
97,424	-14,5	-2,429
97,85	-28,5	-3,495
98,293	-17	-1,973
98,719	2,5	-0,061
99,139	1	-0,542
99,589	-14	-2,733
100,015	-28,5	-3,498
100,43	-12,5	-1,851
100,861	3	-0,045
101,731	-17,5	-2,971
102,175	-28	-3,499
102,589	-9,5	-1,54
103,039	3,5	-0,011
103,477	-5	-1,147
103,885	-18,5	-3,187
104,329	-28,5	-3,291
104,761	-5,5	-1,132
105,223	3,5	-0,003
105,691	-7,5	-1,658
106,135	-27	-3,464
106,531	-24	-2,915
106,957	-2,5	-0,784
107,371	3	-0,002
107,809	-7,5	-1,69
108,242	-27,5	-3,461
108,667	-25	-2,799
109,117	-1	-0,489
109,561	3,5	-0,001
109,993	-10	-2,036
110,419	-28	-3,486
110,845	-18,5	-2,468
111,271	0	-0,338
111,69	3,5	-0,007
112,134	-13	-2,245
112,579	-28	-3,494
113,011	-15,5	-2,191
113,442	1,5	-0,129
113,874	3	-0,409
114,324	-15	-2,665
114,762	-28	-3,498
115,207	-11	-1,744
115,656	3	-0,024
116,088	-3	-0,921
116,544	-22	-3,211
116,994	-28	-3,274
117,408	-6	-1,201
117,84	3,5	-0,006
118,278	-5,5	-1,36
118,704	-24,5	-3,381
119,131	-27	-3,104
119,593	-3	-0,803
120,018	3,5	-0,002
120,45	-7	-1,64
120,858	-25	-3,433
121,291	-27	-2,946
121,722	-2,5	-0,796
122,16	3,5	-0,002
122,598	-8,5	-1,778
123,042	-27	-3,474
123,468	-22	-2,588
123,9	-0,5	-0,507
124,35	3,5	0
124,782	-11	-2,113
125,214	-27,5	-3,489
125,646	-17,5	-2,378
207,811	-17,5	-2,488
208,231	0	-0,388
208,657	3,5	0
209,071	-9	-2,03
209,505	-26	-3,487
209,941	-17	-2,398
210,361	0	-0,299
210,757	3,5	0
211,183	-9	-2,101
211,597	-26	-3,486
212,011	-17,5	-2,495
212,407	-0,5	-0,515
212,827	3,5	-0,001
213,223	-6	-1,795
213,631	-25,5	-3,458
214,039	-23,5	-2,958
214,441	-3	-0,942
214,885	3,5	-0,002
215,317	-6	-1,664
215,725	-24,5	-3,438
216,163	-23	-2,89
216,558	-3	-0,914
216,991	3,5	-0,003
217,398	-5,5	-1,537
217,831	-24,5	-3,436
218,238	-24,5	-3,054
218,646	-4	-1,013
219,078	4	-0,004
219,474	-4,5	-1,332
219,894	-22	-3,355
220,314	-26,5	-3,252
220,704	-5,5	-1,298
221,118	3,5	-0,011
221,538	-3	-1,094
221,946	-18,5	-3,139
222,372	-26	-3,461
222,786	-6,5	-1,364
223,194	3,5	-0,01
223,627	-2,5	-1,039
224,058	-19,5	-3,199
224,478	-26	-3,498
224,904	-6	-1,365
225,342	3,5	-0,009
225,792	-4,5	-1,299
226,218	-22	-3,352
226,614	-26	-3,358
227,034	-5	-1,247
227,46	3,5	-0,008
227,874	-4	-1,216
228,312	-22	-3,343
228,738	-26	-3,291
229,128	-7	-1,246
229,548	3,5	-0,011
229,944	-2	-0,954
230,346	-16,5	-2,963
230,742	-26	-3,498
231,168	-10	-1,733
231,558	3	-0,06
231,978	2	-0,528
232,391	-13,5	-2,593
232,818	-26	-3,498
233,255	-10,5	-1,85
233,64	2	-0,094
234,065	2,5	-0,516
234,485	-13,5	-2,616
234,917	-26	-3,498
235,332	-11	-1,95
235,775	3	-0,05
236,201	1	-0,647
236,627	-14,5	-2,772
237,053	-26	-3,498
237,461	-11,5	-1,89
237,875	3	-0,068
238,301	1,5	-0,563
238,74	-15	-2,753
239,173	-26	-3,498
239,591	-9,5	-1,782
239,993	3	-0,058
240,413	1,5	-0,538
240,839	-14	-2,673
241,247	-26	-3,497
241,667	-12,5	-1,941
242,105	3	-0,06
242,531	1	-0,553
242,963	-14,5	-2,723
243,389	-26	-3,498
243,791	-11	-1,904
244,217	3	-0,058
244,661	0	-0,683
245,087	-14,5	-2,754
245,507	-25,5	-3,498
245,945	-10	-1,762
246,359	3	-0,045
246,779	0,5	-0,655
247,187	-13,5	-2,695
247,595	-26	-3,498
248,015	-11,5	-1,934
248,441	3	-0,064
248,867	2	-0,536
249,257	-12,5	-2,487
249,701	-26	-3,497
250,127	-12	-1,948
250,57	3	-0,051
251,002	1	-0,61
251,435	-15	-2,771
251,872	-26	-3,499
252,256	-11	-1,904
252,688	3	-0,054
253,108	1	-0,523
253,54	-14	-2,684
253,948	-26	-3,497
254,351	-12,5	-2,041
254,789	3	-0,075
255,226	2,5	-0,48
255,622	-12	-2,52
256,054	-26	-3,497
256,474	-12,5	-2,053
256,882	1,5	-0,122
257,315	3	-0,355
257,746	-13	-2,521
258,172	-26	-3,496
258,572	-13,5	-2,137
258,97	1,5	-0,177
259,408	3,5	-0,228
259,834	-11,5	-2,361
260,242	-26	-3,493
260,668	-14,5	-2,264
261,094	1	-0,178
261,52	3,5	-0,295
261,964	-12	-2,452
262,396	-25,5	-3,496
262,798	-14	-2,178
263,206	0,5	-0,18
263,632	3,5	-0,115
264,046	-9,5	-2,198
264,898	-15,5	-2,332
265,3	0	-0,322
265,72	3,5	0
266,152	-9,5	-2,153
266,56	-25,5	-3,486
266,974	-18	-2,543
267,376	-0,5	-0,503
267,831	3,5	-0,012
268,252	-9	-2,068
268,659	-25,5	-3,482
269,068	-18	-2,598
269,469	-1	-0,524
269,877	3,5	-0,001
270,297	-7	-1,776
270,717	-25	-3,463
271,126	-22	-2,825
271,539	-2,5	-0,695
271,965	3,5	-0,002
272,379	-6	-1,607
272,781	-23,5	-3,418
273,189	-25	-3,117
273,604	-4	-1,047
274,035	3,5	-0,004
274,431	-4,5	-1,287
274,851	-21,5	-3,334
275,277	-25,5	-3,271
275,673	-5	-1,227
276,087	3,5	-0,01
276,495	-2,5	-0,991
276,921	-18	-3,122
277,335	-25,5	-3,5
277,761	-6,5	-1,448
278,212	3,5	-0,01
278,637	-3,5	-1,132
279,063	-19,5	-3,254
279,477	-25,5	-3,498
279,897	-6	-1,395
280,281	3,5	-0,023
280,701	-0,5	-0,834
281,085	-14,5	-2,754
281,529	-25,5	-3,499
281,949	-9	-1,764
282,357	3	-0,05
282,741	3	-0,433
283,173	-13,5	-2,594
283,599	-25,5	-3,497
284,025	-10,5	-1,904
284,457	3	-0,054
284,841	2,5	-0,53
285,261	-12,5	-2,555
285,701	-25,5	-3,497
286,082	-13,5	-2,13
364,534	0	-0,39
364,948	3,5	-0,001
365,356	-6,5	-1,853
365,794	-24,5	-3,478
366,202	-18	-2,69
366,604	-0,5	-0,68
367,024	4	-0,002
367,426	-6	-1,698
367,828	-23,5	-3,439
368,236	-23,5	-3,059
368,62	-3	-1,138
369,04	4	-0,006
369,448	-3,5	-1,196
369,868	-19,5	-3,279
370,27	-24,5	-3,496
370,678	-6	-1,443
371,104	3,5	-0,014
371,488	-1	-0,827
371,901	-15,5	-2,898
372,31	-24,5	-3,499
372,717	-9	-1,78
373,114	2,5	-0,063
373,515	3	-0,381
373,948	-12	-2,542
374,373	-24,5	-3,497
374,782	-11	-2,056
375,165	1,5	-0,187
375,585	3,5	-0,098
375,987	-9	-2,19
376,413	-24,5	-3,489
376,821	-15,5	-2,489
377,242	0	-0,379
377,644	3,5	-0,001
378,057	-7	-1,949
378,453	-24	-3,479
378,861	-19	-2,769
379,269	-1	-0,728
379,683	3,5	-0,002
380,079	-5	-1,532
380,499	-22,5	-3,422
380,907	-23,5	-3,064
381,327	-2,5	-0,963
381,735	4	-0,004
382,131	-4	-1,292
382,539	-19,5	-3,302
382,935	-24,5	-3,45
383,343	-5	-1,385
383,751	3,5	-0,015
384,195	-3	-1,096
384,603	-17	-3,136
385,005	-24,5	-3,499
385,413	-7,5	-1,609
385,821	3,5	-0,031
386,217	1	-0,626
386,614	-12,5	-2,611
387,021	-25	-3,496
387,417	-13,5	-2,174
387,825	1,5	-0,178
388,233	3,5	-0,047
388,628	-8	-2,048
389,025	-24,5	-3,481
389,433	-19	-2,705
389,835	-1	-0,696
390,242	3,5	-0,002
390,638	-4,5	-1,497
391,028	-21	-3,362
391,436	-24,5	-3,259
391,838	-4,5	-1,245
392,253	4	-0,009
392,649	-3	-1,069
393,056	-17	-3,109
393,452	-24,5	-3,499
393,854	-8	-1,681
394,274	3,5	-0,032
394,67	0,5	-0,631
395,078	-12,5	-2,671
395,486	-24,5	-3,497
395,894	-11,5	-2,05
396,314	2,5	-0,1
396,722	3,5	-0,299
397,125	-10	-2,311
397,52	-24,5	-3,491
397,94	-14	-2,271
398,36	1	-0,248
398,774	4	-0,012
399,182	-8	-2,068
399,578	-24	-3,479
399,992	-16,5	-2,55
400,394	0	-0,54
400,79	4	-0,001
401,198	-5,5	-1,654
401,606	-23	-3,436
402,014	-22	-2,916
402,434	-2	-0,871
478,365	-2,5	-1,053
478,767	3,5	-0,006
479,188	-3	-1,267
479,589	-18,5	-3,262
480,009	-24	-3,419
480,405	-5	-1,422
480,801	3,5	-0,021
481,197	-0,5	-0,759
481,599	-14	-2,769
481,983	-24	-3,497
482,409	-9,5	-1,924
482,793	2,5	-0,118
483,189	4	-0,205
483,609	-9	-2,309
483,993	-24	-3,488
484,389	-16,5	-2,587
484,797	0	-0,547
485,193	4	-0,001
486,021	-23	-3,444
486,423	-21	-2,99
486,807	-2,5	-1,07
487,222	4	-0,005
487,642	-3,5	-1,294
488,037	-19	-3,263
488,445	-24	-3,461
488,865	-4,5	-1,335
489,249	3,5	-0,019
489,633	-0,5	-0,721
490,041	-13,5	-2,761
490,449	-24	-3,498
490,833	-9,5	-2,036
491,229	1,5	-0,116
491,625	4	-0,097
492,009	-7,5	-2,032
492,441	-24	-3,486
492,837	-15,5	-2,574
493,233	0	-0,594
493,641	4	-0,001
494,037	-5,5	-1,625
494,433	-22,5	-3,415
494,829	-24	-3,134
495,23	-3,5	-1,153
495,62	4	-0,01
496,022	-2,5	-0,996
496,43	-15,5	-3,036
496,815	-24	-3,498
497,234	-7	-1,755
497,618	3,5	-0,07
498,026	3	-0,399
498,41	-9	-2,32
498,818	-24	-3,492
499,202	-15	-2,447
499,61	0	-0,412
499,994	4	-0,001
500,402	-5,5	-1,757
500,792	-23	-3,438
501,188	-22,5	-3,029
501,584	-2,5	-1,048
501,998	4	-0,005
502,382	-2,5	-1,184
502,79	-16,5	-3,222
503,186	-24	-3,5
503,582	-5,5	-1,574
503,966	3,5	-0,04
504,374	0,5	-0,612
504,758	-10,5	-2,533
505,16	-24	-3,495
505,544	-13,5	-2,328
505,94	0,5	-0,275
506,348	4	0
506,744	-6,5	-1,942
507,14	-23,5	-3,468
507,548	-19	-2,776
507,932	-1	-0,856
508,328	4	-0,004
508,712	-4	-1,345
509,12	-19,5	-3,333
509,518	-24	-3,412
509,924	-4,5	-1,358
510,308	4	-0,02
510,704	-0,5	-0,794
511,088	-12,5	-2,709
511,472	-24	-3,496
511,879	-10,5	-2,073
512,264	1,5	-0,189
512,654	4	-0,078
513,061	-8	-2,106
513,458	-23,5	-3,481
513,841	-18	-2,768
514,231	-1	-0,818
514,615	4	-0,004
515,011	-4	-1,341
515,42	-19,5	-3,331
515,834	-24	-3,304
553,32	-15	-2,937
553,727	-24	-3,499
554,111	-7,5	-1,839
554,507	3	-0,076
554,904	3,5	-0,384
555,299	-9,5	-2,365
555,689	-24	-3,49
556,079	-16,5	-2,478
556,475	0	-0,433
556,883	4	-0,001
557,267	-4,5	-1,641
557,681	-20,5	-3,439
558,077	-24	-3,052
558,473	-2,5	-1,071
558,857	4	-0,009
559,265	-2,5	-1,078
559,667	-15	-3,088
560,059	-24	-3,499
560,452	-7,5	-1,794
560,855	3,5	-0,061
561,239	3	-0,389
561,635	-10	-2,37
562,025	-24	-3,49
562,415	-15	-2,521
562,811	0	-0,542
563,195	4	-0,002
563,591	-5	-1,554
563,987	-18,5	-3,396
564,383	-24	-3,207
564,772	-3,5	-1,3
565,169	4	-0,014
565,552	-1	-0,826
565,948	-14,5	-2,806
566,357	-23,5	-3,498
566,74	-9	-1,944
567,142	2,5	-0,126
567,526	4	-0,13
567,916	-7,5	-2,087
568,3	-23,5	-3,476
568,714	-16,5	-2,664
569,11	0	-0,684
569,5	4	-0,002
569,884	-4	-1,438
570,286	-17,5	-3,362
570,67	-24	-3,4
571,066	-5,5	-1,404
571,456	4	-0,022
571,84	0	-0,702
572,236	-12,5	-2,682
573,082	-8	-1,861
573,466	3	-0,096
573,862	3,5	-0,305
574,252	-9	-2,257
574,648	-23,5	-3,488
575,056	-16	-2,534
575,44	0	-0,614
575,854	4	-0,001
576,262	-5,5	-1,738
576,646	-21,5	-3,428
577,03	-23	-3,22
577,426	-3,5	-1,238
577,81	4	-0,014
578,206	-1	-0,862
578,596	-13,5	-2,812
578,998	-23,5	-3,498
579,382	-10	-2,058
579,772	2,5	-0,164
580,168	4	-0,108
580,564	-7,5	-2,099
580,948	-22,5	-3,476
581,344	-18	-2,684
581,745	-0,5	-0,734
582,129	4	-0,003
582,538	-4,5	-1,481
582,921	-19,5	-3,341
583,317	-23,5	-3,4
583,713	-4	-1,404
584,11	4	-0,019
584,505	0	-0,788
584,901	-13	-2,768
585,285	-23,5	-3,497
585,681	-11	-2,18
586,078	1,5	-0,215
586,461	4	0
586,863	-6	-1,918
587,247	-23	-3,459
587,655	-20,5	-2,896
588,051	-1	-0,916
588,447	4	-0,004
588,832	-3	-1,201
589,245	-17,5	-3,26
589,629	-23,5	-3,5
590,025	-5,5	-1,546
590,427	4	-0,028
590,829	0	-0,722
591,213	-12	-2,642
591,597	-23,5	-3,495
592,005	-12	-2,215
592,413	1,5	-0,202
592,797	4	0
593,205	-6,5	-2,027
593,601	-23	-3,475
593,997	-18	-2,792
594,381	-1	-0,872
594,789	4	-0,004
595,173	-4	-1,303
595,557	-16,5	-3,221
595,965	-23,5	-3,489
596,349	-5	-1,542
596,757	4	-0,025
597,141	1,5	-0,6
597,537	-11,5	-2,576
597,921	-23,5	-3,494
598,305	-13	-2,314
598,713	1,5	-0,277
599,097	4	-0,001
599,492	-5,5	-1,825
599,889	-22,5	-3,455
600,284	-21	-2,905
600,686	-1	-0,895
601,082	4	-0,004
601,478	-3,5	-1,27
601,874	-18	-3,245
602,264	-23,5	-3,5
602,66	-5,5	-1,589
603,044	3,5	-0,042
603,452	1	-0,576
603,836	-10,5	-2,497
604,232	-23,5	-3,494
604,628	-11,5	-2,259
605,012	1	-0,276
605,408	4	-0,001
605,804	-5,5	-1,836
606,194	-22,5	-3,452
606,578	-23,5	-3,074
606,975	-2,5	-1,088
607,364	4	-0,008
607,766	-3	-1,082
608,15	-15	-2,997
608,546	-23,5	-3,499
608,942	-7,5	-1,833
609,326	3,5	-0,088
609,722	3,5	-0,318
610,112	-9	-2,265
610,508	-23,5	-3,488
610,892	-15	-2,615
611,276	-0,5	-0,695
611,684	4	-0,002
612,068	-4,5	-1,464
612,482	-18,5	-3,394
612,866	-23,5	-3,332
613,268	-3,5	-1,314
613,664	4	-0,014
614,06	-1,5	-0,882
614,456	-14	-2,862
614,852	-23,5	-3,498
615,236	-9	-1,974
615,65	3	-0,087
616,034	3,5	-0,271
616,442	-9	-2,318
616,826	-23,5	-3,488
617,209	-15	-2,604
617,618	0	-0,56
618,001	4	-0,002
618,397	-4,5	-1,556
619,231	-21	-3,06
619,627	-2	-1,079
620,011	4	-0,009
620,395	-1,5	-0,956
620,827	-15,5	-3,116
621,235	-23,5	-3,499
621,619	-7,5	-1,74
622,026	3,5	-0,046
622,411	3	-0,418
622,801	-7,5	-2,374
623,197	-23	-3,492
623,587	-14	-2,376
623,977	0	-0,462
624,361	4	-0,001
624,757	-4,5	-1,676
625,141	-20	-3,414
625,525	-23,5	-3,228
625,927	-3,5	-1,275
626,311	4	-0,016
626,707	-0,5	-0,807
627,091	-12	-2,732
627,487	-23,5	-3,497
701,727	-18	-2,802
702,111	-1	-0,882
702,507	4	-0,004
702,927	-3	-1,402
703,311	-17	-3,296
703,695	-22,5	-3,5
704,097	-5,5	-1,543
704,481	4	-0,036
704,888	0,5	-0,702
705,273	-10,5	-2,622
705,669	-23	-3,496
706,052	-12	-2,241
706,442	1	-0,292
706,832	4	0
707,216	-5	-1,783
707,612	-19,5	-3,448
708,008	-22	-3,09
708,405	-2,5	-1,109
708,788	4	-0,01
709,184	-1,5	-1,011
709,58	-14,5	-2,992
709,964	-23	-3,498
710,36	-7,5	-1,86
710,744	3	-0,097
711,128	4	-0,229
711,524	-7,5	-2,213
711,914	-22,5	-3,485
712,31	-16	-2,654
712,694	-0,5	-0,734
713,078	4	-0,003
713,486	-3	-1,416
713,87	-17,5	-3,339
714,278	-22,5	-3,439
714,662	-5	-1,494
715,076	4	-0,019
715,46	0	-0,695
715,844	-10,5	-2,615
716,24	-22,5	-3,496
716,624	-12	-2,28
717,032	1	-0,248
717,416	4	0
717,8	-5,5	-1,796
718,196	-21	-3,45
718,592	-21	-2,994
718,988	-2	-1,018
719,372	4	-0,008
720,218	-18	-3,285
720,602	-23	-3,5
720,986	-5,5	-1,635
721,382	4	-0,04
721,777	2	-0,583
722,179	-10,5	-2,593
722,563	-22,5	-3,494
722,965	-11,5	-2,262
723,35	0,5	-0,341
723,733	4	-0,001
724,129	-5	-1,802
724,525	-21,5	-3,451
724,909	-20,5	-3,014
725,323	-1,5	-1,003
725,707	4	-0,006
726,103	-2	-1,07
726,499	-15	-3,051
726,895	-22,5	-3,499
727,279	-7,5	-1,856
727,663	3	-0,096
728,071	3,5	-0,329
728,455	-7,5	-2,25
728,845	-22,5	-3,487
729,235	-16,5	-2,667
729,619	-0,5	-0,692
730,027	4	-0,002
730,411	-3,5	-1,45
730,807	-18,5	-3,355
731,203	-22,5	-3,388
731,599	-3,5	-1,395
731,983	4	-0,023
732,367	1,5	-0,597
732,781	-11,5	-2,667
733,165	-22,5	-3,496
733,573	-11	-2,158
733,957	1	-0,246
734,353	4	0
734,737	-5,5	-1,872
735,133	-21,5	-3,467
735,529	-19,5	-2,924
735,913	-2	-1,004
736,321	4	-0,005
736,705	-2,5	-1,149
737,101	-15,5	-3,129
737,485	-22,5	-3,499
737,869	-7,5	-1,858
738,271	3	-0,072
738,655	4	-0,252
739,038	-7,5	-2,23
739,452	-22,5	-3,488
739,837	-15	-2,603
740,232	-0,5	-0,623
740,635	4	-0,002
741,031	-4	-1,572
741,414	-19	-3,38
741,798	-22,5	-3,432
742,212	-4	-1,34
742,596	4	-0,019
743,004	-0,5	-0,825
743,394	-11,5	-2,775
743,79	-22,5	-3,498
744,186	-9,5	-2,065
744,582	2	-0,156
744,981	4	-0,186
745,386	-7	-2,166
745,782	-22,5	-3,484
746,166	-16,5	-2,724
746,562	-0,5	-0,744
746,959	4	-0,003
747,354	-3	-1,411
747,738	-18	-3,302
748,146	-22,5	-3,475
748,53	-5	-1,532
748,914	3,5	-0,036
749,316	1	-0,602
749,7	-10	-2,528
750,096	-22,5	-3,494
750,492	-11,5	-2,233
750,888	1	-0,258
751,272	4	-0,001
751,668	-5	-1,863
752,064	-22	-3,459
752,448	-21	-2,995
752,856	-1,5	-0,959
753,24	4	-0,006
753,624	-2	-1,106
754,02	-15	-3,086
754,404	-22,5	-3,499
754,806	-7	-1,79
755,202	3,5	-0,065
755,616	2,5	-0,486
756,012	-9	-2,467
756,408	-22,5	-3,493
756,809	-13	-2,36
757,205	0,5	-0,38
757,607	4	-0,001
757,992	-4,5	-1,771
758,387	-21	-3,446
758,777	-21	-3,096
759,173	-2,5	-1,115
759,557	4	-0,01
759,959	-2,5	-1,073
760,343	-14	-2,993
760,727	-22,5	-3,498
761,117	-8	-1,939
761,507	2,5	-0,124
761,903	4	-0,154
762,287	-6,5	-2,081
762,685	-22	-3,48
763,079	-16	-2,713
763,475	0	-0,733
763,883	4,5	-0,002
764,267	-3,5	-1,459
764,675	-20	-3,382
765,059	-22,5	-3,392
765,467	-3,5	-1,336
765,851	4	-0,019
766,235	0	-0,704
766,643	-12	-2,744
767,039	-22,5	-3,497
767,435	-9	-2,054
767,819	2	-0,178
768,227	4	-0,072
768,611	-6	-2,009
768,995	-22	-3,469
769,403	-18,5	-2,864
769,787	-1,5	-0,944
770,183	4,5	-0,005
770,567	-2,5	-1,166
770,963	-15	-3,146
771,359	-22,5	-3,499
771,743	-6	-1,7
772,139	3,5	-0,049
772,541	2,5	-0,478
772,925	-9	-2,403
773,321	-22,5	-3,492
773,717	-12,5	-2,388
774,113	0	-0,408
774,509	4	-2
775,342	-22	-3,47
775,727	-19,5	-2,93
776,111	-1,5	-0,935
850,206	-2,5	-1,238
850,602	4	-0,012
850,998	-1,5	-0,992
851,382	-13	-2,907
851,772	-22	-3,498
852,168	-8	-1,916
852,558	3	-0,106
852,954	4	-0,221
853,338	-7	-2,144
853,734	-22	-3,486
854,13	-15	-2,681
854,526	-0,5	-0,701
854,934	4	-0,002
855,318	-3	-1,442
855,726	-18,5	-3,376
856,11	-22	-3,354
856,494	-3,5	-1,425
856,89	4	-0,021
857,286	0,5	-0,73
857,682	-11	-2,71
858,066	-22,5	-3,496
858,474	-8,5	-2,035
858,858	2	-0,165
859,254	4	-0,125
859,644	-5,5	-2,084
860,04	-21,5	-3,48
860,436	-16	-2,752
860,82	-0,5	-0,832
861,204	4	-0,004
861,605	-2,5	-1,271
861,99	-16	-3,191
862,386	-22	-3,5
862,769	-5	-1,646
863,154	4	-0,05
863,567	3	-0,538
863,951	-9,5	-2,459
864,347	-22	-3,493
864,731	-12	-2,404
865,128	0,5	-0,424
865,523	4	-0,001
865,907	-4,5	-1,734
866,309	-21	-3,444
866,693	-21,5	-3,17
867,077	-3	-1,249
867,467	4	-0,014
867,851	-0,5	-0,794
868,235	-11,5	-2,714
868,625	-22,5	-3,496
869,015	-9,5	-2,139
869,399	1,5	-0,232
869,795	4	0
870,197	-5,5	-1,928
870,593	-21,5	-3,467
870,989	-17	-2,839
871,385	-1	-0,858
871,775	4	-0,004
872,159	-2,5	-1,153
872,555	-15	-3,133
872,939	-22,5	-3,499
873,341	-6	-1,71
873,731	3,5	-0,056
874,127	3,5	-0,386
874,511	-8	-2,311
874,895	-22	-3,488
875,303	-13,5	-2,475
875,693	0	-0,531
876,083	4	-0,002
876,467	-3	-1,401
876,851	-17,5	-3,298
877,259	-22	-3,439
877,643	-4,5	-1,494
878,063	4	-0,018
878,447	1	-0,69
878,861	-11,5	-2,765
879,245	-22,5	-3,497
879,646	-9,5	-2,1
880,042	1,5	-0,17
880,426	4	-0,037
880,84	-6,5	-2,132
881,225	-21,5	-3,479
881,608	-16	-2,77
882,016	0	-0,73
882,4	4	-0,003
882,784	-3	-1,408
883,18	-17	-3,3
883,564	-22	-3,5
883,972	-4,5	-1,54
884,356	4	-0,036
884,764	1	-0,661
885,148	-10,5	-2,582
885,532	-22	-3,494
885,928	-11	-2,334
886,324	0,5	-0,35
886,708	4	-0,001
887,128	-5,5	-1,902
887,518	-21	-3,461
887,914	-18,5	-2,921
888,298	-1,5	-1,006
888,706	4	-0,005
889,09	-2,5	-1,159
889,474	-15	-3,079
889,87	-22,5	-3,499
890,26	-6,5	-1,812
890,656	3,5	-0,068
891,04	3,5	-0,344
891,448	-9	-2,38
891,832	-22,5	-3,49
892,216	-14,5	-2,575
892,606	0	-0,625
893,038	4	-0,001
893,422	-4	-1,638
893,818	-20	-3,419
894,202	-22,5	-3,273
894,598	-3	-1,288
894,994	4	-0,014
895,378	-1	-0,838
895,786	-12,5	-2,878
896,17	-22,5	-3,498
896,554	-9	-2,071
896,944	1,5	-0,17
897,328	4	-0,023
897,711	-5,5	-1,966
898,102	-21,5	-3,468
898,485	-19,5	-2,955
898,87	-1,5	-1,034
899,278	4	-0,006
899,661	-2,5	-1,168
900,069	-16	-3,207
900,454	-22	-3,499
900,837	-5,5	-1,72
901,233	3,5	-0,053
901,629	1,5	-0,513
902,025	-9	-2,493
902,421	-22	-3,494
902,805	-13	-2,428
903,201	0,5	-0,448
903,585	4	-0,001
904,006	-4,5	-1,75
904,389	-20,5	-3,431
904,773	-21,5	-3,196
905,175	-2	-1,184
905,571	4	-0,01
905,967	-1,5	-0,98
906,351	-13	-2,895
906,735	-22	-3,498
907,143	-7	-1,849
907,527	3,5	-0,094
907,923	4	-0,225
908,319	-7	-2,203
908,703	-22	-3,484
909,099	-15	-2,655
909,495	0	-0,68
909,891	4	-0,002
910,287	-4	-1,48
910,689	-19,5	-3,379
911,073	-22	-3,389
911,457	-4	-1,454
911,859	4	-0,021
912,243	1,5	-0,641
912,639	-10	-2,622
913,041	-22	-3,496
913,425	-11	-2,274
913,821	1,5	-0,29
914,204	4	0
914,589	-5	-1,819
915,003	-21	-3,465
915,386	-18	-2,97
915,795	-1	-0,935
916,179	4	-0,006
916,562	-1,5	-1,04
916,959	-14	-3,02
917,342	-22	-3,498
917,75	-6	-1,81
918,134	3,5	-0,083
918,518	4	-0,226
918,914	-7	-2,21
919,298	-21,5	-3,484
919,707	-13,5	-2,558
920,102	0	-0,583
920,486	4	-0,002
920,906	-4,5	-1,643
921,29	-19,5	-3,403
921,686	-21,5	-3,234
922,07	-3	-1,311
922,454	4	-0,018
922,85	-0,5	-0,82
923,252	-12	-2,831
923,66	-22	-3,498
924,044	-8	-1,941
924,428	3	-0,125
924,824	4	-0,121
925,208	-6	-2,052
925,616	-22	-3,482
926	-16	-2,724
926,384	-0,5	-0,804
926,774	4	-0,003
927,17	-3	-1,309
927,578	-17	-3,313
927,962	-22	-3,5
928,346	-4,5	-1,622
928,742	4	-0,039
929,126	2	-0,482
929,51	-8,5	-2,538
929,918	-22	-3,493
930,302	-13,5	-2,475
930,714	0,5	-0,406
931,1	4	-0,001
931,484	-4	-1,645
931,892	-20,5	-3,434
932,275	-21	-3,138
932,672	-2	-1,152
933,061	4	-0,01
933,445	-1,5	-0,928
933,847	-13,5	-2,943
934,231	-22	-3,498
934,628	-7,5	-1,994
935,011	2,5	-0,15
935,407	4	-0,023
935,803	-5,5	-2,027
936,187	-21	-3,47
936,571	-18	-2,913
936,967	-1	-0,852
937,363	4	-0,005
937,759	-2,5	-1,275
938,143	-15	-3,195
938,527	-22	-3,499
938,935	-5	-1,666
939,319	3,5	-0,054
939,715	3	-0,432
940,099	-8	-2,353
940,483	-22	-3,489
940,879	-13	-2,468
941,263	0	-0,554
941,659	4	-0,001
942,055	-4	-1,606
942,439	-19	-3,392
942,835	-22	-3,31
943,231	-3	-1,324
943,615	4	-0,018
944,011	-0,5	-0,806
944,395	-11	-2,726
944,779	-22	-3,496
945,169	-9,5	-2,178
945,559	1,5	-0,235
945,955	4	0
946,339	-5	-1,867
946,723	-20,5	-3,452
947,131	-18,5	-2,968
947,515	-1,5	-1,048
947,899	4,5	-0,008
948,295	-2	-1,083
948,679	-13,5	-3,003
949,075	-22	-3,499
949,471	-6	-1,784
949,854	3,5	-0,076
950,238	4	-0,214
950,647	-7,5	-2,258
951,03	-22	-3,486
951,462	-13	-2,436
951,858	0,5	-0,45
952,254	4	-0,001
952,638	-4	-1,746
953,046	-20,5	-3,442
953,43	-21	-3,166
953,832	-2	-1,15
954,216	4,5	-0,011
954,6	-0,5	-0,874
955,008	-13	-2,914
955,44	-22	-3,499
955,824	-5,5	-1,795
956,208	3,5	-0,08
956,604	3,5	-0,296
956,988	-7,5	-2,218
957,384	-22	-3,489
957,804	-12,5	-2,508
958,2	0	-0,532
958,584	4	-0,002
958,98	-4	-1,61
959,364	-19,5	-3,393
959,748	-22	-3,432
960,15	-3	-1,394
1144,046	0,5	-0,438
1144,43	4	-0,001
1144,813	-3,5	-1,602
1145,221	-19	-3,424
1145,605	-21	-3,14
1145,989	-3	-1,224
1146,373	4	-0,011
1146,769	0	-0,872
1147,153	-11	-2,796
1147,561	-21,5	-3,498
1147,945	-8,5	-2,038
1148,329	1,5	-0,169
1148,726	4	-0,066
1149,121	-5,5	-2,068
1149,512	-21	-3,482
1149,913	-15,5	-2,762
1150,297	-0,5	-0,842
1150,699	4	-0,003
1151,083	-2,5	-1,293
1151,467	-14,5	-3,207
1151,851	-21,5	-3,499
1152,253	-4,5	-1,599
1152,637	3,5	-0,043
1153,033	1,5	-0,569
1153,423	-8,5	-2,519
1153,807	-21,5	-3,493
1154,203	-12,5	-2,349
1154,587	0,5	-0,429
1154,971	4	-0,001
1155,379	-4	-1,752
1155,763	-19,5	-3,431
1156,147	-21	-3,179
1156,537	-2,5	-1,227
1156,921	4	-0,014
1157,305	0	-0,834
1157,701	-10,5	-2,814
1158,091	-21	-3,497
1158,475	-8	-2,079
1158,871	2,5	-0,16
1159,26	4	-0,042
1159,644	-5	-1,986
1160,034	-20,5	-3,469
1160,43	-16	-2,848
1160,814	-1	-0,929
1161,205	4	-0,004
1161,638	-2,5	-1,372
1162,02	-15	-3,276
1162,404	-21	-3,5
1162,812	-3,5	-1,47
1163,196	4	-0,028
1163,586	1,5	-0,675
1163,982	-9,5	-2,655
1164,372	-21	-3,496
1164,768	-10	-2,184
1165,152	1,5	-0,267
1165,536	4	-0,001
1165,938	-5	-1,929
1166,322	-20	-3,46
1166,706	-19	-2,947
1167,09	-1,5	-0,961
1167,486	4	-0,006
1167,882	-2	-1,138
1168,296	-15	-3,208
1168,68	-21,5	-3,499
1169,076	-5	-1,66
1169,472	3,5	-0,043
1169,868	3	-0,52
1170,252	-8,5	-2,501
1170,648	-21	-3,493
1171,032	-11	-2,354
1171,428	0,5	-0,374
1171,812	4	-0,001
1172,196	-4	-1,65
1172,61	-19,5	-3,441
1172,994	-20,5	-3,119
1173,378	-2	-1,198
1173,774	4	-0,01
1174,158	-0,5	-0,875
1174,542	-10,5	-2,795
1174,95	-21,5	-3,498
1175,334	-8	-2,024
1175,718	1,5	-0,162
1176,114	4	-0,072
1176,51	-6	-2,076
1176,894	-20,5	-3,474
1177,29	-15	-2,744
1177,673	-0,5	-0,824
1178,076	4,5	-0,003
1178,471	-3	-1,366
1179,311	-20,5	-3,151
1179,707	-3,5	-1,17
1180,103	4	-0,01
1180,487	-0,5	-0,945
1180,883	-12	-2,925
3144,781	4	-0,005
3145,165	-0,5	-1,235
3145,549	-4,5	-3,156
3145,945	-9	-3,499
3146,329	-0,5	-1,768
3146,713	3	-0,073
3147,097	4	-0,335
3147,481	-1,5	-2,256
3147,871	-9	-3,487
3148,255	-3,5	-2,664
3148,639	1	-0,739
3149,023	4	-0,002
3149,419	-0,5	-1,484
3149,803	-5,5	-3,342
3150,187	-8,5	-3,476
3150,58	0	-1,5
3150,961	3,5	-0,032
3151,345	1,5	-0,625
3151,729	-2,5	-2,545
3152,113	-9	-3,494
3152,509	-2	-2,361
3152,893	1,5	-0,441
3153,277	4	-0,001
3153,66	-0,5	-1,678
3154,051	-7,5	-3,421
3154,434	-9	-3,307
3154,819	0	-1,38
3155,202	4	-0,022
3155,593	0,5	-0,795
3155,976	-2,5	-2,711
3156,36	-9	-3,496
3156,744	-1,5	-2,234
3157,134	1,5	-0,285
3157,518	4	0
3157,902	-1	-1,872
3158,286	-8	-3,452
3158,682	-7,5	-3,003
3159,066	0,5	-1,078
3159,45	4	-0,009
3159,834	0	-1,037
3160,23	-4	-3,017
3160,614	-9	-3,499
3160,998	-0,5	-1,906
3161,382	2,5	-0,112
3161,772	4	-0,207
3162,156	-1,5	-2,131
3162,54	-8,5	-3,479
3162,924	-4,5	-2,845
3163,314	0,5	-0,895
3163,704	4	-0,004
3164,088	-0,5	-1,248
3164,472	-4,5	-3,173
3164,868	-9	-3,499
3165,252	-0,5	-1,78
3165,642	3	-0,069
3165,93	4	0