File: Cycling_tests/_20perc/_3gap/entrada/_4.txt
Time (s)	Load (N)	Displacement (mm)
0	1	-0,04
1,662	-4,5	-0,492
3,366	-24,5	-2,638
5,1	-31,5	-3,492
6,84	-15,5	-2,337
8,489	2,5	-0,027
10,188	0	-0,232
11,88	-20,5	-2,316
13,522	-30	-3,483
15,281	-15	-2,261
16,997	2,5	-0,324
18,761	2	-0,039
20,477	-13	-1,656
22,198	-30	-3,499
24,298	-29,5	-3,499
25,939	-19	-2,791
27,599	0,5	-0,563
29,255	1,5	-0,103
30,953	-17	-2,133
32,572	-29	-3,489
34,246	-11,5	-1,991
35,926	3,5	-0,001
37,654	-2	-0,533
39,339	-22,5	-2,65
40,99	-28	-3,467
42,775	-13	-2,251
44,404	3,5	-0,001
46,029	-4,5	-0,913
47,595	-28,5	-3,499
49,215	-16,5	-2,68
50,847	3	-0,4
53,043	0	-0,71
54,645	0,5	-0,193
56,271	-21,5	-2,622
57,915	-26,5	-3,473
59,535	-6	-1,365
61,113	3	-0,032
62,714	-18	-2,029
64,4	-28	-3,496
65,996	-10,5	-2,086
67,641	3,5	-0,001
69,266	-4	-0,889
70,916	-28	-3,209
72,47	-16,5	-2,797
74,087	3,5	-0,203
75,685	-2	-0,653
77,257	-28	-3,5
78,829	-15	-2,558
80,389	3,5	-0,001
81,944	-6	-1,235
83,965	-11	-1,743
207,564	-4	-1,332
209,556	1	-0,619
211,128	0	-0,391
212,664	-25,5	-3,302
214,224	-13,5	-2,688
215,808	3,5	0
217,325	-5,5	-1,257
218,879	-25,5	-3,498
220,457	-8,5	-2,061
222,011	4	-0,005
223,535	-12	-1,989
225,119	-25	-3,485
226,667	-4,5	-1,34
228,209	3	-0,067
229,751	-19,5	-2,648
231,299	-19,5	-3,24
232,84	3,5	-0,363
234,478	0	-0,322
235,984	-25	-3,383
237,502	-11,5	-2,462
239,074	4	-0,001
240,587	-8	-1,596
242,14	-25	-2,144
244,126	-24	-3,454
245,692	-2,5	-1,007
247,24	1,5	-0,123
248,824	-20	-2,714
250,395	-21	-3,35
251,961	1,5	-0,628
253,52	0	-0,389
255,081	-24,5	-3,182
256,623	-14	-2,731
258,159	4	-0,001
259,755	-3	-1,005
261,303	-25	-3,499
262,845	-7,5	-2,123
264,393	4	-0,006
265,941	-10,5	-1,841
267,495	-24,5	-3,486
269,096	-5,5	-1,673
270,662	4	-0,016
272,168	-15	-2,35
273,693	-22	-3,403
275,684	-15,5	-2,95
277,25	4	-0,159
278,827	-2	-0,854
280,346	-24,5	-3,499
281,906	-9,5	-2,237
283,406	4	-0,007
284,968	-9,5	-1,855
286,477	-24	-3,47
288,037	-3,5	-1,234
289,531	1	-0,234
291,067	-24	-3,133
292,579	-13,5	-2,753
294,139	4	0
295,633	-6	-1,473
297,133	-24,5	-3,489
298,669	-4,5	-1,35
300,205	3	-0,068
301,728	-19,5	-2,806
303,258	-16,5	-3,038
304,782	4	-0,085
306,318	-3,5	-1,128
307,83	-24,5	-3,496
309,414	-7	-1,942
311,382	-3	-1,264
312,918	2,5	-0,097
314,436	-22	-2,746
315,96	-16	-3,118
317,466	4	0
319,02	-4,5	-1,186
320,549	-24,5	-3,497
322,085	-6,5	-1,812
323,603	4	-0,019
325,139	-14,5	-2,288
326,652	-22	-3,415
366,585	-12,5	-2,702
368,079	4	-0,001
369,567	-7,5	-1,712
371,013	-23	-3,456
372,513	0	-0,723
374,061	0,5	-0,354
375,602	-23,5	-3,177
377,108	-12	-2,613
378,614	4	-0,002
380,102	-8,5	-1,792
381,615	-23,5	-3,479
383,114	-2	-1,021
384,626	1	-0,258
386,132	-24	-3,332
387,626	-10,5	-2,406
389,107	4	-0,006
390,619	-9,5	-1,948
392,191	-24	-3,488
393,667	-2	-0,998
395,185	1	-0,284
396,673	-24	-3,433
398,155	-8,5	-2,252
399,697	4	-0,003
401,203	-8,5	-1,835
402,697	-23	-3,466
442,049	4	-0,008
443,584	-10	-1,968
445,048	-21	-3,413
446,53	3,5	-0,312
448,085	-0,5	-0,69
449,548	-23,5	-3,498
451,018	-5	-1,741
452,524	3,5	-0,044
454,048	-17	-2,652
455,554	-16	-3,098
457,03	4	0
458,506	-5,5	-1,468
460,006	-23,5	-3,487
461,487	-2,5	-1,062
462,999	1	-0,313
464,518	-23,5	-3,377
465,975	-8	-2,14
467,451	4	-0,014
468,988	-12	-2,186
470,463	-19,5	-3,355
471,957	3,5	-0,277
473,385	-4,5	-1,394
474,897	-23,5	-3,492
476,366	-2,5	-1,079
477,824	0	-0,466
479,312	-23,5	-3,499
480,8	-7,5	-2,068
482,252	4	-0,023
483,722	-18	-2,756
485,21	-14,5	-2,948
486,68	4	-0,001
488,162	-6,5	-1,685
489,602	-22,5	-3,462
491,096	0	-0,761
492,548	-1	-0,775
493,988	-23,5	-3,496
495,463	-4	-1,468
496,928	2,5	-0,114
498,397	-23	-3,257
499,873	-10	-2,353
501,337	4	-0,008
502,825	-12,5	-2,283
504,308	-17	-3,322
505,771	4	-0,011
507,253	-4	-1,409
508,717	-23	-3,489
510,169	-0,5	-0,876
511,633	0	-0,628
513,079	-23	-3,498
514,555	-5	-1,636
516,006	2	-0,126
554,986	-6,5	-2,041
556,42	4	-0,046
557,878	-22,5	-3,078
559,336	-10	-2,44
560,776	4	-0,009
562,234	-15	-2,558
563,686	-14,5	-2,961
565,149	4	-0,001
566,625	-7	-1,708
568,059	-21,5	-3,438
569,511	3,5	-0,318
570,963	-3,5	-1,312
572,415	-23	-3,487
573,868	-1,5	-0,898
575,331	0	-0,588
576,777	-23	-3,498
578,277	-5,5	-1,762
579,723	3	-0,083
581,181	-22,5	-3,181
582,62	-9,5	-2,35
584,072	4	-0,014
585,524	-16	-2,603
586,97	-14,5	-2,887
588,446	4	-0,001
589,898	-8	-1,892
591,35	-21,5	-3,425
592,802	3,5	-0,327
594,248	-3	-1,301
595,724	-22,5	-3,491
597,176	-2	-0,986
598,616	-0,5	-0,695
600,079	-23	-3,498
601,549	-4,5	-1,622
603,001	3	-0,101
604,447	-22,5	-3,295
605,905	-9	-2,366
607,369	4	-0,014
608,815	-16,5	-2,664
610,303	-15	-3,015
611,743	4,5	-0,001
613,183	-9	-1,935
614,617	-20	-3,381
616,069	4	-0,168
617,509	-4,5	-1,485
618,972	-22,5	-3,482
620,442	-0,5	-0,832
621,882	-1,5	-0,844
623,352	-22,5	-3,498
624,798	-3,5	-1,383
626,25	1,5	-0,23
627,727	-22,5	-3,439
629,19	-8	-2,173
630,666	4	-0,014
632,13	-15	-2,582
633,582	-13,5	-2,873
635,016	4	-0,002
636,497	-10,5	-2,072
637,967	-20,5	-3,41
639,413	4	-0,181
640,865	-4	-1,34
642,299	-22	-3,482
643,751	0,5	-0,749
645,197	-2	-0,955
646,655	-22,5	-3,496
648,107	-2,5	-1,348
649,565	1	-0,259
650,999	-22,5	-3,5
652,45	-5	-1,862
653,908	3,5	-0,046
655,372	-21	-3,038
656,818	-9,5	-2,488
658,27	4	-0,008
659,716	-15,5	-2,551
661,18	-14	-3,022
662,632	4	-0,001
664,114	-8,5	-1,885
702,566	-2,5	-1,067
704,042	-22,5	-3,495
705,481	-2,5	-1,224
706,933	0,5	-0,445
708,361	-22,5	-3,499
709,813	-4	-1,624
711,253	2	-0,148
712,699	-22	-3,475
714,154	-5,5	-2,036
715,597	4	-0,039
717,049	-20,5	-3,004
718,501	-9,5	-2,511
719,941	4	-0,01
721,392	-15	-2,528
722,826	-12,5	-2,89
724,278	4,5	-0,002
725,724	-9	-2,016
727,176	-18,5	-3,386
728,616	4,5	-0,048
730,068	-5	-1,54
731,55	-22	-3,484
732,978	1	-0,608
734,43	-2	-1,028
735,912	-22	-3,496
737,364	-3	-1,315
738,816	1	-0,254
740,28	-22	-3,5
741,719	-4,5	-1,851
743,183	3,5	-0,05
744,623	-21,5	-3,14
746,075	-8	-2,391
747,533	4,5	-0,009
748,967	-15	-2,588
750,419	-13	-2,909
751,871	4	-0,002
753,323	-9,5	-2,111
754,787	-18	-3,347
756,221	4,5	0
757,684	-5,5	-1,658
759,118	-20,5	-3,445
760,558	4	-0,305
761,998	-3	-1,338
763,45	-22	-3,486
764,902	-0,5	-0,898
766,342	-0,5	-0,756
767,8	-22	-3,498
769,24	-3	-1,419
770,692	1,5	-0,22
772,144	-22	-3,5
773,602	-5,5	-1,968
775,03	3,5	-0,045
887,043	4,5	-0,008
888,496	-12,5	-2,423
889,935	-13,5	-3,005
891,399	4,5	-0,001
892,839	-6,5	-1,819
894,303	-20	-3,444
895,743	4	-0,336
897,188	-2,5	-1,239
898,628	-21,5	-3,487
900,08	-0,5	-0,912
901,514	0	-0,694
902,978	-21,5	-3,498
904,43	-3,5	-1,544
905,894	3,5	-0,082
907,354	-21	-3,176
908,786	-7,5	-2,297
910,238	4,5	-0,012
911,738	-12	-2,354
913,172	-14,5	-3,088
914,612	4	-0,001
916,057	-7,5	-1,915
917,539	-20,5	-3,452
918,979	4	-0,346
920,425	-2,5	-1,261
921,871	-21,5	-3,489
923,311	-1,5	-0,99
924,763	0	-0,524
926,221	-21,5	-3,499
927,661	-4	-1,641
929,143	4	-0,052
930,595	-20	-3,082
932,029	-8	-2,315
933,48	4	-0,015
934,908	-14,5	-2,64
936,354	-12	-2,855
937,8	4,5	-0,003
939,246	-9,5	-2,199
940,674	-15	-3,21
942,138	4,5	0
943,59	-4,5	-1,575
945,03	-21	-3,465
946,47	2,5	-0,493
947,922	-2	-1,095
949,367	-21,5	-3,493
950,819	-1,5	-1,111
952,247	0,5	-0,55
953,711	-21	-3,499
955,169	-4	-1,701
956,603	3,5	-0,08
958,055	-21	-3,193
959,507	-7,5	-2,328
1145,016	-17,5	-3,374
1146,456	4	-0,098
1147,89	-4,5	-1,588
1149,33	-20	-3,465
1150,794	1	-0,68
1152,24	-1,5	-0,982
1153,668	-21	-3,494
1155,102	-1,5	-1,056
1156,554	0,5	-0,48
1158	-21	-3,499
1159,445	-3,5	-1,733
1160,885	3	-0,085
1162,319	-20,5	-3,239
1163,759	-6	-2,244
1165,265	4,5	-0,007
1166,711	-11,5	-2,434
1168,157	-13,5	-3,09
1169,609	4,5	-0,001
1171,037	-7	-1,866
1172,471	-18	-3,397
1173,893	4,5	-0,078
1175,333	-4	-1,528
1176,772	-20	-3,469
1178,212	2,5	-0,557
1179,646	-1,5	-1,101
1181,086	-20,5	-3,493
1182,514	-1	-1,045
1183,954	0	-0,61
1185,4	-21	-3,498
1186,846	-3	-1,606
1188,274	2	-0,16
1189,714	-20,5	-3,402
1191,166	-5,5	-2,146
1192,606	4	-0,026
1194,039	-17,5	-2,892
1195,473	-8,5	-2,563
1196,913	4,5	-0,006
1198,353	-11	-2,375
1199,781	-12,5	-3,051
1201,221	4,5	-0,001
1202,667	-7	-1,948
1204,107	-17,5	-3,381
1205,535	4,5	-0,018
1206,993	-4	-1,51
1208,475	-20,5	-3,485
1209,921	0	-0,815
1211,343	-1	-0,851
1212,782	-20,5	-3,495
1214,246	-3	-1,38
1215,686	2	-0,194
1217,114	-20,5	-3,499
1218,542	-4,5	-1,871
1219,994	4	-0,038
1221,452	-16	-2,816
1222,904	-9,5	-2,713
1224,338	4,5	-0,003
1225,766	-9	-2,15
1227,206	-16	-3,301
1228,652	4,5	-0,015
1230,085	-4	-1,572
1231,525	-20	-3,469
1232,965	1	-0,656
1234,405	-1	-0,956
1235,833	-20,5	-3,494
1237,273	-2	-1,175
1238,719	0,5	-0,386
1240,159	-20,5	-3,499
1241,605	-4,5	-1,808
1243,033	3,5	-0,073
1244,479	-20	-3,136
1245,918	-7,5	-2,4
1247,347	4,5	-0,013
1248,786	-14	-2,674
1250,232	-10,5	-2,806
1251,666	4,5	-0,003
1253,094	-10,5	-2,303
1254,546	-15	-3,254
1255,986	4,5	0
1257,414	-5,5	-1,741
1258,902	-19,5	-3,473
1260,33	1,5	-0,63
1261,77	-1	-0,966
1263,216	-20,5	-3,494
1264,68	-2	-1,332
1266,126	1,5	-0,247
1267,553	-20,5	-3,499
1268,981	-4	-1,81
1270,409	3,5	-0,071
1271,831	-20,5	-3,223
1273,265	-6	-2,241
1274,687	4,5	-0,018
1276,127	-14,5	-2,708
1277,585	-11	-2,825
1279,043	4,5	-0,002
1280,471	-7,5	-2,047
1281,904	-16	-3,32
1283,344	4,5	-0,027
1284,784	-3,5	-1,524
1286,224	-20	-3,474
1287,664	1	-0,671
1289,122	-0,5	-0,91
1290,562	-20,5	-3,495
1730,835	4,5	-0,018
1732,257	-14,5	-2,779
1733,685	-8,5	-2,668
1735,113	4,5	-0,006
1736,54	-9,5	-2,333
1737,992	-13,5	-3,246
1739,432	4,5	-0,001
1740,884	-3	-1,479
1742,324	-19	-3,476
1743,77	1,5	-0,682
1745,192	-1,5	-1,056
1746,614	-19,5	-3,492
1748,036	-0,5	-1,05
1749,488	0,5	-0,507
1750,922	-19,5	-3,499
1752,362	-3,5	-1,744
1753,777	3	-0,1
1755,205	-19,5	-3,316
1756,646	-5	-2,181
1758,061	4	-0,022
1759,501	-14,5	-2,751
1760,923	-8,5	-2,671
1762,345	4,5	-0,006
1763,761	-10,5	-2,405
1765,183	-11	-2,994
1766,653	4,5	-0,001
1768,087	-5,5	-1,837
1769,515	-17,5	-3,424
1770,942	4,5	-0,274
1772,388	-2,5	-1,295
1773,816	-19,5	-3,484
1775,262	-0,5	-0,912
1776,69	0	-0,764
1778,118	-19,5	-3,496
1779,546	-1,5	-1,292
1780,968	1	-0,364
1782,39	-19,5	-3,499
1783,812	-3,5	-1,716
1785,24	3	-0,087
1786,668	-19,5	-3,305
1788,096	-5,5	-2,195
1789,523	4	-0,026
1790,957	-15	-2,812
1792,398	-9	-2,716
1793,825	4,5	-0,004
1795,247	-10	-2,319
1796,669	-13	-3,096
1798,097	4,5	-0,001
1799,519	-6,5	-1,997
1800,947	-15	-3,354
1802,369	4,5	-0,066
1803,791	-3	-1,558
1805,213	-19	-3,467
1806,64	2	-0,568
1808,063	-1,5	-1,113
1809,502	-19,5	-3,49
1810,924	-1	-1
1812,352	0	-0,646
1813,78	-19,5	-3,498
1815,202	-2,5	-1,426
1816,624	1,5	-0,287
1818,058	-19,5	-3,5
1819,486	-3,5	-1,862
1820,908	3,5	-0,067
1822,336	-19,5	-3,284
1823,764	-5,5	-2,22
1825,192	4,5	-0,019
1826,613	-14	-2,788
1828,041	-8,5	-2,69
1829,463	4,5	-0,007
1830,891	-10	-2,424
1832,349	-13,5	-3,198
1833,777	4,5	-0,001
1835,205	-5	-1,808
1836,627	-17,5	-3,42
1838,055	4	-0,344
1839,507	-1	-1,148
1840,935	-19	-3,49
1842,363	-0,5	-0,97
1843,79	0	-0,66
1845,212	-19,5	-3,497
1846,634	-2	-1,405
1848,056	1,5	-0,288
1849,478	-19,5	-3,499
1850,906	-3,5	-1,78
1852,334	3,5	-0,085
1853,756	-19	-3,192
1855,178	-5,5	-2,241
1856,606	4,5	-0,017
1858,034	-13,5	-2,738
1859,462	-8,5	-2,692
1860,889	4,5	-0,006
1862,323	-10	-2,373
1863,751	-12,5	-3,09
1865,179	4,5	-0,001
1866,607	-6	-2,043
1868,029	-15,5	-3,346
1869,457	4	-0,042
1870,879	-4	-1,625
1872,301	-18	-3,448
1873,723	4	-0,424
1875,151	-1,5	-1,233
1876,579	-19	-3,488
1878	0	-0,845
1879,428	0	-0,816
1880,856	-19	-3,496
1882,278	-1,5	-1,22
1883,7	0,5	-0,498
1885,128	-19,5	-3,498
1886,55	-3	-1,563
1887,978	1,5	-0,151
1889,406	-19,5	-3,497
1890,828	-4,5	-1,937
1892,25	4	-0,05
1893,689	-17,5	-3,075
1895,117	-6	-2,335
1896,545	4,5	-0,015
1897,973	-13,5	-2,745
1899,395	-9	-2,736
1900,817	4,5	-0,004
1902,245	-8,5	-2,3
1903,673	-12,5	-3,141
1905,095	4,5	-0,001
1906,517	-6	-1,994
1907,945	-16	-3,371
1909,367	4,5	-0,175
1910,795	-3	-1,508
1912,216	-18,5	-3,466
1913,644	1,5	-0,575
1915,066	-1	-1,11
1916,495	-19	-3,49
1917,922	-0,5	-0,928
1919,344	0	-0,71
1920,772	-19	-3,497
1922,2	-1,5	-1,34
1923,628	1,5	-0,29
1925,05	-19,5	-3,499
1926,472	-3,5	-1,8
1927,9	3,5	-0,07
1929,321	-18	-3,14
1930,749	-5,5	-2,281
1932,177	4,5	-0,017
1933,605	-13,5	-2,794
1935,045	-9	-2,718
1936,467	4,5	-0,006
1937,889	-10	-2,443
1939,317	-11	-2,998
1940,763	4,5	-0,001
1942,191	-5	-1,831
1943,613	-17	-3,418
1945,035	4	-0,31
1946,462	-1,5	-1,307
1947,885	-19	-3,483
1949,306	0	-0,752
1950,728	0	-0,886
1952,15	-19	-3,495
1953,578	-1,5	-1,171
1955,012	1	-0,488
1956,434	-19	-3,499
1957,862	-3	-1,617
1959,29	3	-0,114
1960,718	-19	-3,407
1962,146	-4	-2,032
1963,622	4,5	-0,017
1965,08	-11	-2,579
1966,507	-10	-2,868
1967,972	4,5	-0,001
1969,393	-6,5	-2,056
1970,821	-15	-3,332
1972,243	4,5	-0,009
1973,695	-3	-1,462
1975,123	-18,5	-3,473
1976,557	2,5	-0,686
1977,985	0	-0,948
1979,413	-19	-3,493
1980,841	-1,5	-1,192
1982,269	1	-0,416
1983,696	-19	-3,499
1985,118	-3	-1,746
1986,558	4	-0,063
1987,986	-17	-3,082
1989,414	-6,5	-2,428
1990,836	4,5	-0,011
1992,258	-10,5	-2,551
1993,686	-11	-2,943
1995,108	4,5	-0,002
1996,536	-7,5	-2,114
1997,97	-15	-3,36
1999,404	4,5	-0,187
2000,832	-2,5	-1,421
2002,253	-18,5	-3,474
2003,693	1,5	-0,647
2005,121	-0,5	-0,976
2006,549	-19	-3,493
2007,977	-1,5	-1,09
2009,405	0,5	-0,546
2010,827	-19	-3,498
2012,255	-2,5	-1,559
2013,683	2,5	-0,153
2015,111	-19	-3,462
2016,538	-4,5	-2,042
2017,967	4	-0,04
2019,394	-16,5	-2,974
2020,816	-7	-2,432
2022,25	4,5	-0,01
2023,672	-11	-2,54
2025,112	-10,5	-2,976
2026,54	4,5	-0,002
2027,962	-5,5	-1,991
2029,384	-15	-3,351
2030,824	4,5	-0,247
2032,252	-2,5	-1,429
2033,686	-18,5	-3,48
2035,131	0	-0,858
2036,565	0	-0,763
2037,993	-19	-3,497
2039,415	-2	-1,363
2040,837	1,5	-0,334
2042,259	-19	-3,499
2043,685	-3	-1,728
2045,103	3	-0,123
2046,525	-19	-3,36
2047,953	-5	-2,122
2049,381	4	-0,033
2050,803	-16	-2,989
2052,253	-8,5	-2,648
2053,676	4,5	-0,007
2055,092	-10	-2,405
2056,514	-12	-3,022
2057,942	4,5	-0,002
2059,37	-5,5	-1,966
2060,804	-15,5	-3,383
2062,22	4,5	-0,091
2063,642	-3	-1,585
2065,07	-18	-3,468
2066,492	2,5	-0,582
2067,914	0	-1,018
2069,335	-18,5	-3,493
2070,757	-1,5	-1,157
2072,185	1	-0,435
2073,619	-18,5	-3,499
2075,041	-3,5	-1,806
2076,463	3,5	-0,08
2077,885	-18,5	-3,247
2079,313	-5,5	-2,198
2080,735	4,5	-0,02
2082,181	-11,5	-2,631
2083,603	-9,5	-2,817
2085,025	4,5	-0,004
2086,446	-7,5	-2,22
2087,869	-12,5	-3,18
2089,308	4,5	0
2090,736	-3,5	-1,749
2092,164	-16	-3,452
2093,592	2	-0,49
2095,02	-0,5	-1,071
2096,466	-18,5	-3,493
2097,894	-1,5	-1,144
2099,322	1	-0,49
2100,75	-18,5	-3,498
2102,178	-3	-1,65
2103,606	3	-0,117
2105,051	-18	-3,247
2106,473	-5	-2,188
2107,925	4,5	-0,013
2109,347	-11	-2,594
2110,793	-10	-2,949
2112,221	4,5	-0,002
2113,643	-6	-2,03
2115,071	-14	-3,336
2116,499	4,5	-0,065
2117,927	-3,5	-1,508
2119,349	-18	-3,471
2120,777	2	-0,639
2122,21	0	-0,913
2123,639	-18,5	-3,494
2125,078	-1,5	-1,377
2126,506	1,5	-0,248
2127,934	-18,5	-3,5
2129,356	-3,5	-1,896
2130,778	4	-0,056
2132,206	-18	-3,125
2133,634	-5,5	-2,343
2135,062	4,5	-0,014
2136,484	-12,5	-2,681
2137,906	-7,5	-2,73
2139,333	4,5	-0,005
2140,762	-8,5	-2,313
2142,183	-10,5	-3,109
2143,605	4,5	-0,002
2145,028	-5,5	-2,063
2146,449	-13,5	-3,334
2147,871	4,5	-0,002
2149,293	-3	-1,69
2150,721	-16,5	-3,453
2152,143	4,5	-0,371
2153,571	-1,5	-1,363
2154,999	-17,5	-3,484
2156,426	0	-0,808
2157,854	0	-0,916
2159,277	-18	-3,494
2160,698	-1	-1,205
2162,126	1	-0,467
2163,548	-18	-3,498
2164,976	-2,5	-1,622
2166,404	2	-0,151
2167,832	-18	-3,456
2169,266	-4	-2,046
2170,7	4	-0,038
2172,14	-15	-2,908
2173,573	-6,5	-2,558
2175,001	4,5	-0,008
2176,423	-10,5	-2,514
2177,845	-9	-2,876
2179,273	4,5	-0,002
2180,701	-7	-2,182
2182,123	-11,5	-3,254
2183,545	4,5	-0,001
2184,967	-3,5	-1,794
2186,389	-16	-3,435
2187,805	4,5	-0,22
2189,233	-2	-1,485
2190,655	-17	-3,468
2192,082	2,5	-0,613
2193,51	-0,5	-1,085
2194,938	-17,5	-3,492
2196,36	0	-0,956
2197,782	0	-0,745
2199,21	-17,5	-3,497
2200,632	-1,5	-1,326
2202,054	1,5	-0,407
2203,482	-18	-3,499
2204,91	-2,5	-1,675
2206,338	2,5	-0,128
2207,76	-17,5	-3,365
2209,188	-4	-2,107
2210,616	4	-0,032
2212,037	-15,5	-2,966
2213,459	-5,5	-2,446
2214,887	4,5	-0,011
2216,309	-11	-2,568
2217,731	-9	-2,88
2219,153	4,5	-0,004
2220,581	-8,5	-2,32
2222,021	-11	-3,206
2223,443	4,5	-0,001
2224,859	-5	-1,94
2226,305	-15,5	-3,414
2227,757	4,5	-0,3
2229,184	-1,5	-1,38
2230,612	-17,5	-3,479
2232,034	2	-0,623
2233,457	-1	-1,083
2234,896	-17,5	-3,494
2236,336	-1	-1,144
2237,764	1	-0,543
2239,192	-17,5	-3,498
2240,62	-2	-1,49
2242,042	2	-0,205
2243,488	-17,5	-3,426
2244,915	-4	-2,051
2246,349	4,5	-0,034
2247,771	-15,5	-3,024
2249,217	-6	-2,506
2250,651	4,5	-0,01
2252,101	-8,5	-2,414
2253,549	-10,5	-3,081
2255,013	4,5	-0,001
2256,435	-4	-1,774
2257,857	-15	-3,419
2259,279	4,5	-0,325
2260,701	-1,5	-1,38
2262,123	-17	-3,478
2263,556	1,5	-0,701
2265,008	0	-0,878
2266,436	-17,5	-3,496
2267,864	-1,5	-1,242
2269,292	1	-0,447
2270,714	-17,5	-3,499
2272,136	-2,5	-1,58
2273,564	2,5	-0,153
2274,992	-17,5	-3,479
2276,42	-3,5	-1,968
2277,848	4	-0,048
2279,269	-17,5	-3,205
2280,697	-4,5	-2,252
2282,125	4,5	-0,018
2283,547	-12,5	-2,779
2284,969	-7,5	-2,66
2286,385	4,5	-0,006
2287,813	-9,5	-2,48
2289,229	-9	-2,874
2290,657	4,5	-0,003
2292,079	-6,5	-2,268
2293,507	-11	-3,173
2294,935	4,5	-0,001
2296,356	-5	-1,946
2297,784	-14,5	-3,385
2299,23	4,5	-0,243
2300,658	-1,5	-1,452
2302,086	-17	-3,472
2303,508	3	-0,523
2304,93	-0,5	-1,15
2306,352	-17	-3,488
2307,78	0	-0,805
2309,208	0	-0,835
2310,63	-17	-3,495
2312,058	-1	-1,189
2313,486	1,5	-0,435
2314,913	-17	-3,499
2316,336	-2	-1,632
2317,763	3	-0,135
2319,191	-16,5	-3,45
2320,619	-3,5	-2,01
2322,041	4	-0,055
2323,469	-16,5	-3,16
2324,885	-4,5	-2,239
2326,307	4,5	-0,02
2327,735	-13,5	-2,845
2329,163	-6,5	-2,591
2330,585	4,5	-0,008
2332,019	-7,5	-2,425
2333,446	-9,5	-2,991
2334,874	4,5	-0,002
2336,302	-4,5	-1,973
2337,73	-14	-3,382
2339,152	4,5	-0,003
2340,574	-3	-1,719
2342,002	-15,5	-3,442
2343,424	4,5	-0,265
2344,858	-1,5	-1,379
2346,286	-16,5	-3,476
2347,714	3	-0,564
2349,136	-0,5	-1,169
2350,563	-16,5	-3,49
2351,991	-0,5	-0,949
2353,413	0	-0,775
2354,841	-17	-3,497
2356,269	-1,5	-1,382
2357,709	2	-0,2
2359,131	-17	-3,499
2360,553	-3	-1,817
2361,981	3,5	-0,064
2363,397	-16,5	-3,206
2364,825	-4,5	-2,22
2366,253	4,5	-0,018
2367,693	-11	-2,607
2369,121	-7,5	-2,747
2370,548	4,5	-0,004
2371,976	-6	-2,23
2373,404	-11	-3,234
2374,826	4,5	-0,001
2376,254	-3	-1,846
2377,682	-14,5	-3,41
2379,104	4,5	-0,179
2380,532	-1,5	-1,419
2381,954	-16	-3,478
2383,382	2	-0,632
2384,81	0	-1,009
2386,262	-16,5	-3,495
2387,701	-1	-1,227
2389,129	1	-0,408
2390,557	-16,5	-3,499
2391,985	-2,5	-1,764
2393,413	4	-0,069
2394,841	-15,5	-3,131
2396,269	-4,5	-2,307
2397,697	4,5	-0,018
2399,125	-10	-2,624
2400,565	-7,5	-2,876
2401,987	4,5	-0,002
2403,426	-5	-2,045
2404,89	-15	-3,409
2406,318	4,5	-0,171
2407,74	-1,5	-1,48
2409,162	-16,5	-3,471
2410,59	1,5	-0,645
2412,018	0	-1,022
2413,452	-16,5	-3,494
2414,874	-1	-1,118
2416,296	1	-0,552
2417,712	-16,5	-3,498
2419,134	-2	-1,45
2420,561	1,5	-0,243
2421,983	-16,5	-3,5
2423,411	-3	-1,851
2424,839	4	-0,06
2426,267	-15	-3,06
2427,701	-5,5	-2,422
2429,129	4,5	-0,01
2430,551	-8	-2,484
2431,973	-9	-2,942
2433,413	4,5	-0,002
2434,841	-5	-2,05
2436,269	-14	-3,363
2437,732	4,5	-0,305
2439,166	-1	-1,336
2440,6	-16	-3,485
2442,022	0	-0,884
2443,444	0	-0,781
2444,89	-16	-3,497
2446,318	-2	-1,47
2447,746	2	-0,202
2449,186	-16	-3,45
2450,614	-3,5	-2,013
2452,042	4	-0,036
2453,469	-13,5	-3,019
2454,903	-5	-2,431
2456,331	4,5	-0,012
2457,753	-9	-2,598
2459,181	-8	-2,896
2460,609	4,5	-0,002
2462,043	-3,5	-1,924
2463,471	-13,5	-3,387
2464,899	4,5	-0,154
2466,321	-1,5	-1,508
2467,743	-15	-3,471
2469,159	2,5	-0,613
2470,581	0	-1,103
2472,008	-15	-3,492
2473,436	-0,5	-1,048
2474,858	1	-0,6
2476,28	-15	-3,498
2477,708	-2	-1,552
2479,136	3	-0,162
2480,564	-15	-3,433
2481,992	-3,5	-2,035
2483,42	4	-0,037
2484,842	-12	-2,969
2486,264	-5	-2,528
2487,686	4,5	-0,01
2489,101	-6	-2,521
2490,523	-6,5	-2,866
2491,951	4,5	-0,002
2493,379	-4,5	-2,107
2494,807	-11	-3,322
2496,229	4,5	0
2497,657	-2	-1,691
2499,079	-13,5	-3,45
2500,519	3	-0,531
2501,947	0	-1,119
2503,375	-14	-3,492
2504,803	0	-1,031
2506,225	1	-0,67
2507,653	-14	-3,498
2509,074	-1,5	-1,487
2510,496	2	-0,221
2511,924	-14	-3,5
2513,358	-3	-2,03
2514,78	4	-0,041
2516,202	-12	-2,989
2517,618	-5	-2,48
2519,046	4,5	-0,012
2520,468	-7	-2,643
2521,896	-6	-2,826
2523,318	4,5	-0,003
2524,739	-4	-2,144
2526,167	-10,5	-3,308
2527,601	4,5	-0,019
2529,029	-1	-1,577
2530,457	-13	-3,462
2531,885	1,5	-0,573
2533,307	0	-1,08
2534,735	-13,5	-3,493
2536,157	0	-0,997
2537,585	1	-0,706
2539,013	-13,5	-3,497
2540,441	-1,5	-1,491
2541,862	2,5	-0,245
2543,284	-13,5	-3,499
2544,7	-2	-1,755
2546,164	4	-0,059
2547,61	-11,5	-3,072
2549,032	-4	-2,318
2550,448	4,5	-0,016
2551,876	-8	-2,752
2553,298	-5	-2,68
2554,72	4,5	-0,004
2556,142	-4	-2,337
2557,6	-9	-3,29
2559,027	4,5	0
2560,449	-1	-1,637
2561,871	-12	-3,454
2563,299	3	-0,51
2564,727	0	-1,141
2566,167	-12,5	-3,492
2567,595	-0,5	-1,091
2569,017	1	-0,585
2570,445	-12,5	-3,498
2571,867	-1,5	-1,477
2573,295	2,5	-0,182
2574,711	-12,5	-3,5
2576,139	-2,5	-1,966
2577,567	4	-0,046
2578,989	-10,5	-3,039
2580,41	-4	-2,404
2581,838	4,5	-0,01
2583,278	-5,5	-2,524
2584,7	-6,5	-2,929
2586,128	4,5	-0,002
2587,556	-2,5	-2,07
2588,978	-8,5	-3,295
2590,406	4,5	0
2591,828	-1	-1,7
2593,256	-11	-3,45
2594,671	4	-0,362
2596,099	0	-1,266
2597,527	-12	-3,485
2598,955	0,5	-0,857
2600,383	1	-0,739
2601,805	-12	-3,497
2603,233	-1	-1,396
2604,661	2,5	-0,215
2606,101	-12	-3,494
2607,529	-2,5	-1,957
2608,957	3,5	-0,048
2610,385	-9,5	-2,96
2611,813	-3,5	-2,472
2613,234	4,5	-0,011
2614,656	-7	-2,699
2616,078	-4,5	-2,686
2617,506	4,5	-0,005
2618,934	-4	-2,24
2620,356	-6	-3,144
2621,772	4,5	-0,001
2623,2	-1,5	-1,868
2624,628	-9,5	-3,404
2626,05	4,5	-0,137
2627,496	-0,5	-1,424
2628,924	-12	-3,478
2630,363	1	-0,798
2631,791	0,5	-0,882
2633,219	-12	-3,495
2634,659	-0,5	-1,26
2636,093	1,5	-0,383
2637,515	-12	-3,499
2638,937	-1,5	-1,745
2640,365	3,5	-0,073
2641,793	-12	-3,181
2643,221	-3	-2,288
2644,649	4,5	-0,016
2646,095	-5,5	-2,574
2647,522	-5	-2,851
2648,95	4,5	-0,002
2650,378	-2,5	-2,101
2651,806	-7,5	-3,305
2653,234	4,5	-0,006
2654,668	-0,5	-1,545
2656,096	-11	-3,461
2657,524	2,5	-0,574
2658,952	0	-1,088
2660,368	-11,5	-3,49
2661,79	0	-1,068
2663,212	1	-0,511
2664,633	-12	-3,498
2666,061	-1	-1,642
2667,489	3	-0,104
2668,911	-12	-3,265
2670,333	-2,5	-2,144
2671,767	4,5	-0,024
2673,207	-7,5	-2,781
2674,635	-4,5	-2,682
2676,063	4,5	-0,004
2677,491	-3	-2,18
2678,919	-7,5	-3,24
2680,341	4,5	0
2681,769	-1	-1,642
2683,191	-11	-3,455
2684,618	3	-0,494
2686,04	0	-1,149
2687,468	-11	-3,49
2688,896	0	-1,018
2690,33	1	-0,609
2691,746	-11,5	-3,497
2693,174	-1	-1,54
2694,602	2,5	-0,152
2696,024	-11	-3,427
2697,452	-2	-2,069
2698,879	4	-0,028
2700,307	-7,5	-2,809
2701,73	-3,5	-2,587
2703,164	4,5	-0,005
2704,585	-3,5	-2,329
2706,007	-5,5	-3,045
2707,429	4,5	-0,001
2708,851	-1,5	-1,929
2710,267	-8	-3,397
2711,719	4	-0,301
2713,141	0	-1,342
2714,563	-11	-3,478
2715,985	1,5	-0,69
2717,406	0,5	-0,98
2718,834	-11,5	-3,494
2720,262	-0,5	-1,202
2721,69	1,5	-0,353
2723,118	-11,5	-3,499
2724,54	-1,5	-1,737
2725,962	3	-0,094
2727,39	-10,5	-3,232
2728,818	-2,5	-2,158
2730,246	4	-0,023
2731,674	-6	-2,752
2733,09	-3	-2,624
2734,517	4,5	-0,005
2735,939	-3,5	-2,353
2737,367	-6	-3,106
2738,789	4,5	-0,001
2740,223	-1,5	-1,863
2741,645	-9	-3,387
2743,073	4	-0,211
2744,501	0	-1,389
2745,923	-10,5	-3,48
2747,351	0,5	-0,753
2748,773	0,5	-0,917
2750,201	-11	-3,495
2751,629	-0,5	-1,314
2753,062	1,5	-0,307
2754,502	-11	-3,5
2755,93	-2	-1,914
2757,37	4	-0,034
2758,804	-8,5	-2,905
2760,232	-4	-2,578
2761,66	4,5	-0,007
2763,082	-3,5	-2,383
2764,51	-6	-3,048
2765,926	4,5	-0,002
2767,354	-1,5	-1,9
2768,8	-9,5	-3,427
2770,227	4	-0,301
2771,655	0	-1,32
2773,083	-11	-3,484
2774,505	1,5	-0,697
2775,933	0,5	-0,975
2777,355	-11	-3,493
2778,783	0	-1,098
2780,205	1	-0,572
2781,639	-11	-3,498
2783,079	-1,5	-1,701
2784,507	3	-0,091
2785,935	-10,5	-3,179
2787,362	-2,5	-2,265
2788,79	4	-0,018
2790,212	-6	-2,75
2791,646	-4,5	-2,758
2793,074	4,5	-0,004
2794,49	-2,5	-2,226
2795,918	-7	-3,259
2797,382	4,5	-0,114
2798,816	-0,5	-1,51
2800,232	-10	-3,464
2801,66	2,5	-0,595
2803,124	0,5	-0,887
2804,539	-10,5	-3,496
2805,967	-0,5	-1,161
2807,389	1,5	-0,456
2808,817	-10,5	-3,499
2810,245	-1	-1,662
2811,667	3	-0,137
2813,095	-10	-3,343
2814,523	-2	-2,101
2815,951	4	-0,029
2817,373	-7	-2,93
2818,801	-3,5	-2,581
2820,223	4,5	-0,008
2821,65	-3,5	-2,454
2823,079	-5	-2,992
2824,495	4,5	-0,002
2825,922	-1,5	-1,977
2827,356	-8	-3,404
2828,784	4,5	-0,232
2830,206	0	-1,45
2831,634	-10	-3,472
2833,062	3	-0,54
2834,49	0	-1,116
2835,918	-10	-3,493
2837,388	-0,5	-1,26
2838,816	1,5	-0,417
2840,243	-10	-3,499
2841,671	-1	-1,626
2843,093	2	-0,155
2844,521	-10	-3,497
2845,949	-1,5	-2,028
2847,377	4	-0,04
2848,793	-8	-3,053
2850,251	-3	-2,468
2851,685	4,5	-0,01
2853,113	-4	-2,539
2854,529	-4,5	-2,848
2855,951	4,5	-0,004
2857,379	-2,5	-2,251
2858,812	-6	-3,255
2860,24	4,5	-0,001
2861,662	-0,5	-1,789
2863,09	-9	-3,432
2864,554	3,5	-0,435
2865,976	0	-1,272
2867,404	-10	-3,486
2868,832	0	-0,809
2870,254	0,5	-0,849
2871,688	-10	-3,496
2873,104	-0,5	-1,212
2874,525	1,5	-0,48
2875,948	-10	-3,498
2877,375	-1	-1,556
2878,803	2,5	-0,168
2880,237	-10	-3,499
2881,665	-1,5	-1,932
2883,093	3,5	-0,062
2884,515	-9,5	-3,223
2885,937	-2	-2,18
2887,365	4	-0,026
2888,787	-6,5	-2,951
2890,209	-3	-2,444
2891,624	4	-0,014
2893,052	-4,5	-2,674
2894,481	-4	-2,782
2895,908	4,5	-0,004
2897,336	-2	-2,233
2898,764	-6	-3,181
2900,192	4,5	-0,001
2901,614	-1	-1,89
2903,036	-7,5	-3,39
2904,458	4,5	-0,08
2905,88	0	-1,618
2907,308	-9	-3,46
2908,729	3	-0,506
2910,153	0	-1,206
2911,567	-10	-3,486
2912,989	0,5	-0,743
2914,417	0,5	-0,914
2915,845	-10	-3,495
2917,273	-0,5	-1,158
2918,695	1	-0,565
2920,117	-10	-3,498
2921,545	-0,5	-1,486
2922,973	2	-0,186
2924,413	-10	-3,486
2925,841	-2	-1,976
2927,269	4	-0,044
2928,684	-8,5	-3,106
2930,118	-2,5	-2,361
2931,534	4,5	-0,016
2932,962	-4,5	-2,753
2934,384	-3	-2,658
2935,806	4,5	-0,007
2937,228	-3	-2,47
2938,68	-5	-3,08
2940,12	4,5	-0,001
2941,56	-0,5	-1,843
2942,982	-8,5	-3,414
2944,41	4,5	-0,243
2945,838	0	-1,448
2947,265	-9,5	-3,475
2948,693	3	-0,522
2950,121	0	-1,165
2951,549	-9,5	-3,492
2952,983	0	-0,967
2954,411	1	-0,673
2955,827	-9,5	-3,496
2957,255	-0,5	-1,387
2958,683	1,5	-0,291
2960,111	-9,5	-3,499
2961,539	-1	-1,806
2962,96	3,5	-0,09
2964,389	-9,5	-3,3
2965,816	-1,5	-2,158
2967,244	4	-0,029
2968,666	-6,5	-2,963
2970,088	-2,5	-2,433
2971,522	4,5	-0,011
2972,944	-4	-2,651
2974,36	-4	-2,809
2975,782	4,5	-0,004
2977,204	-2,5	-2,368
2978,626	-4,5	-3,081
2980,054	4,5	-0,001
2981,481	-1	-2,026
2982,927	-7,5	-3,4
2984,349	4,5	-0,185
2985,783	0	-1,446
2987,211	-9	-3,476
2988,633	3	-0,61
2990,061	0,5	-1,068
2991,477	-9,5	-3,49
2992,905	0	-0,874
2994,327	1	-0,796
2995,761	-9,5	-3,496
2997,188	-0,5	-1,278
2998,623	1,5	-0,39
3000,044	-9,5	-3,499
3001,466	-0,5	-1,626
3002,888	3	-0,122
3004,316	-9,5	-3,337
3005,744	-1,5	-2,176
3007,166	4	-0,026
3008,582	-6,5	-2,979
3010,004	-2,5	-2,475
3011,426	4,5	-0,013
3012,854	-3,5	-2,683
3014,275	-3,5	-2,75
3015,704	4,5	-0,004
3017,131	-2	-2,255
3018,559	-5,5	-3,212
3019,981	4,5	-0,001
3021,409	0	-1,681
3022,861	-8,5	-3,441
3024,277	4	-0,269
3025,717	0	-1,319
3027,145	-9	-3,483
3028,567	1	-0,748
3029,995	1	-0,881
3031,422	-9,5	-3,496
3032,851	-0,5	-1,242
3034,284	1,5	-0,421
3035,712	-9	-3,499
3037,134	-1	-1,572
3038,562	2,5	-0,167
3039,99	-9	-3,5
3041,412	-1	-1,914
3042,84	3,5	-0,059
3044,268	-8,5	-3,157
3045,714	-2	-2,345
3047,136	4,5	-0,017
3048,551	-4,5	-2,82
3049,973	-3	-2,565
3051,402	4,5	-0,009
3052,823	-3,5	-2,589
3054,275	-4,5	-2,978
3055,703	4,5	-0,002
3057,131	-1	-2,096
3058,559	-6	-3,287
3059,987	4,5	0
3061,415	0	-1,719
3062,849	-8	-3,445
3064,277	3,5	-0,386
3065,693	0	-1,382
3067,12	-9	-3,48
3068,542	1,5	-0,637
3069,965	0	-1,096
3071,386	-9	-3,49
3072,814	0	-0,907
3074,242	1	-0,711
3075,676	-9	-3,497
3077,098	-0,5	-1,349
3078,526	1,5	-0,35
3079,96	-9	-3,499
3081,382	-1	-1,726
3082,798	2,5	-0,139
3084,225	-9	-3,497
3085,653	-1,5	-1,926
3087,076	3,5	-0,059
3088,503	-8,5	-3,211
3089,925	-1,5	-2,191
3091,347	4	-0,025
3092,775	-5,5	-2,962
3094,197	-2,5	-2,45
3095,613	4	-0,01
3097,041	-3,5	-2,642
3098,463	-3	-2,752
3099,891	4,5	-0,004
3101,319	-2	-2,369
3102,753	-5	-3,123
3104,18	4,5	-0,001
3105,602	-1	-2,003
3107,024	-5,5	-3,305
3108,452	4,5	0
3109,88	-0,5	-1,814
3111,308	-8	-3,427
3112,73	4	-0,184
3114,158	0	-1,529
3115,586	-8,5	-3,465
3117,002	4,5	-0,351
3118,435	0	-1,304
3119,864	-8,5	-3,48
3121,291	2	-0,611
3122,725	0	-1,046
3124,153	-9	-3,491
3125,575	0	-0,872
3127,003	0,5	-0,875
3128,431	-9	-3,496
3129,859	0	-1,191
3131,281	1	-0,49
3132,697	-9	-3,498
3134,119	-0,5	-1,448
3135,541	1,5	-0,307
3136,968	-9	-3,499
3138,396	-1	-1,732
3139,824	3	-0,106
3141,246	-9	-3,413
3142,674	-1,5	-2,058
3144,102	3,5	-0,036
3145,524	-7,5	-3,064
3146,952	-2	-2,357
3148,368	4	-0,017
3149,79	-5	-2,829
3151,218	-2,5	-2,586
3152,64	4	-0,01
3154,067	-3,5	-2,588
3155,489	-3,5	-2,792
3156,917	4	-0,004
3157,037	4,5	0