File: Cycling_tests/_20perc/_3gap/entrada/_5.txt
Time (s)	Load (N)	Displacement (mm)
0	0	-0,041
2,089	1,5	0
4,344	-2,5	-0,71
6,6	-8,5	-1,454
8,952	-19,5	-2,671
11,706	-28	-2,939
13,955	-21	-2,158
16,133	-17,5	-1,959
18,406	-8	-1,11
20,579	-5,5	-0,755
22,781	-1,5	-0,269
25,04	1,5	-0,026
27,303	2,5	-0,002
29,442	2,5	-0,001
31,703	1,5	-0,371
33,874	0	-0,664
36,101	-6,5	-1,231
38,296	-9	-1,791
40,967	-30	-3,495
43,096	-30	-3,496
168,994	3	-0,023
171,092	3,5	-0,003
173,21	3,5	0
175,274	3	-0,001
177,422	3	-0,015
179,552	3	-0,304
181,688	2,5	-0,386
183,83	1,5	-0,511
185,918	1,5	-0,431
188,048	0	-0,655
190,141	0	-0,635
192,272	-0,5	-0,679
194,797	-15,5	-2,804
196,849	-14,5	-2,538
198,847	-8,5	-1,948
200,977	-10	-2,104
203,017	-7,5	-1,686
205,056	-5,5	-1,361
207,091	-4	-1,056
248,902	3,5	-0,003
250,984	3,5	-0,004
253,096	3,5	-0,004
255,106	3	-0,018
257,133	3	-0,053
259,209	2,5	-0,08
261,237	0	-0,376
263,259	-2	-0,744
265,287	-4,5	-1,158
267,357	-6	-1,372
269,361	-10,5	-1,83
271,391	-14	-2,208
273,447	-16	-2,448
275,517	-21	-2,598
277,496	-26	-3,155
279,53	-25,5	-3,5
281,546	-25,5	-3,498
283,526	-25	-3,486
285,512	-23,5	-3,434
287,51	-19	-3,125
289,568	-17,5	-3,03
291,571	-12	-2,423
293,654	-12	-2,356
295,621	-6	-1,724
298,039	-19,5	-3,224
300,037	-14,5	-2,764
302,071	-11	-2,365
304,093	-8	-2,011
306,127	-6	-1,702
308,131	-4	-1,276
310,189	-3	-1,145
312,235	-0,5	-0,796
314,274	2,5	-0,452
316,296	3,5	-0,11
318,348	3,5	-0,001
320,376	3,5	-0,002
322,356	3,5	-0,012
324,39	3	-0,048
326,376	0	-0,244
328,416	-1	-0,535
330,473	-2	-0,734
332,909	3,5	-0,008
334,944	3,5	-0,027
336,936	1	-0,16
338,957	-1	-0,517
341,033	-1,5	-0,695
343,001	-7,5	-1,38
345,082	-7	-1,52
347,075	-12,5	-2,013
349,06	-19	-2,582
351,1	-21,5	-2,898
353,14	-25	-3,201
355,156	-25	-3,499
357,16	-25	-3,497
359,176	-24,5	-3,486
361,18	-23,5	-3,451
363,171	-18	-3,193
365,211	-15	-2,903
367,227	-12	-2,506
369,225	-8,5	-2,053
371,272	-6,5	-1,852
373,233	-3	-1,121
375,207	2,5	-0,426
377,202	3,5	0
379,179	3,5	-0,003
381,165	3,5	-0,027
383,228	3	-0,047
385,226	1	-0,207
387,26	0	-0,439
389,222	-4,5	-1,183
391,233	-8	-1,595
393,278	-10	-1,758
395,252	-15	-2,346
397,244	-21,5	-2,923
399,217	-24,5	-3,5
401,197	-24,5	-3,496
403,129	-23,5	-3,458
405,493	-24,5	-3,499
407,443	-24,5	-3,489
409,465	-24	-3,46
411,433	-17,5	-3,167
413,431	-13,5	-2,678
415,387	-7	-1,986
417,343	-4	-1,302
419,322	0	-0,718
421,338	3,5	-0,209
423,288	3,5	-0,003
425,244	3,5	-0,025
427,158	0	-0,386
429,12	-3	-0,991
431,082	-8,5	-1,692
433,013	-17,5	-2,543
435,017	-22,5	-2,963
436,985	-24,5	-3,499
438,917	-24,5	-3,486
440,903	-22,5	-3,422
442,877	-16,5	-3,014
444,803	-8,5	-2,128
446,771	-4,5	-1,441
448,757	-2,5	-0,952
450,676	3,5	-0,002
452,632	3,5	-0,003
454,618	3,5	-0,017
456,592	2	-0,097
458,53	-2	-0,778
460,498	-5,5	-1,399
462,424	-13	-2,201
464,356	-22	-2,998
466,312	-24,5	-3,499
468,297	-24	-3,494
470,253	-23,5	-3,45
472,216	-18	-3,15
474,153	-10	-2,367
476,091	-4,5	-1,557
478,059	-2,5	-1,029
479,979	4	-0,165
481,935	4	-0,002
483,843	3	-0,052
485,769	-0,5	-0,589
487,706	-5,5	-1,365
489,68	-10,5	-1,938
491,624	-18	-2,675
493,562	-24	-3,486
495,482	-24	-3,492
497,426	-22	-3,424
499,34	-13,5	-2,737
501,272	-7	-1,918
503,197	-3	-1,15
505,099	3,5	-0,096
507,025	4	-0,005
508,933	2,5	-0,094
510,853	-1,5	-0,775
512,779	-7	-1,656
514,741	-14	-2,298
516,685	-24	-3,192
518,629	-24	-3,498
520,567	-23,5	-3,482
522,486	-18,5	-3,294
524,418	-11,5	-2,589
526,362	-6,5	-1,932
528,294	-3	-1,205
530,238	3	-0,406
532,164	4	-0,002
534,066	3,5	-0,024
536,022	1	-0,195
537,966	-1,5	-0,719
539,885	-7	-1,59
541,787	-15,5	-2,474
543,689	-24	-3,388
545,621	-24	-3,494
547,559	-23	-3,454
549,467	-15	-2,955
551,399	-8,5	-2,196
553,325	-4,5	-1,48
555,238	0	-0,688
557,17	3,5	0
559,084	4	-0,008
560,998	1,5	-0,09
562,924	-1	-0,662
564,832	-5,5	-1,484
566,746	-14,5	-2,37
568,672	-22	-3,061
570,58	-24	-3,497
572,494	-23	-3,467
574,401	-14,5	-2,922
576,357	-9	-2,266
578,295	-4,5	-1,496
580,215	0	-0,689
582,147	3,5	0
584,067	3,5	-0,01
585,999	3	-0,069
587,919	-1	-0,644
589,833	-6	-1,533
591,77	-13	-2,302
593,69	-22,5	-3,11
595,616	-24	-3,498
597,542	-23,5	-3,478
599,438	-16	-3,186
601,364	-9	-2,337
603,308	-5,5	-1,701
605,216	-2,5	-0,975
607,154	3,5	-0,301
609,085	3,5	-0,002
611,029	3,5	-0,018
612,961	1	-0,224
614,869	-3	-1,093
616,789	-8,5	-1,865
618,721	-16,5	-2,588
620,659	-23,5	-3,258
622,609	-23,5	-3,498
624,54	-23	-3,485
626,478	-20	-3,38
665,368	0	-0,641
667,3	3,5	-0,001
669,232	3,5	-0,006
671,164	3,5	-0,04
673,084	0	-0,458
675,01	-4	-1,3
676,941	-10	-2,05
678,849	-19,5	-2,894
680,806	-23,5	-3,5
682,725	-23,5	-3,49
684,657	-20,5	-3,41
686,595	-14	-2,892
688,503	-7,5	-2,033
690,435	-3,5	-1,406
692,373	0	-0,675
694,293	3,5	0
696,21	3,5	-0,01
698,108	2	-0,131
700,028	-1,5	-0,883
701,948	-6	-1,644
703,868	-14	-2,438
705,782	-23	-3,323
707,702	-23	-3,495
709,61	-21	-3,458
711,53	-15	-2,992
713,48	-10,5	-2,422
715,381	-5	-1,566
717,277	0	-0,64
719,191	3,5	-0,001
721,094	3,5	-0,014
723,031	1,5	-0,143
724,933	-2,5	-1,008
726,841	-9	-1,882
728,773	-16,5	-2,633
730,711	-23	-3,368
732,63	-23	-3,494
734,556	-21,5	-3,424
736,47	-13	-2,806
738,42	-7,5	-2,068
740,334	-3	-1,202
742,248	2,5	-0,41
744,174	4	-0,001
746,076	3,5	-0,021
747,995	1,5	-0,237
749,915	-2	-1,044
751,847	-7,5	-1,81
753,773	-15,5	-2,59
755,699	-23	-3,438
757,613	-22,5	-3,492
759,563	-21,5	-3,442
761,477	-14,5	-2,911
763,385	-7	-2,036
765,341	-4	-1,406
767,236	1,5	-0,502
769,15	3,5	-0,002
771,076	3,5	-0,015
773,008	1,5	-0,196
774,904	-2,5	-1,096
776,842	-7	-1,768
778,774	-14,5	-2,544
780,67	-22,5	-3,5
782,571	-22,5	-3,487
784,479	-17,5	-3,304
786,399	-10,5	-2,514
788,319	-5	-1,705
790,251	-1,5	-0,933
792,177	3,5	-0,136
794,085	4	-0,006
795,999	3	-0,071
797,913	-0,5	-0,7
799,821	-6	-1,607
801,741	-15	-2,508
803,643	-22,5	-3,461
805,538	-22,5	-3,492
807,446	-18,5	-3,364
809,372	-12	-2,676
811,268	-5	-1,821
813,164	-0,5	-0,87
815,078	4	-0,028
817,009	4	-0,005
818,917	3	-0,062
820,819	-1	-0,73
822,709	-7	-1,679
824,635	-13,5	-2,432
826,537	-22,5	-3,278
828,469	-22,5	-3,497
830,377	-21,5	-3,454
832,315	-15	-3,054
834,198	-6,5	-2,07
836,112	-3,5	-1,332
838,056	0,5	-0,701
839,976	4	-0,001
841,884	4	-0,012
843,804	1,5	-0,151
845,706	-2,5	-1,028
847,614	-8,5	-1,899
923,18	1,5	-0,135
925,087	-1,5	-0,947
926,989	-7	-1,815
928,891	-17,5	-2,799
930,787	-22	-3,499
932,701	-21,5	-3,479
934,603	-14	-3,044
936,499	-6,5	-2,105
938,407	-3	-1,256
940,327	2	-0,452
942,264	3,5	-0,001
944,19	3,5	-0,013
946,098	1	-0,198
948,024	-1,5	-0,95
949,944	-6	-1,721
951,852	-15	-2,58
953,76	-22	-3,5
955,68	-22	-3,491
957,594	-19,5	-3,411
959,501	-10	-2,618
961,451	-5,5	-1,869
963,371	-2,5	-1,08
965,31	3	-0,36
967,223	4	-0,003
969,605	-2	-1,01
971,531	4	-0,201
973,433	4	-0,006
975,334	2	-0,11
977,242	-1	-0,791
979,132	-7	-1,773
981,04	-16,5	-2,674
982,96	-22	-3,5
984,868	-22	-3,489
986,782	-17,5	-3,309
988,678	-8	-2,327
990,562	-3	-1,3
992,482	1,5	-0,495
994,39	3,5	-0,002
996,303	3,5	-0,028
998,211	0	-0,479
1000,113	-4,5	-1,405
1002,045	-10,5	-2,182
1003,953	-20	-2,972
1005,855	-22	-3,497
1007,763	-20,5	-3,456
1009,682	-13,5	-2,957
1011,614	-6,5	-2,155
1013,528	-3	-1,268
1015,436	3,5	-0,323
1017,35	4	-0,003
1019,264	3,5	-0,037
1021,166	-0,5	-0,673
1023,08	-4,5	-1,54
1024,994	-13,5	-2,437
1026,895	-22	-3,37
1028,791	-22	-3,491
1030,723	-19,5	-3,404
1032,619	-10,5	-2,606
1034,539	-5	-1,752
1036,435	0	-0,765
1038,343	4	-0,001
1040,287	3,5	-0,009
1042,177	1	-0,18
1044,115	-1,5	-0,849
1046,029	-6	-1,63
1047,942	-14	-2,565
1049,856	-21,5	-3,475
1051,758	-21,5	-3,491
1053,678	-19	-3,373
1055,604	-10,5	-2,636
1057,512	-4,5	-1,713
1059,414	0	-0,782
1061,327	4	-0,001
1063,223	4	-0,016
1065,125	1	-0,31
1067,034	-2,5	-1,174
1068,929	-10	-2,158
1070,837	-20,5	-3,134
1072,757	-22	-3,496
1074,671	-19,5	-3,419
1076,603	-11,5	-2,763
1078,525	-5	-1,82
1080,424	-0,5	-0,82
1082,326	3,5	-0,001
1084,234	4	-0,014
1086,13	0,5	-0,296
1088,044	-3	-1,205
1089,934	-9,5	-2,186
1091,848	-21	-3,089
1093,756	-21,5	-3,497
1095,681	-20,5	-3,457
1097,565	-12	-2,849
1099,467	-5,5	-1,94
1101,363	-1,5	-0,946
1103,259	4	-0,009
1105,179	4	-0,009
1107,087	2	-0,141
1108,977	-2	-1,088
1110,885	-8,5	-2,022
1112,781	-19,5	-3,021
1114,676	-21,5	-3,498
1116,59	-20,5	-3,458
1118,51	-13,5	-3,057
1120,418	-6,5	-2,114
1122,326	-2,5	-1,175
1124,216	4	-0,195
1126,124	4	-0,006
1128,044	3	-0,074
1129,94	-1	-0,843
1131,842	-6,5	-1,78
1133,732	-16	-2,819
1135,627	-21,5	-3,499
1137,529	-21	-3,465
1139,437	-13	-2,91
1141,345	-5,5	-1,935
1143,253	-2,5	-1,054
1145,149	3,5	-0,175
1147,069	4	-0,007
1148,97	2	-0,17
1150,897	-1,5	-1,01
1152,804	-7,5	-1,928
1154,7	-18	-2,922
1156,602	-21,5	-3,498
1158,51	-21	-3,468
1160,424	-13,5	-3,047
1162,344	-6	-2,141
1164,24	-2	-1,169
1166,148	4	-0,248
1168,031	4	-0,007
1169,933	2,5	-0,122
1171,859	-0,5	-0,771
1173,773	-5	-1,599
1175,681	-13,5	-2,538
1177,601	-21,5	-3,451
1179,503	-21	-3,49
1181,411	-18	-3,348
1183,307	-8	-2,42
1185,202	-3,5	-1,467
1187,104	2	-0,525
1189	4	-0,002
1190,92	3,5	-0,03
1192,822	0	-0,578
1194,736	-4,5	-1,524
1196,638	-12,5	-2,44
1198,546	-21,5	-3,413
1200,448	-21,5	-3,491
1202,361	-18	-3,374
1204,276	-10	-2,582
1206,183	-4	-1,585
1208,067	1,5	-0,516
1209,975	4	-0,002
1211,889	3,5	-0,031
1213,773	0	-0,633
1215,699	-4	-1,47
1217,619	-10,5	-2,302
1219,497	-21	-3,388
1221,405	-21	-3,492
1223,324	-18	-3,376
1225,25	-10,5	-2,66
1227,146	-4,5	-1,697
1229,048	0	-0,708
1230,968	4	-0,001
1232,852	4	-0,013
1234,772	1	-0,319
1236,667	-3	-1,344
1238,552	-10,5	-2,339
1240,447	-21	-3,273
1242,325	-21	-3,492
1244,233	-17	-3,339
1246,141	-8,5	-2,454
1248,025	-3	-1,337
1249,927	3	-0,346
1251,835	4	-0,003
1253,743	3,5	-0,051
1255,65	0	-0,706
1257,564	-5	-1,668
1259,484	-12,5	-2,535
1261,404	-21	-3,394
1263,312	-21	-3,491
1265,214	-18	-3,362
1267,134	-9	-2,54
1269,042	-3,5	-1,58
1270,968	-0,5	-0,754
1272,87	4	-0,001
1274,765	4	-0,018
1276,661	0	-0,487
1278,564	-3,5	-1,46
1280,447	-13	-2,509
1282,349	-21	-3,5
1284,263	-21	-3,488
1286,183	-16,5	-3,316
1288,079	-7,5	-2,367
1290,023	-4	-1,618
1291,924	1	-0,623
1293,808	4	-0,002
1295,734	4	-0,02
1297,643	1	-0,288
1299,55	-3	-1,208
1301,446	-9	-2,136
1303,342	-21	-3,115
1305,244	-21	-3,497
1307,158	-19,5	-3,455
1309,066	-12	-2,928
1310,961	-5	-1,946
1312,881	-2	-1,136
1314,783	4	-0,143
1316,679	4	-0,006
1318,587	2	-0,128
1320,501	-1	-0,937
1322,409	-6	-1,737
1324,292	-15	-2,684
1326,206	-21	-3,5
1328,102	-21	-3,488
1330,034	-17	-3,38
1331,948	-9	-2,576
1333,826	-3	-1,504
1335,722	2	-0,501
1337,612	4	-0,002
1339,526	3,5	-0,046
1341,452	0	-0,582
1343,372	-3,5	-1,37
1345,273	-12	-2,386
1347,187	-21	-3,306
1349,083	-21	-3,493
1351,003	-18	-3,392
1352,917	-9	-2,655
1354,822	-4	-1,671
1356,721	0	-0,707
1358,653	4	-0,001
1360,548	3,5	-0,022
1362,456	0	-0,355
1364,37	-3	-1,236
1366,266	-9,5	-2,204
1368,156	-21	-3,247
1370,07	-21	-3,495
1371,966	-19	-3,425
1373,85	-8	-2,494
1375,782	-3,5	-1,644
1377,671	2	-0,611
1379,597	4	-0,001
1381,961	-1,5	-1,045
1383,893	4	-0,206
1385,795	4	-0,006
1387,709	2,5	-0,115
1389,623	-1	-0,859
1391,507	-8	-2,03
1393,409	-19,5	-3,016
1395,311	-21	-3,498
1397,206	-19,5	-3,451
1399,108	-11	-2,87
1401,01	-4,5	-1,891
1402,918	-1	-0,937
1404,832	4	-0,007
1406,716	4	-0,014
1408,618	1	-0,281
1410,496	-3	-1,379
1412,409	-10,5	-2,272
1414,306	-20,5	-3,31
1416,195	-20,5	-3,492
1418,091	-15,5	-3,336
1420,011	-8	-2,48
1421,919	-3	-1,532
1423,839	0	-0,742
1425,723	4	-0,002
1427,631	3,5	-0,028
1429,527	0	-0,544
1431,428	-4,5	-1,492
1433,312	-13	-2,582
1435,226	-20,5	-3,497
1437,104	-20	-3,486
1439,012	-15	-3,232
1440,932	-7,5	-2,377
1442,816	-2,5	-1,319
1444,712	3,5	-0,35
1446,602	4	-0,005
1448,497	2,5	-0,097
1450,387	-1,5	-0,947
1452,295	-6	-1,864
1454,197	-15,5	-2,806
1456,093	-20,5	-3,499
1458,001	-20	-3,482
1459,885	-12,5	-3,004
1461,787	-5	-2,063
1463,725	-2,5	-1,357
1465,615	3	-0,375
1467,522	4	-0,004
1469,4	2,5	-0,113
1471,302	-1,5	-0,941
1473,186	-7,5	-1,979
1475,088	-18,5	-2,964
1476,984	-20,5	-3,498
1478,892	-19,5	-3,457
1480,8	-12	-2,929
1482,707	-5	-2,016
1484,621	-1,5	-1,118
1486,517	4	-0,174
1488,419	4	-0,005
1490,315	3	-0,074
1492,235	0	-0,703
1494,149	-4,5	-1,568
1496,033	-13,5	-2,628
1497,947	-21	-3,499
1499,831	-20	-3,482
1501,714	-13,5	-3,072
1503,622	-6	-2,128
1505,506	-1,5	-1,042
1507,426	4	-0,164
1509,346	4	-0,004
1511,242	3	-0,078
1513,138	-1	-0,917
1515,022	-7,5	-1,964
1516,929	-17	-2,93
1518,831	-20,5	-3,498
1520,728	-19,5	-3,45
1522,611	-10	-2,735
1524,501	-3,5	-1,646
1526,385	2	-0,554
1528,281	4	-0,002
1530,171	3,5	-0,046
1532,085	0	-0,587
1533,975	-4,5	-1,609
1535,894	-12,5	-2,525
1537,802	-20,5	-3,432
1539,704	-20,5	-3,492
1541,6	-16,5	-3,353
1543,496	-8	-2,46
1545,386	-3	-1,48
1547,294	1	-0,615
1549,196	4	-0,002
1551,116	3,5	-0,028
1553,023	0	-0,536
1554,913	-4,5	-1,586
1556,803	-15	-2,71
1558,699	-20,5	-3,499
1560,607	-20	-3,475
1562,497	-12	-2,96
1564,381	-4,5	-1,821
1566,283	0	-0,783
1568,191	4	-0,001
1570,074	3,5	-0,027
1571,958	0	-0,594
1573,866	-5	-1,598
1575,78	-12,5	-2,517
1577,67	-20,5	-3,499
1579,56	-20	-3,476
1581,456	-12	-3
1583,376	-5,5	-2,093
1585,272	-1,5	-1,062
1587,168	3,5	-0,023
1589,064	3,5	-0,01
1591,313	4	-0,001
1593,209	4	-0,019
1595,123	1	-0,356
1597,025	-2,5	-1,292
1598,927	-9	-2,213
1600,841	-19,5	-3,106
1602,737	-20,5	-3,496
1604,633	-17,5	-3,389
1606,517	-7,5	-2,416
1608,412	-3	-1,39
1610,308	3	-0,359
1612,204	4	-0,005
1614,1	2,5	-0,095
1615,984	-1,5	-0,974
1617,886	-6	-1,928
1619,776	-19	-2,979
1621,672	-20	-3,497
1623,568	-19	-3,434
1625,457	-9	-2,631
1627,347	-3,5	-1,62
1629,249	1,5	-0,553
1631,133	4	-0,002
1633,029	3,5	-0,046
1634,919	-0,5	-0,733
1636,851	-4,5	-1,568
1638,746	-13,5	-2,63
1640,642	-20,5	-3,499
1642,52	-20	-3,473
1644,416	-12	-2,972
1646,3	-4,5	-1,877
1648,208	-0,5	-0,831
1650,086	4	-0,001
1651,976	3,5	-0,024
1653,872	0	-0,542
1655,762	-4,5	-1,645
1657,657	-14,5	-2,692
1659,547	-20,5	-3,499
1661,443	-20	-3,478
1663,321	-12	-2,891
1665,217	-4,5	-1,876
1667,101	0	-0,738
1669,003	4	-0,001
1670,899	4	-0,026
1672,783	0	-0,615
1674,678	-4,5	-1,705
1676,562	-14,5	-2,774
1678,464	-20	-3,499
1680,348	-19,5	-3,46
1682,232	-9,5	-2,696
1684,116	-3,5	-1,685
1686,024	0	-0,677
1687,902	4	-0,002
1689,798	3,5	-0,043
1691,688	0	-0,729
1693,571	-5,5	-1,798
1695,479	-14,5	-2,768
1697,387	-20	-3,499
1699,307	-20	-3,483
1701,209	-13	-3,112
1703,087	-5	-1,992
1704,977	-1	-0,878
1706,873	4	-0,001
1708,763	3,5	-0,02
1710,682	0,5	-0,344
1712,578	-3	-1,379
1714,462	-10,5	-2,391
1716,37	-20	-3,388
1718,254	-20	-3,49
1720,156	-13,5	-3,282
1722,064	-7,5	-2,361
1723,96	-3	-1,41
1725,844	3,5	-0,302
1727,781	4	-0,002
1729,665	3	-0,076
1731,561	-1	-0,902
1733,445	-6,5	-1,982
1735,335	-17	-3,015
1737,237	-20	-3,497
1739,121	-18,5	-3,416
1741,017	-9,5	-2,594
1742,895	-3,5	-1,489
1744,772	2,5	-0,404
1746,662	4	-0,003
1748,546	3	-0,08
1750,43	-1,5	-1,014
1752,344	-6	-1,875
1754,228	-17,5	-2,961
1756,112	-20	-3,497
1757,996	-19	-3,436
1759,88	-9	-2,611
1761,769	-3	-1,555
1763,653	1,5	-0,464
1765,531	4	-0,004
1767,421	3	-0,083
1769,305	-1	-0,954
1771,189	-8	-2,023
1773,085	-18,5	-2,99
1774,969	-20	-3,497
1776,853	-18	-3,427
1778,743	-8	-2,552
1780,621	-2,5	-1,42
1782,504	3,5	-0,329
1784,394	4	-0,005
1786,278	2	-0,124
1788,162	-1,5	-1,053
1790,052	-7,5	-2,07
1791,96	-19	-3,053
1793,868	-19,5	-3,497
1795,746	-17	-3,44
1797,647	-8,5	-2,646
1799,531	-3,5	-1,63
1801,445	0,5	-0,721
1803,323	4	-0,001
1805,207	3,5	-0,039
1807,103	0	-0,651
1808,981	-5,5	-1,809
1810,865	-17	-2,894
1812,755	-20	-3,498
1814,633	-18,5	-3,444
1816,516	-9,5	-2,731
1818,424	-4,5	-1,908
1820,302	0	-0,83
1822,198	4	-0,001
1824,082	3,5	-0,026
1825,966	0	-0,539
1827,874	-3,5	-1,435
1829,758	-12	-2,493
1831,648	-19,5	-3,497
1833,537	-19,5	-3,49
1835,421	-14	-3,276
1837,305	-5,5	-2,233
1839,231	-3	-1,448
1841,121	3	-0,44
1843,017	4	-0,003
1844,901	3,5	-0,054
1846,779	-0,5	-0,757
1848,663	-5,5	-1,799
1850,553	-15	-2,807
1852,43	-19,5	-3,498
1854,314	-18,5	-3,448
1856,21	-10	-2,762
1858,106	-4,5	-1,822
1859,984	0	-0,811
1861,868	4	-0,001
1863,752	3,5	-0,029
1865,63	0	-0,587
1867,52	-4,5	-1,61
1869,403	-13,5	-2,622
1871,281	-19,5	-3,499
1873,177	-19,5	-3,474
1875,091	-12,5	-3,108
1876,981	-5	-2,154
1878,871	-2	-1,201
1880,779	3,5	-0,351
1882,663	4	-0,005
1884,54	2	-0,119
1886,43	-1,5	-1,055
1888,32	-8	-2,08
1890,198	-19,5	-3,137
1892,1	-19,5	-3,496
1893,978	-16,5	-3,397
1895,874	-8,5	-2,618
1897,77	-3	-1,621
1899,654	2	-0,55
1901,532	4	-0,003
1903,428	2,5	-0,093
1905,317	-1,5	-1,005
1907,223	-6	-1,944
1909,109	-17	-2,98
1910,993	-19,5	-3,497
1912,877	-17	-3,422
1914,767	-8,5	-2,621
1916,651	-3	-1,584
1918,547	1	-0,601
1920,448	4	-0,001
1922,326	3,5	-0,038
1924,228	0	-0,641
1926,112	-4,5	-1,674
1928,008	-13,5	-2,683
1929,886	-19,5	-3,499
1931,776	-19	-3,467
1933,66	-10	-2,975
1935,55	-4,5	-1,987
1937,488	-1,5	-1,167
1939,383	4	-0,217
1941,261	4	-0,008
1943,145	1	-0,195
1945,023	-2	-1,224
1946,913	-9	-2,244
1948,809	-19,5	-3,268
1950,687	-19	-3,493
1952,583	-16,5	-3,384
1954,466	-7,5	-2,47
1956,356	-2,5	-1,447
1958,234	3,5	-0,385
1960,142	4	-0,003
1962,026	3,5	-0,054
1963,904	-0,5	-0,821
1965,8	-4,5	-1,761
1967,678	-15	-2,792
1969,562	-19	-3,498
1971,446	-18,5	-3,461
1973,323	-9,5	-2,776
1975,201	-3,5	-1,741
1977,559	-13	-3,158
1979,443	-5,5	-2,1
1981,327	-1,5	-1,078
1983,205	4	-0,003
1985,089	4	-0,013
1986,973	1	-0,328
1988,863	-2	-1,309
1990,746	-9	-2,308
1992,624	-19	-3,425
1994,502	-19	-3,486
1996,398	-13,5	-3,236
1998,276	-5	-2,125
2000,16	-1,5	-1,098
2002,044	4	-0,137
2003,928	4	-0,008
2005,812	1,5	-0,209
2007,719	-0,5	-1,024
2009,609	-6	-1,999
2011,494	-15,5	-3,027
2013,383	-18,5	-3,496
2015,267	-16,5	-3,414
2017,157	-7,5	-2,572
2019,059	-3	-1,636
2020,943	1,5	-0,603
2022,845	4,5	-0,002
2024,728	3,5	-0,04
2026,613	0	-0,644
2028,496	-3,5	-1,649
2030,38	-11,5	-2,624
2032,264	-18,5	-3,499
2034,154	-18	-3,48
2036,032	-10,5	-3,005
2037,934	-4,5	-2,107
2039,83	-1,5	-1,145
2041,708	4	-0,003
2043,585	4	-0,011
2045,475	1,5	-0,224
2047,371	-2	-1,224
2049,255	-7	-2,202
2051,145	-18	-3,196
2053,023	-18,5	-3,493
2054,907	-14,5	-3,338
2056,803	-6	-2,376
2058,687	-2	-1,37
2060,564	4	-0,226
2062,454	4	-0,006
2064,356	3	-0,098
2066,252	-0,5	-0,951
2068,136	-6	-2,02
2070,014	-15,5	-3,015
2071,922	-18	-3,498
2073,806	-16,5	-3,429
2075,69	-7,5	-2,634
2077,567	-2,5	-1,509
2079,458	2	-0,501
2081,341	4	-0,003
2083,219	3,5	-0,071
2085,109	0	-0,799
2086,993	-4,5	-1,843
2088,895	-12,5	-2,774
2090,791	-18	-3,499
2092,675	-17,5	-3,471
2094,569	-10,5	-3,066
2096,473	-4,5	-2,006
2098,356	-1	-0,985
2100,264	4	-0,078
2102,143	4	-0,011
2104,032	1,5	-0,298
2105,922	-2	-1,304
2107,818	-8,5	-2,33
2109,702	-18	-3,427
2111,598	-18	-3,49
2113,475	-13	-3,254
2115,359	-5,5	-2,201
2117,261	-2	-1,276
2119,175	3	-0,392
2121,065	4	-0,004
2122,943	2,5	-0,096
2124,833	-0,5	-0,857
2126,729	-4,5	-1,86
2128,613	-14,5	-2,957
2130,502	-18	-3,497
2132,392	-17	-3,449
2134,276	-9	-2,776
2136,166	-3,5	-1,805
2138,068	-1	-0,847
2139,958	4	-0,001
2141,848	4	-0,019
2143,732	0,5	-0,432
2145,616	-3	-1,57
2147,5	-10	-2,523
2149,383	-18	-3,5
2151,267	-17,5	-3,482
2153,151	-11,5	-3,086
2155,041	-4,5	-2,104
2156,931	-1,5	-1,086
2158,815	4	-0,037
2160,705	4	-0,01
2162,589	1,5	-0,263
2164,485	-1,5	-1,21
2166,375	-6,5	-2,174
2168,258	-18	-3,192
2170,142	-18	-3,494
2172,038	-15	-3,378
2173,922	-6,5	-2,467
2175,8	-2,5	-1,388
2177,678	3,5	-0,31
2179,568	4	-0,005
2181,452	2,5	-0,113
2183,336	-0,5	-1,062
2185,219	-7	-2,169
2187,109	-17,5	-3,253
2188,987	-18	-3,492
2190,871	-13,5	-3,298
2192,767	-6	-2,34
2194,657	-2	-1,306
2196,541	4	-0,315
2198,431	4	-0,005
2200,308	3	-0,117
2202,192	-0,5	-1,043
2204,1	-6	-1,96
2205,984	-13,5	-2,924
2207,862	-17,5	-3,497
2209,74	-16	-3,435
2211,636	-9	-2,802
2213,574	-4,5	-1,986
2215,458	-1	-0,944
2217,342	4	-0,001
2219,238	4	-0,012
2221,133	1,5	-0,25
2223,023	-1,5	-1,293
2224,913	-7,5	-2,305
2226,803	-17,5	-3,28
2228,681	-17,5	-3,492
2230,565	-14	-3,304
2232,449	-5,5	-2,292
2234,326	-2	-1,182
2236,204	4	-0,053
2238,1	4	-0,009
2239,984	2	-0,186
2241,88	-1	-1,045
2243,776	-5,5	-2,033
2245,66	-16,5	-3,094
2247,556	-18	-3,496
2249,44	-15,5	-3,423
2251,336	-7,5	-2,62
2253,226	-3	-1,602
2255,109	1	-0,634
2256,999	4	-0,002
2258,877	3,5	-0,047
2260,755	0	-0,729
2262,645	-3,5	-1,652
2264,529	-12	-2,704
2266,449	-17,5	-3,5
2268,327	-17,5	-3,48
2270,223	-10,5	-3,08
2272,106	-4	-1,98
2273,99	-0,5	-0,911
2275,868	4	-0,001
2277,752	3,5	-0,019
2279,63	0,5	-0,419
2281,514	-2,5	-1,371
2283,398	-9	-2,329
2285,276	-17,5	-3,359
2287,159	-17,5	-3,491
2289,049	-14,5	-3,376
2290,939	-6,5	-2,51
2292,817	-2	-1,459
2294,695	2,5	-0,502
2296,573	4	-0,002
2298,481	3,5	-0,038
2300,371	0	-0,614
2302,249	-3,5	-1,629
2304,145	-11	-2,595
2306,022	-17,5	-3,499
2307,901	-17,5	-3,474
2309,79	-10,5	-3,084
2311,692	-5	-2,206
2313,576	-1,5	-1,2
2315,454	3,5	-0,17
2317,362	4	-0,007
2319,246	1,5	-0,163
2321,124	-1,5	-1,132
2323,031	-6	-1,996
2324,915	-15	-2,911
2326,799	-17,5	-3,498
2328,695	-16	-3,454
2330,579	-8	-2,73
2332,457	-3,5	-1,774
2334,341	0	-0,737
2336,225	4	-0,001
2338,109	3,5	-0,04
2339,992	0	-0,67
2341,876	-4	-1,773
2343,76	-12,5	-2,815
2345,638	-17	-3,498
2347,522	-16	-3,468
2349,412	-9	-2,97
2351,302	-4	-1,967
2353,186	-0,5	-0,94
2355,064	4	-0,001
2356,948	3,5	-0,018
2358,832	0,5	-0,37
2360,715	-2	-1,407
2362,599	-8,5	-2,37
2364,477	-16,5	-3,433
2366,367	-16,5	-3,491
2368,245	-11,5	-3,253
2370,129	-5	-2,278
2372,013	-2	-1,319
2373,903	3,5	-0,364
2375,78	4	-0,004
2377,659	3	-0,1
2379,542	-0,5	-0,938
2381,432	-4,5	-1,807
2383,322	-11,5	-2,75
2385,206	-17	-3,499
2387,096	-16	-3,464
2388,986	-9	-2,961
2390,888	-4	-2,023
2392,771	-0,5	-1,012
2394,661	4	-0,047
2396,545	4	-0,011
2398,423	1,5	-0,204
2400,307	-1	-1,14
2402,203	-6	-2,128
2404,087	-16,5	-3,211
2405,971	-16,5	-3,494
2407,873	-15	-3,42
2409,757	-7	-2,575
2411,64	-2,5	-1,532
2413,518	2	-0,507
2415,408	3,5	-0,002
2417,358	3,5	-0,021
2419,266	0,5	-0,335
2421,162	-1,5	-1,28
2423,052	-7	-2,293
2424,948	-16,5	-3,268
2426,843	-16,5	-3,493
2428,728	-13	-3,357
2430,611	-6	-2,451
2432,501	-2	-1,481
2434,391	3	-0,44
2436,269	4	-0,004
2438,159	3	-0,08
2440,043	-0,5	-0,956
2441,927	-5	-1,999
2443,811	-14,5	-3,026
2445,688	-16,5	-3,496
2447,578	-14,5	-3,408
2449,474	-6,5	-2,58
2451,358	-2,5	-1,51
2453,248	2	-0,496
2455,132	4	-0,003
2457,034	3,5	-0,051
2458,924	0	-0,733
2460,808	-3	-1,733
2462,685	-12,5	-2,81
2464,569	-16,5	-3,498
2466,465	-15,5	-3,467
2468,343	-8	-2,86
2470,227	-3	-1,828
2472,111	-0,5	-0,927
2474,001	4	0
2475,885	3,5	-0,018
2477,769	1	-0,386
2479,646	-2	-1,433
2481,531	-7,5	-2,417
2483,414	-15,5	-3,413
2485,298	-15,5	-3,49
2487,177	-10,5	-3,246
2489,108	-6	-2,497
2490,992	-2,5	-1,541
2492,906	0	-0,721
2494,802	4	-0,001
2496,686	4	-0,021
2498,575	1	-0,458
2500,471	-1,5	-1,425
2502,349	-6	-2,364
2504,251	-15	-3,253
2506,135	-15	-3,493
2508,025	-12	-3,356
2509,945	-6	-2,628
2511,829	-2,5	-1,671
2513,713	0	-0,772
2515,597	4	-0,001
2517,51	4	-0,013
2519,394	1,5	-0,232
2521,284	-0,5	-1,207
2523,192	-5	-2,16
2525,082	-15	-3,202
2526,96	-15	-3,494
2528,85	-12,5	-3,395
2530,746	-6	-2,575
2532,635	-2	-1,524
2534,537	1,5	-0,624
2536,415	4	-0,002
2538,305	3,5	-0,04
2540,189	0	-0,729
2542,073	-3	-1,73
2543,957	-10	-2,746
2545,847	-15	-3,499
2547,731	-14,5	-3,466
2549,608	-7	-2,814
2551,493	-2,5	-1,755
2553,382	0	-0,811
2555,26	4	-0,001
2557,138	4	-0,031
2559,016	0,5	-0,638
2560,9	-2,5	-1,648
2562,796	-8,5	-2,632
2564,68	-14,5	-3,499
2566,558	-13,5	-3,469
2568,478	-8	-3,073
2570,373	-3,5	-2,048
2572,257	-0,5	-1,032
2574,141	4	0
2576,019	4	-0,012
2577,915	2	-0,192
2579,799	-0,5	-1,144
2581,683	-3,5	-2,096
2583,567	-13,5	-3,2
2585,456	-14	-3,494
2587,352	-12	-3,416
2589,23	-5	-2,593
2591,114	-2	-1,598
2593,01	1	-0,652
2594,888	4	-0,002
2596,772	3,5	-0,044
2598,65	0,5	-0,678
2600,552	-2	-1,629
2602,429	-7,5	-2,654
2604,307	-14	-3,499
2606,197	-13,5	-3,479
2608,093	-8	-3,116
2609,99	-4	-2,175
2611,885	-1,5	-1,245
2613,781	3	-0,314
2615,665	4	-0,004
2617,543	3	-0,096
2619,426	0	-0,894
2621,316	-3	-1,918
2623,194	-10	-2,884
2625,078	-13,5	-3,498
2626,956	-12,5	-3,461
2628,84	-7	-2,917
2630,73	-3	-1,927
2632,614	0	-0,975
2634,498	4	0
2636,412	4	-0,008
2638,313	2	-0,137
2640,197	0	-1,14
2642,099	-3	-2,034
2643,983	-11	-3,041
2645,861	-13	-3,496
2647,739	-11	-3,408
2649,623	-4,5	-2,455
2651,501	-1,5	-1,461
2653,391	2,5	-0,506
2655,275	4	-0,003
2657,152	3	-0,094
2659,036	0	-0,94
2660,938	-2	-1,857
2662,822	-8	-2,852
2664,706	-12,5	-3,498
2666,602	-12,5	-3,471
2668,498	-7	-3,004
2670,382	-3	-1,988
2672,266	0	-0,977
2674,161	4	-0,058
2676,057	4	-0,008
2677,953	2,5	-0,145
2679,861	0	-0,97
2681,745	-2,5	-1,95
2683,629	-9,5	-2,935
2685,513	-12,5	-3,498
2687,397	-12	-3,461
2689,292	-6,5	-3,016
2691,176	-3	-2,053
2693,06	-1	-1,116
2694,944	4	0
2696,84	4	-0,014
2698,748	1,5	-0,243
2700,632	-0,5	-1,287
2702,522	-4	-2,294
2704,4	-12,5	-3,332
2706,29	-12,5	-3,492
2708,185	-9	-3,312
2710,081	-4	-2,391
2711,965	-1	-1,332
2713,849	3,5	-0,304
2715,733	4	-0,006
2717,623	2,5	-0,137
2719,507	0	-1,067
2721,421	-2,5	-1,928
2723,305	-10	-2,997
2725,207	-12,5	-3,498
2727,084	-11,5	-3,444
2728,968	-5	-2,741
2730,846	-2	-1,695
2732,724	1	-0,643
2734,608	4	-0,002
2736,498	3,5	-0,041
2738,376	0,5	-0,707
2740,254	-1,5	-1,752
2742,143	-7	-2,754
2744,027	-12	-3,499
2745,905	-11,5	-3,469
2747,789	-6	-2,925
2749,673	-2,5	-1,906
2751,581	0	-0,916
2753,459	4	-0,001
2755,343	4	-0,018
2757,221	1	-0,488
2759,117	-1	-1,48
2761	-4,5	-2,358
2762,89	-12,5	-3,438
2764,774	-12	-3,489
2766,664	-7,5	-3,219
2768,548	-3	-2,235
2770,432	-1	-1,298
2772,322	4	-0,257
2774,206	4	-0,006
2776,096	2	-0,151
2777,979	0	-1,075
2779,857	-3	-2,176
2781,741	-12	-3,282
2783,631	-12	-3,492
2785,509	-8,5	-3,318
2787,393	-3	-2,411
2789,289	-1	-1,466
2791,179	2,5	-0,559
2793,063	4	-0,002
2794,946	3,5	-0,051
2796,83	0,5	-0,716
2798,726	-1,5	-1,672
2800,61	-7	-2,704
2802,494	-12,5	-3,499
2804,372	-11,5	-3,469
2806,25	-5,5	-2,866
2808,146	-2,5	-1,948
2810,03	-0,5	-1
2811,914	4	0
2813,797	4	-0,014
2815,693	1,5	-0,258
2817,571	-0,5	-1,303
2819,467	-3,5	-2,196
2821,351	-12	-3,258
2823,247	-12	-3,495
2825,125	-9,5	-3,379
2827,003	-3,5	-2,46
2828,881	-1	-1,446
2830,776	3	-0,489
2832,66	4	-0,003
2834,544	3	-0,06
2836,428	0	-0,769
2838,312	-2	-1,834
2840,208	-7	-2,768
2842,086	-12	-3,499
2843,97	-11	-3,467
2845,848	-5	-2,839
2847,731	-2	-1,886
2849,615	0	-0,832
2851,493	4	-0,001
2853,377	3,5	-0,022
2855,261	1	-0,477
2857,157	-0,5	-1,46
2859,041	-5	-2,47
2860,931	-12	-3,4
2862,815	-11,5	-3,49
2864,711	-8	-3,31
2866,594	-3,5	-2,381
2868,478	-1	-1,396
2870,356	4	-0,355
2872,234	4	-0,005
2874,124	3	-0,091
2876,014	0	-0,953
2877,928	-2	-1,861
2879,812	-8,5	-2,899
2881,695	-11,5	-3,498
2883,579	-10,5	-3,464
2885,457	-4,5	-2,834
2887,341	-2	-1,845
2889,225	0	-0,839
2891,109	4	-0,001
2893,011	3,5	-0,02
2894,895	1	-0,495
2896,779	-1	-1,558
2898,657	-5,5	-2,605
2900,547	-11,5	-3,499
2902,442	-11,5	-3,479
2904,326	-5,5	-2,997
2906,216	-2	-1,926
2908,106	0	-0,871
2909,984	4	-0,001
2911,868	4	-0,018
2913,752	0,5	-0,434
2915,654	-1	-1,467
2917,532	-4,5	-2,47
2919,415	-11,5	-3,5
2921,299	-11	-3,483
2923,177	-5,5	-3,034
2925,067	-2,5	-2,058
2926,945	-0,5	-1,018
2928,823	4	0
2930,707	3,5	-0,015
2932,597	1	-0,348
2934,474	-0,5	-1,394
2936,358	-4,5	-2,453
2938,242	-11,5	-3,494
2940,126	-11,5	-3,486
2942,016	-6,5	-3,196
2943,9	-3	-2,18
2945,784	-0,5	-1,111
2947,668	4	-0,15
2949,546	4	-0,008
2951,436	1,5	-0,191
2953,319	0	-1,18
2955,197	-3	-2,253
2957,087	-11	-3,247
2958,971	-11	-3,494
2960,861	-9	-3,375
2962,745	-3	-2,395
2964,629	-1	-1,336
2966,513	4	-0,28
2968,403	4	-0,006
2970,286	2	-0,152
2972,17	0	-1,154
2974,054	-3	-2,186
2975,938	-10,5	-3,133
2977,834	-11	-3,494
2979,718	-9	-3,399
2981,602	-3,5	-2,498
2983,486	-1	-1,486
2985,382	2,5	-0,487
2987,284	4	-0,003
2989,167	3	-0,058
2991,045	0	-0,791
2992,941	-1	-1,736
2994,871	-4,5	-2,536
2996,775	-11	-3,383
2998,707	-10,5	-3,491
3000,717	-10,5	-3,467
3002,613	-5	-2,942
3004,497	-1,5	-1,861
3006,429	-0,5	-1,062
3008,312	4	-0,096
3010,208	4	-0,008
3012,164	3	-0,058
3014,048	0,5	-0,765
3015,926	-1,5	-1,864
3017,804	-7,5	-2,9
3019,694	-11	-3,498
3021,577	-10	-3,447
3023,455	-4	-2,697
3025,339	-1,5	-1,702
3027,223	1	-0,691
3029,119	4	-0,001
3030,997	3,5	-0,035
3032,887	0,5	-0,57
3034,771	-1	-1,608
3036,691	-3,5	-2,414
3038,587	-10,5	-3,462
3040,464	-11	-3,488
3042,342	-6	-3,174
3044,232	-3	-2,156
3046,122	-0,5	-1,111
3048	4	0
3049,884	4	-0,012
3051,768	1	-0,4
3053,652	-0,5	-1,46
3055,536	-4,5	-2,533
3057,414	-10,5	-3,5
3059,298	-10,5	-3,48
3061,181	-5,5	-3,012
3063,059	-2	-1,902
3064,955	0	-0,962
3066,839	4	-0,001
3068,729	4	-0,016
3070,613	1	-0,405
3072,497	-0,5	-1,418
3074,393	-3,5	-2,394
3076,276	-10,5	-3,45
3078,16	-10,5	-3,489
3080,062	-7,5	-3,322
3081,94	-2,5	-2,28
3083,83	-1	-1,315
3085,714	3,5	-0,298
3087,598	4	-0,005
3089,482	2	-0,132
3091,365	0	-1,098
3093,256	-2,5	-2,126
3095,139	-10	-3,166
3097,023	-10,5	-3,495
3098,925	-9	-3,42
3100,821	-4	-2,706
3102,699	-1	-1,671
3104,583	1,5	-0,611
3106,461	4	-0,002
3108,351	3,5	-0,042
3110,234	0,5	-0,728
3112,124	-1	-1,724
3114,014	-5	-2,678
3115,898	-10,5	-3,499
3117,776	-10,5	-3,466
3119,672	-4,5	-2,875
3121,556	-1,5	-1,826
3123,446	0	-0,83
3125,33	4	-0,001
3127,226	3,5	-0,026
3129,104	0,5	-0,554
3130,987	-1	-1,59
3132,865	-5	-2,7
3134,755	-10,5	-3,499
3136,633	-10	-3,468
3137,935	4	-0,001