File: ensaios_Ciclicos/_50perc/_1gap/entrada/_2.txt
Time (s)	Load (N)	Displacement (mm)
36,37	-5,5	-1,384
37,372	-6	-1,8
38,356	-11	-2,204
39,34	-2	-0,948
40,329	-18	-3,112
41,319	1,5	0
42,321	-19	-3,498
43,324	1,5	-0,008
44,308	-18,5	-3,472
45,303	0	-0,195
46,293	-13	-3,016
47,295	-4	-1,099
48,292	-7	-2,033
49,281	-10	-2,035
50,271	-3	-1,072
51,267	-16,5	-2,984
52,263	1,5	-0,191
53,265	-19	-3,499
54,261	1,5	-0,003
55,263	-18,5	-3,49
56,249	1	-0,045
57,236	-15	-3,342
58,226	-3	-0,923
59,217	-7,5	-2,181
60,2	-9,5	-2,026
61,196	-3	-1,086
62,192	-16	-2,959
63,182	1,5	-0,228
64,184	-18,5	-3,499
65,168	1,5	-0,003
66,164	-18,5	-3,492
67,16	1,5	-0,024
68,144	-17,5	-3,43
69,146	0	-0,3
70,142	-11	-2,866
71,132	-4	-1,22
72,122	-5,5	-1,898
73,106	-9,5	-2,116
74,096	-2,5	-1,039
75,098	-16	-2,912
76,087	1	-0,3
77,071	-18,5	-3,499
78,067	1,5	-0,003
79,063	-18	-3,49
80,071	1,5	-0,039
81,067	-16	-3,403
82,057	-1	-0,564
83,05	-9,5	-2,55
84,037	-5	-1,414
85,027	-5	-1,684
86,029	-11	-2,41
87,019	0	-0,708
88,021	-18	-3,246
89,011	1,5	0
90,001	-18	-3,498
91,003	1,5	-0,01
91,993	-17,5	-3,474
92,982	0,5	-0,134
93,978	-12,5	-3,093
94,974	-2,5	-0,872
95,964	-8	-2,285
96,961	-6	-1,628
97,956	-4	-1,542
98,952	-11,5	-2,459
99,948	-0,5	-0,71
100,944	-17,5	-3,5
101,94	1,5	-0,001
102,936	-18	-3,496
103,926	1,5	-0,011
104,916	-17	-3,472
105,919	0	-0,164
106,92	-12,5	-3,107
107,91	-2,5	-0,995
108,908	-7,5	-2,314
109,901	-6	-1,72
110,897	-3,5	-1,508
111,893	-12	-2,521
112,883	0	-0,625
113,879	-17,5	-3,446
114,863	1,5	-0,001
115,853	-17,5	-3,497
116,837	1,5	-0,017
117,827	-16,5	-3,448
118,823	0	-0,343
119,819	-10,5	-2,842
120,803	-3	-1,214
121,799	-5,5	-2,008
122,795	-7,5	-1,914
123,791	-3,5	-1,282
124,787	-15,5	-3,024
125,783	1,5	-0,178
126,779	-17,5	-3,499
127,775	1,5	-0,012
128,77	-17	-3,472
129,76	0,5	-0,162
130,756	-12	-3,128
131,752	-1,5	-0,783
132,742	-8	-2,41
133,738	-6	-1,609
134,734	-4,5	-1,599
135,73	-11	-2,43
136,726	-0,5	-0,708
137,722	-17,5	-3,35
138,712	1,5	-0,001
139,696	-17	-3,497
140,692	1,5	-0,016
141,688	-16,5	-3,47
142,683	0,5	-0,138
143,679	-12,5	-3,132
144,676	-2	-0,935
182,035	-1	-0,846
183,031	-16,5	-3,202
184,021	1,5	0
185,011	-16,5	-3,498
186,007	2	-0,01
186,991	-16,5	-3,47
187,981	0,5	-0,159
188,977	-12	-3,114
189,961	-1,5	-0,937
190,951	-6,5	-2,266
191,941	-6	-1,819
192,931	-3	-1,289
193,921	-14	-2,813
194,923	1	-0,409
195,913	-16,5	-3,499
196,902	1,5	-0,002
197,899	-16,5	-3,494
198,895	1,5	-0,028
199,884	-15	-3,409
200,882	0	-0,443
201,876	-9,5	-2,737
202,866	-3,5	-1,348
203,862	-5	-1,826
204,852	-8,5	-2,173
205,848	-2	-0,997
206,838	-15	-3,051
207,834	1,5	-0,125
208,824	-16,5	-3,499
209,814	1,5	-0,004
210,804	-16,5	-3,487
211,794	1	-0,079
212,79	-13	-3,287
213,786	-0,5	-0,63
214,776	-8,5	-2,541
215,765	-3,5	-1,325
216,761	-5	-1,902
217,757	-7	-2,014
218,753	-2,5	-1,112
219,743	-13	-2,829
220,733	1,5	-0,341
221,723	-16,5	-3,499
222,725	1,5	-0,002
223,721	-16,5	-3,494
224,711	1,5	-0,028
225,707	-15	-3,42
226,703	0	-0,266
227,693	-10	-2,877
228,683	-2,5	-1,07
229,679	-6	-2,133
230,671	-6	-1,836
231,659	-3	-1,318
232,654	-10,5	-2,598
233,644	0	-0,589
234,64	-16	-3,336
235,642	1,5	0
236,632	-16	-3,498
237,622	1,5	-0,007
238,618	-16	-3,482
239,614	1	-0,074
240,61	-13	-3,311
241,606	-1	-0,69
242,596	-7,5	-2,436
243,592	-4	-1,46
244,582	-4,5	-1,701
245,572	-8,5	-2,29
246,562	-1	-0,834
247,558	-16	-3,126
248,548	1,5	-0,011
249,543	-16	-3,499
250,545	1,5	-0,003
251,535	-16	-3,491
252,531	1,5	-0,039
253,527	-14,5	-3,405
254,517	0	-0,401
255,513	-10	-2,818
256,503	-2	-1,15
257,487	-5	-1,96
258,477	-7	-2,025
259,473	-2,5	-1,145
260,463	-12,5	-2,775
261,465	1	-0,488
262,455	-16	-3,498
263,457	2	-0,001
264,447	-16	-3,496
265,437	1,5	-0,015
266,432	-15	-3,466
267,429	1	-0,16
268,424	-10,5	-3,05
269,42	-1,5	-0,916
270,41	-6	-2,208
271,4	-5	-1,744
272,402	-3,5	-1,498
273,392	-9,5	-2,497
274,388	0	-0,693
275,378	-16	-3,296
276,368	1,5	-0,001
277,358	-16	-3,498
278,36	1,5	-0,007
279,362	-15	-3,484
280,352	1,5	-0,062
281,342	-13	-3,299
282,338	-0,5	-0,549
283,333	-8	-2,578
284,329	-3	-1,328
285,319	-4,5	-1,828
286,315	-7	-2,1
287,311	-2,5	-1,06
288,301	-13	-2,846
289,298	1	-0,387
290,287	-15,5	-3,5
400,273	1,5	-0,046
401,263	-15	-3,499
402,253	1,5	-0,004
403,243	-15	-3,489
404,233	1,5	-0,054
405,235	-13	-3,376
406,224	0	-0,489
407,22	-8	-2,719
408,21	-2,5	-1,213
409,204	-5	-2,005
410,202	-5,5	-1,918
411,192	-2,5	-1,233
412,182	-11,5	-2,773
413,172	1,5	-0,425
414,162	-15	-3,5
415,164	1,5	-0,001
416,16	-15	-3,497
417,15	1,5	-0,016
418,14	-14,5	-3,452
419,13	0	-0,247
420,12	-9	-2,948
421,11	-2	-1,058
422,094	-5	-2,158
423,089	-5	-1,779
424,079	-2,5	-1,376
425,069	-9,5	-2,513
426,065	0	-0,677
427,061	-15	-3,268
428,051	1,5	-0,001
429,041	-15	-3,498
430,031	1,5	-0,008
431,021	-15	-3,477
432,017	1	-0,1
433,007	-11,5	-3,227
433,997	-1	-0,649
434,987	-6,5	-2,488
435,983	-3,5	-1,464
436,973	-3,5	-1,713
437,969	-7,5	-2,188
438,959	-1,5	-0,978
439,949	-13,5	-2,959
440,944	1,5	-0,239
441,934	-15	-3,499
442,924	2	-0,002
443,92	-15	-3,494
444,916	1,5	-0,022
445,906	-14	-3,432
446,896	0	-0,303
447,88	-8,5	-2,808
448,87	-2,5	-1,171
449,866	-4,5	-1,977
450,862	-6	-2,031
451,858	-1,5	-1,127
452,848	-12,5	-2,884
453,838	1,5	-0,259
454,834	-15	-3,5
455,824	1,5	-0,002
456,814	-15	-3,494
457,804	2	-0,026
458,793	-13,5	-3,425
459,789	0	-0,31
460,785	-9	-2,849
461,776	-2	-1,098
462,765	-4,5	-2,003
463,755	-6	-1,96
464,745	-2,5	-1,228
465,735	-12	-2,75
466,731	1,5	-0,442
467,727	-15	-3,5
468,717	2	-0,001
469,707	-15	-3,495
470,697	1,5	-0,021
471,687	-14	-3,434
472,677	0	-0,25
473,667	-9	-2,914
474,657	-2	-1,046
475,653	-5	-2,095
476,642	-5	-1,885
477,638	-2,5	-1,353
478,628	-10,5	-2,652
479,618	0,5	-0,534
480,608	-15	-3,48
481,598	1,5	-0,001
482,588	-15	-3,496
483,578	2	-0,015
484,568	-14,5	-3,452
485,558	0,5	-0,204
486,548	-9	-2,973
487,544	-1,5	-1,019
488,534	-5	-2,184
489,524	-4,5	-1,804
490,514	-2,5	-1,324
491,51	-10,5	-2,624
492,494	1,5	-0,463
493,484	-15	-3,496
494,473	1,5	-0,001
495,463	-15	-3,496
496,453	2	-0,017
497,443	-14,5	-3,45
498,433	0	-0,259
499,423	-9	-2,912
500,413	-1,5	-1,043
501,403	-4,5	-2,062
502,399	-5,5	-1,925
503,395	-2	-1,293
504,379	-11	-2,769
505,375	1	-0,47
506,365	-15	-3,491
507,361	2	-0,001
508,351	-15	-3,497
618,066	-12,5	-2,9
619,056	2	-0,264
620,046	-14,5	-3,499
621,036	2	-0,002
622,032	-15	-3,493
623,022	1,5	-0,027
624,012	-13,5	-3,422
625,002	0	-0,484
625,992	-7,5	-2,688
626,982	-3	-1,387
627,972	-3,5	-1,773
628,968	-6	-2,219
629,958	-1,5	-0,937
630,948	-13	-3,015
631,938	1,5	-0,176
632,922	-15	-3,499
633,911	1,5	-0,003
634,902	-15	-3,491
635,891	1,5	-0,054
636,881	-12	-3,336
637,871	0	-0,624
638,861	-6,5	-2,544
639,851	-2,5	-1,388
640,835	-3,5	-1,754
641,825	-7,5	-2,279
642,815	-1	-0,898
643,805	-13,5	-3,07
644,795	1,5	-0,124
645,785	-15	-3,499
646,775	1,5	-0,004
647,765	-15	-3,488
648,755	1,5	-0,08
649,745	-11	-3,27
650,734	-0,5	-0,644
651,718	-6	-2,467
652,708	-3	-1,449
653,698	-3,5	-1,734
654,688	-7	-2,244
655,678	-1	-0,867
656,668	-13,5	-3,075
657,664	1,5	-0,036
658,654	-15	-3,499
659,644	1,5	-0,004
660,634	-15	-3,488
661,624	1,5	-0,054
662,614	-12	-3,332
663,604	0	-0,554
664,6	-7	-2,633
665,59	-2,5	-1,363
666,574	-3,5	-1,785
667,558	-6,5	-2,184
668,548	-1,5	-0,968
669,538	-12,5	-2,968
670,527	1,5	-0,204
671,523	-15	-3,499
672,513	2	-0,002
673,503	-14,5	-3,493
674,493	1,5	-0,035
675,483	-12,5	-3,402
676,473	0	-0,441
677,463	-7	-2,724
678,453	-2,5	-1,282
679,443	-3,5	-1,854
680,433	-5,5	-2,083
681,423	-1,5	-1,082
682,413	-12	-2,939
683,403	2	-0,246
684,393	-14,5	-3,499
685,384	2	-0,002
686,372	-14,5	-3,494
687,362	2	-0,026
688,352	-13	-3,413
689,342	0	-0,425
690,328	-6,5	-2,673
691,316	-3	-1,323
692,306	-3,5	-1,812
693,302	-6	-2,142
694,292	-1,5	-1,024
695,282	-13	-2,986
696,272	2	-0,157
697,262	-14,5	-3,499
698,246	2	-0,003
699,236	-14,5	-3,491
700,226	1,5	-0,051
701,222	-12	-3,366
702,212	0	-0,517
703,207	-7	-2,686
704,197	-2	-1,262
705,187	-3,5	-1,883
706,177	-6	-2,113
707,167	-1,5	-1,075
708,163	-10,5	-2,857
709,153	1,5	-0,325
710,137	-14,5	-3,499
711,127	2	-0,002
712,117	-14,5	-3,496
713,107	2	-0,022
714,097	-13,5	-3,435
715,087	0,5	-0,254
716,083	-9	-2,954
717,067	-1	-0,986
718,057	-4,5	-2,148
719,047	-4	-1,794
720,037	-2,5	-1,399
721,027	-9	-2,59
722,016	1	-0,528
723,012	-14,5	-3,467
724,002	2	-0,001
724,992	-14,5	-3,496
725,982	2	-0,012
726,972	-14	-3,468
727,962	1	-0,121
728,952	-10	-3,165
729,942	-0,5	-0,733
730,932	-5,5	-2,395
731,916	-4	-1,714
732,9	-2,5	-1,438
733,884	-9	-2,587
734,874	0	-0,568
735,864	-14,5	-3,476
736,854	2	-0,001
737,844	-14,5	-3,496
738,834	1,5	-0,017
739,829	-13,5	-3,45
740,819	0,5	-0,175
741,803	-9	-2,97
742,787	-1,5	-1,014
743,777	-4,5	-2,168
744,767	-4,5	-1,837
745,757	-2	-1,314
746,753	-9	-2,588
747,737	0	-0,653
748,733	-14,5	-3,338
749,723	1,5	-0,001
750,719	-14,5	-3,498
751,709	2	-0,008
752,699	-14	-3,476
753,683	1	-0,123
754,679	-10	-3,174
755,662	-0,5	-0,889
756,658	-5	-2,319
757,648	-3	-1,607
758,638	-2,5	-1,573
759,634	-7	-2,315
760,624	-1	-0,802
761,614	-14	-3,182
762,598	2	0
763,594	-14,5	-3,498
764,578	2	-0,008
765,568	-14,5	-3,478
766,561	1	-0,111
767,548	-10	-3,163
768,538	-0,5	-0,832
769,528	-5	-2,34
770,518	-3	-1,586
771,502	-3	-1,522
772,498	-8	-2,424
773,493	0	-0,723
774,483	-13,5	-3,199
775,473	1,5	0
776,463	-14,5	-3,498
777,453	2	-0,005
778,443	-14,5	-3,484
779,433	1,5	-0,058
780,417	-11	-3,304
781,407	0	-0,593
782,397	-6	-2,568
783,387	-2,5	-1,438
784,377	-3	-1,734
785,367	-6	-2,208
786,357	-1	-0,947
787,359	-12	-3,014
788,343	2	-0,07
789,333	-14,5	-3,499
790,329	1,5	-0,006
791,324	-14	-3,484
792,314	1,5	-0,069
793,304	-10,5	-3,299
794,294	0	-0,561
795,278	-6	-2,542
796,274	-3	-1,426
797,264	-3	-1,728
798,254	-8	-2,336
799,244	-0,5	-0,814
800,234	-13,5	-3,032
801,224	2	-0,07
802,208	-14,5	-3,499
803,198	2	-0,004
804,188	-14	-3,49
805,178	1,5	-0,047
806,168	-11	-3,334
807,158	0	-0,613
808,141	-6	-2,54
809,131	-3	-1,402
810,121	-3	-1,768
811,117	-6	-2,132
812,107	-1	-0,996
813,097	-12,5	-3,01
814,081	2	-0,026
815,071	-14	-3,499
816,061	2	-0,004
817,051	-14	-3,488
818,041	1,5	-0,052
819,031	-10,5	-3,334
820,021	0	-0,544
821,011	-6	-2,618
822,007	-2	-1,278
822,997	-3,5	-1,862
823,987	-5,5	-2,089
824,977	-1,5	-1,033
825,96	-12,5	-2,997
826,95	2	-0,128
827,94	-14,5	-3,499
828,93	2	-0,004
829,92	-14	-3,485
830,916	1,5	-0,068
831,906	-10,5	-3,293
832,89	-0,5	-0,681
833,88	-5,5	-2,442
834,87	-3,5	-1,536
835,86	-3	-1,635
836,85	-7,5	-2,312
837,84	-0,5	-0,859
838,83	-13,5	-3,084
839,829	2	-0,077
840,81	-14	-3,499
841,8	2	-0,005
842,79	-14	-3,485
843,779	1,5	-0,064
844,769	-10,5	-3,301
845,759	-0,5	-0,592
846,755	-6,5	-2,599
847,745	-3	-1,449
848,735	-3	-1,686
849,725	-7,5	-2,283
850,715	-1	-0,878
851,705	-13,5	-3,074
852,695	1,5	-0,036
853,685	-14,5	-3,499
854,669	2	-0,005
855,659	-14,5	-3,486
856,655	1,5	-0,056
857,645	-11	-3,336
858,635	0	-0,584
859,619	-6,5	-2,584
860,603	-2,5	-1,418
861,592	-3	-1,763
862,582	-6	-2,157
863,578	-1,5	-1,039
864,568	-12	-2,903
865,57	1,5	-0,334
866,562	-14,5	-3,499
867,544	2	-0,002
868,534	-14,5	-3,492
869,524	2	-0,028
870,514	-13	-3,42
980,14	-7,5	-2,31
981,13	-1	-0,908
982,12	-13	-3,059
983,109	1,5	-0,133
984,1	-14	-3,499
985,089	2	-0,004
986,073	-14	-3,487
987,057	1,5	-0,047
988,059	-11,5	-3,379
989,076	0	-0,326
990,057	-7	-2,818
991,053	-1,5	-1,134
992,043	-4	-2,049
993,033	-4	-1,828
994,023	-2	-1,31
995,013	-9	-2,6
995,997	0,5	-0,562
996,987	-13,5	-3,388
997,989	2	-0,001
998,979	-14	-3,498
999,969	2	-0,007
1000,958	-13,5	-3,482
1001,942	1,5	-0,088
1002,932	-10	-3,272
1003,922	0	-0,634
1004,906	-5,5	-2,46
1005,896	-2,5	-1,454
1006,88	-3	-1,681
1007,876	-6	-2,204
1008,866	-1,5	-1,01
1009,856	-11,5	-2,906
1010,84	2	-0,192
1011,83	-14	-3,499
1012,82	1,5	-0,002
1013,81	-14	-3,493
1014,8	1,5	-0,033
1015,784	-12	-3,382
1016,774	0	-0,399
1017,776	-7	-2,805
1018,771	-1	-1,08
1019,761	-3,5	-2,038
1020,745	-4,5	-1,95
1021,735	-2	-1,27
1022,719	-10,5	-2,649
1023,709	1	-0,469
1024,693	-14	-3,499
1025,677	2	-0,002
1026,667	-14	-3,495
1027,657	1,5	-0,022
1028,659	-13	-3,442
1029,649	0,5	-0,222
1030,633	-7,5	-2,914
1031,623	-1,5	-1,053
1032,613	-4,5	-2,14
1033,603	-4	-1,813
1034,587	-2	-1,338
1035,576	-9	-2,592
1036,572	0	-0,603
1037,562	-13,5	-3,462
1038,558	2	-0,001
1039,548	-14	-3,497
1040,538	2	-0,013
1041,528	-13,5	-3,462
1042,518	0,5	-0,154
1043,508	-9	-3,088
1044,492	-0,5	-0,874
1045,482	-5	-2,308
1046,472	-3,5	-1,703
1047,462	-2	-1,463
1048,452	-8	-2,488
1049,436	0	-0,664
1050,432	-13,5	-3,317
1051,428	2	0
1052,418	-14	-3,498
1053,408	2	-0,008
1054,391	-13,5	-3,47
1055,381	1,5	-0,097
1056,371	-9,5	-3,248
1057,361	0	-0,703
1058,351	-5	-2,436
1059,341	-2,5	-1,511
1060,331	-2,5	-1,606
1061,321	-6,5	-2,35
1062,311	0	-0,778
1063,301	-12,5	-3,137
1064,285	2	0
1065,275	-13,5	-3,498
1066,265	2	-0,006
1067,255	-13,5	-3,479
1068,239	1,5	-0,076
1069,229	-10	-3,278
1070,225	0	-0,654
1071,215	-5	-2,452
1072,198	-2,5	-1,475
1073,188	-3	-1,653
1074,178	-7	-2,359
1075,168	-0,5	-0,802
1076,152	-13,5	-3,16
1077,142	2	0
1078,132	-14	-3,499
1079,122	2	-0,005
1080,106	-14	-3,484
1081,102	1,5	-0,058
1082,092	-10,5	-3,316
1083,082	0	-0,619
1084,066	-6	-2,544
1085,05	-2	-1,38
1086,04	-3	-1,775
1087,03	-5,5	-2,155
1088,019	-1,5	-0,984
1089,003	-11	-2,94
1089,993	1,5	-0,195
1090,983	-13,5	-3,499
1091,985	2	-0,002
1092,975	-14	-3,493
1093,965	1,5	-0,03
1094,949	-12	-3,403
1095,939	0	-0,344
1096,929	-7	-2,763
1097,919	-1,5	-1,216
1098,903	-3,5	-1,9
1099,893	-5,5	-2,064
1100,883	-1,5	-1,102
1101,873	-11	-2,85
1102,869	1,5	-0,382
1103,859	-13,5	-3,5
1104,849	2	-0,002
1105,838	-14	-3,495
1106,822	2	-0,022
1107,812	-12,5	-3,43
1108,802	0	-0,294
1109,792	-7,5	-2,84
1110,782	-1,5	-1,13
1111,766	-3,5	-2,056
1112,756	-4	-1,843
1113,758	-2	-1,344
1114,742	-8	-2,579
1115,726	1	-0,498
1116,71	-13,5	-3,476
1117,7	2	-0,001
1118,69	-13,5	-3,496
1119,68	2	-0,014
1120,67	-13	-3,465
1121,654	1	-0,124
1122,644	-9	-3,09
1123,633	-0,5	-0,815
1124,623	-5	-2,324
1125,625	-3	-1,553
1126,609	-2,5	-1,598
1127,599	-6,5	-2,363
1128,589	-0,5	-0,786
1129,579	-12,5	-3,119
1130,569	1,5	-0,004
1131,553	-13,5	-3,498
1132,543	2	-0,006
1133,533	-13,5	-3,482
1134,523	1,5	-0,066
1135,507	-10	-3,284
1136,509	0	-0,535
1137,499	-6	-2,576
1138,489	-2,5	-1,38
1139,473	-3	-1,739
1140,463	-6	-2,239
1141,452	-1	-0,964
1142,442	-12	-3,036
1143,426	2	-0,089
1144,416	-13,5	-3,499
1145,406	2	-0,004
1146,39	-13,5	-3,485
1147,374	1,5	-0,056
1148,364	-10,5	-3,31
1149,354	-0,5	-0,662
1150,344	-5,5	-2,456
1151,328	-3	-1,622
1152,318	-2	-1,513
1153,308	-7,5	-2,455
1154,298	0	-0,657
1155,282	-13,5	-3,338
1156,272	2	-0,001
1157,262	-13,5	-3,498
1158,246	2	-0,012
1159,229	-13	-3,454
1160,219	1	-0,167
1161,209	-8,5	-3,065
1162,193	-0,5	-0,893
1163,183	-4,5	-2,215
1164,173	-3,5	-1,695
1165,163	-2	-1,408
1166,153	-8	-2,496
1167,137	0	-0,593
1168,127	-13,5	-3,366
1169,117	2	-0,001
1170,107	-13,5	-3,497
1171,091	2	-0,011
1172,075	-13,5	-3,462
1173,065	1	-0,15
1174,055	-9	-3,097
1175,039	-0,5	-0,842
1176,028	-4,5	-2,302
1177,018	-3	-1,618
1178,008	-2,5	-1,57
1178,992	-7,5	-2,418
1179,976	-0,5	-0,718
1180,966	-13,5	-3,254
1181,95	2	-0,001
1182,94	-13,5	-3,498
1183,93	1,5	-0,01
1184,926	-13,5	-3,476
1185,91	1	-0,114
1186,9	-9,5	-3,173
1187,884	-0,5	-0,793
1188,874	-5	-2,357
1189,858	-3	-1,594
1190,854	-2,5	-1,592
1191,844	-6,5	-2,36
1192,834	-0,5	-0,732
1193,823	-13,5	-3,249
1194,813	1,5	0
1195,803	-13,5	-3,498
1196,805	2	-0,005
1197,795	-13,5	-3,484
1198,785	1,5	-0,078
1199,769	-9,5	-3,26
1200,76	0	-0,634
1201,749	-5,5	-2,511
1202,733	-2,5	-1,478
1203,723	-3	-1,677
1204,713	-5,5	-2,249
1205,703	-0,5	-0,849
1206,687	-13,5	-3,161
1207,677	2	0
1208,673	-13,5	-3,498
1209,663	2	-0,006
1210,653	-13,5	-3,484
1211,642	1,5	-0,059
1212,632	-11	-3,319
1213,616	0	-0,57
1214,606	-5,5	-2,534
1215,596	-2	-1,413
1216,586	-3	-1,775
1217,57	-6	-2,213
1218,56	-1	-0,969
1219,556	-10,5	-2,922
1220,552	1,5	-0,306
1221,536	-13,5	-3,499
1222,526	2	-0,002
1223,516	-13,5	-3,494
1224,506	2	-0,026
1225,49	-12	-3,419
1226,48	0	-0,365
1227,47	-7	-2,855
1228,459	-1	-1,092
1229,443	-3,5	-2,054
1230,433	-3,5	-1,839
1231,423	-1,5	-1,278
1232,413	-9	-2,679
1233,397	1	-0,484
1234,381	-13,5	-3,498
1235,371	2	-0,001
1236,355	-13,5	-3,496
1237,345	1,5	-0,014
1238,329	-13	-3,456
1239,313	0,5	-0,165
1240,303	-8	-2,998
1241,293	-1	-0,912
1242,283	-4,5	-2,266
1243,267	-3,5	-1,706
1244,257	-2,5	-1,456
1245,247	-7,5	-2,465
1246,242	0	-0,72
1247,226	-13,5	-3,151
1248,216	1,5	-0,052
1249,2	-13,5	-3,498
1250,19	2	-0,004
1251,18	-13,5	-3,487
1252,17	2	-0,042
1253,154	-11,5	-3,386
1254,144	0	-0,479
1255,134	-6,5	-2,659
1256,124	-2	-1,278
1257,108	-3	-1,863
1258,098	-5	-2,024
1259,094	-1,5	-1,119
1260,078	-10,5	-2,853
1261,068	1,5	-0,323
1262,058	-13,5	-3,499
1263,041	2	-0,002
1264,031	-13,5	-3,494
1265,021	2	-0,023
1266,011	-12,5	-3,438
1266,995	0,5	-0,24
1267,985	-7,5	-2,925
1268,975	-1	-1,069
1269,959	-4	-2,13
1270,949	-3,5	-1,79
1271,939	-2	-1,349
1272,929	-8	-2,604
1273,919	0,5	-0,568
1274,909	-13,5	-3,446
1275,893	2	-0,001
1276,883	-13,5	-3,496
1277,873	2	-0,013
1278,863	-13	-3,461
1279,853	1	-0,179
1280,842	-8	-3,013
1281,832	-0,5	-0,971
1282,816	-4	-2,16
1283,806	-3,5	-1,792
1284,802	-2	-1,42
1285,786	-8	-2,541
1286,776	0	-0,625
1287,766	-13,5	-3,371
1288,756	2	-0,001
1289,74	-13,5	-3,497
1290,736	2	-0,011
1291,726	-13	-3,471
1292,71	1	-0,125
1293,7	-8,5	-3,156
1294,69	-0,5	-0,818
1295,68	-4,5	-2,386
1296,664	-3	-1,609
1297,666	-2,5	-1,667
1298,655	-6,5	-2,324
1299,645	-0,5	-0,886
1300,629	-12,5	-3,07
1301,619	2	-0,058
1302,615	-13,5	-3,499
1303,605	2	-0,003
1304,589	-13	-3,488
1305,579	2	-0,04
1306,569	-11	-3,381
1307,565	0	-0,406
1308,549	-6	-2,731
1309,539	-2	-1,25
1310,535	-3	-1,92
1311,519	-5	-2,078
1312,509	-1,5	-1,099
1313,499	-10,5	-2,848
1314,489	1,5	-0,344
1315,478	-13,5	-3,5
1316,469	2	-0,002
1317,458	-13,5	-3,495
1318,442	2	-0,025
1319,438	-12	-3,43
1320,428	0	-0,279
1321,418	-6	-2,884
1322,402	-1,5	-1,13
1323,392	-3,5	-2,037
1324,388	-4	-1,886
1325,378	-1,5	-1,317
1326,362	-9,5	-2,665
1327,352	1,5	-0,495
1328,342	-13,5	-3,476
1329,326	2	-0,001
1330,316	-13,5	-3,496
1331,324	2	-0,011
1332,308	-13	-3,47
1333,298	1	-0,15
1334,287	-8	-3,08
1335,277	-0,5	-0,856
1336,261	-4	-2,259
1337,251	-3	-1,714
1338,241	-1,5	-1,435
1339,231	-8	-2,512
1340,215	0,5	-0,603
1341,205	-13,5	-3,372
1342,195	2	-0,001
1343,185	-13,5	-3,497
1344,169	2	-0,011
1345,159	-12,5	-3,466
1346,149	1	-0,152
1347,133	-8	-3,04
1348,123	-0,5	-0,908
1349,113	-4,5	-2,29
1350,103	-3	-1,64
1351,092	-2,5	-1,515
1352,076	-8	-2,493
1353,066	0	-0,683
1354,056	-13,5	-3,279
1355,04	2	-0,001
1356,037	-13,5	-3,498
1357,026	2	-0,008
1358,01	-13	-3,472
1359	1	-0,126
1359,99	-8,5	-3,128
1360,98	-0,5	-0,733
1361,964	-5	-2,45
1362,96	-2,5	-1,477
1363,944	-2,5	-1,627
1364,94	-6,5	-2,333
1365,924	-0,5	-0,829
1366,914	-13	-3,176
1367,904	2	0
1368,887	-13,5	-3,498
1369,877	2	-0,006
1370,867	-13	-3,482
1371,851	1,5	-0,071
1372,841	-10	-3,294
1373,831	0	-0,586
1374,821	-5,5	-2,582
1375,805	-2	-1,374
1376,795	-3	-1,84
1377,785	-5	-2,118
1378,781	-1	-1,041
1379,765	-11	-2,958
1380,755	2	-0,21
1381,745	-13	-3,499
1382,729	2	-0,002
1383,719	-13	-3,493
1384,709	2	-0,034
1385,698	-11	-3,415
1386,682	0,5	-0,356
1387,672	-6	-2,788
1388,662	-1	-1,127
1389,646	-3	-2,004
1390,636	-4,5	-2,006
1391,626	-1	-1,154
1392,616	-10,5	-2,851
1393,6	2	-0,266
1394,59	-13	-3,499
1395,58	2	-0,002
1396,564	-13	-3,492
1397,554	2	-0,034
1398,544	-11,5	-3,406
1399,534	0	-0,351
1400,524	-6,5	-2,798
1401,514	-1,5	-1,201
1402,498	-3	-1,914
1403,487	-4,5	-2,033
1404,477	-1	-1,085
1405,467	-10,5	-2,851
1406,451	2	-0,3
1407,441	-13	-3,499
1408,425	2	-0,002
1409,415	-13,5	-3,494
1410,405	2	-0,025
1411,395	-11,5	-3,428
1412,379	0,5	-0,281
1413,369	-7	-2,87
1414,359	-1	-1,119
1415,349	-3,5	-2,004
1416,333	-5	-2,031
1417,323	-1,5	-1,108
1418,313	-10,5	-2,823
1419,303	1,5	-0,326
1420,287	-13,5	-3,499
1421,276	2	-0,002
1422,266	-13,5	-3,493
1423,25	1,5	-0,034
1424,24	-11,5	-3,398
1425,23	0	-0,46
1426,214	-6	-2,712
1427,204	-1,5	-1,187
1428,194	-3	-1,958
1429,184	-4,5	-2,02
1430,168	-1,5	-1,115
1431,164	-10	-2,802
1432,154	1,5	-0,353
1433,138	-13,5	-3,499
1434,128	2	-0,002
1435,118	-13	-3,494
1436,108	1,5	-0,028
1437,098	-12	-3,421
1438,088	0	-0,288
1439,071	-6,5	-2,843
1440,061	-1	-1,145
1441,051	-3	-2,084
1442,035	-4,5	-1,935
1443,025	-1	-1,214
1444,015	-10	-2,764
1445,005	1,5	-0,38
1445,989	-13	-3,5
1446,979	2	-0,001
1447,969	-13	-3,496
1448,959	2	-0,015
1449,949	-12,5	-3,453
1450,939	0,5	-0,172
1451,929	-7,5	-3,038
1452,913	-1	-0,913
1453,903	-4	-2,222
1454,893	-3,5	-1,756
1455,876	-2	-1,358
1456,866	-8	-2,557
1457,856	0	-0,567
1458,846	-13	-3,434
1459,83	2	-0,001
1460,82	-13,5	-3,496
1461,81	1,5	-0,015
1462,794	-12	-3,449
1463,784	0,5	-0,226
1464,78	-7,5	-2,986
1465,77	-1	-0,967
1466,754	-3,5	-2,185
1467,738	-3,5	-1,846
1468,728	-1,5	-1,296
1469,712	-9,5	-2,714
1470,708	1	-0,545
1471,698	-13	-3,439
1472,682	2	-0,001
1473,673	-13	-3,497
1474,661	2	-0,015
1475,651	-12,5	-3,464
1476,635	1	-0,176
1477,625	-7,5	-3,024
1478,627	-0,5	-0,89
1479,611	-4	-2,225
1480,601	-3	-1,733
1481,591	-1,5	-1,424
1482,581	-7,5	-2,508
1483,571	0,5	-0,652
1484,561	-13	-3,338
1485,551	2	-0,001
1486,535	-13	-3,498
1487,525	2	-0,01
1488,515	-13	-3,471
1489,505	1	-0,128
1490,489	-7,5	-3,084
1491,478	-0,5	-0,826
1492,474	-4,5	-2,36
1493,459	-2,5	-1,596
1494,448	-2	-1,571
1495,438	-6	-2,382
1496,422	0	-0,711
1497,412	-13	-3,189
1498,402	2	0
1499,386	-13	-3,498
1500,376	2	-0,008
1501,366	-12,5	-3,479
1502,356	1,5	-0,078
1503,34	-9,5	-3,267
1504,33	-0,5	-0,666
1505,314	-5	-2,476
1506,304	-2,5	-1,514
1507,296	-2,5	-1,62
1508,277	-6,5	-2,394
1509,267	0	-0,736
1510,257	-12,5	-3,171
1511,241	2	0
1512,231	-13	-3,498
1513,221	2	-0,007
1514,205	-12,5	-3,476
1515,195	1,5	-0,102
1516,185	-9	-3,245
1517,169	0	-0,684
1518,159	-5	-2,461
1519,149	-2,5	-1,518
1520,139	-2,5	-1,643
1521,123	-5,5	-2,291
1522,113	-0,5	-0,892
1523,103	-12	-3,126
1524,087	2	0
1525,077	-13	-3,498
1526,066	2,5	-0,006
1527,05	-12,5	-3,48
1528,04	1,5	-0,078
1529,03	-9	-3,282
1530,014	0	-0,762
1531,004	-4,5	-2,416
1531,994	-2	-1,538
1532,978	-2	-1,562
1533,968	-6	-2,353
1534,958	0	-0,823
1535,948	-12,5	-3,2
1536,932	2	0
1537,922	-13	-3,498
1538,912	2	-0,007
1539,896	-12,5	-3,479
1540,886	1,5	-0,094
1541,876	-9,5	-3,272
1542,866	0	-0,645
1543,855	-5,5	-2,585
1544,845	-2	-1,404
1545,829	-2,5	-1,727
1546,819	-5,5	-2,247
1547,809	-0,5	-0,909
1548,793	-11,5	-3,092
1549,783	2	-0,017
1550,773	-13	-3,499
1551,757	2	-0,005
1552,753	-13	-3,486
1553,743	1,5	-0,069
1554,733	-10	-3,295
1555,723	0	-0,679
1556,713	-5	-2,488
1557,697	-2	-1,526
1558,693	-2,5	-1,686
1559,683	-6	-2,309
1560,673	-0,5	-0,836
1561,656	-12	-3,131
1562,652	2	-0,058
1563,642	-13	-3,499
1564,626	2	-0,004
1565,616	-13	-3,485
1566,606	1,5	-0,062
1567,59	-10,5	-3,335
1568,586	0	-0,491
1569,576	-6	-2,675
1570,56	-1,5	-1,26
1571,55	-3	-1,912
1572,54	-4,5	-2,003
1573,524	-1	-1,091
1574,514	-9,5	-2,809
1575,504	1,5	-0,367
1576,488	-13	-3,499
1577,478	2	-0,002
1578,467	-13	-3,494
1579,451	2	-0,028
1580,435	-11,5	-3,423
1581,425	0	-0,272
1582,415	-7,5	-2,94
1583,411	-0,5	-0,967
1584,395	-4	-2,183
1585,385	-3,5	-1,783
1586,369	-1,5	-1,337
1587,353	-8,5	-2,677
1588,343	1,5	-0,483
1589,327	-13	-3,5
1590,317	2	-0,001
1591,313	-13	-3,496
1592,297	2	-0,019
1593,287	-12	-3,442
1594,277	0,5	-0,214
1595,261	-7	-2,927
1596,25	-1	-1,054
1597,24	-4	-2,15
1598,224	-3,5	-1,848
1599,226	-1,5	-1,325
1600,21	-8,5	-2,626
1601,2	1	-0,535
1602,19	-13	-3,494
1603,186	2	-0,001
1604,17	-13	-3,496
1605,16	2	-0,014
1606,15	-12,5	-3,462
1607,134	1	-0,165
1608,124	-7,5	-3,043
1609,114	-0,5	-0,93
1610,098	-4	-2,18
1611,088	-3	-1,794
1612,078	-1,5	-1,367
1613,062	-8,5	-2,631
1614,051	0,5	-0,536
1615,047	-13	-3,427
1616,031	2	-0,001
1617,021	-13	-3,497
1618,011	2	-0,011
1618,995	-12,5	-3,469
1619,985	1	-0,136
1620,975	-8,5	-3,145
1621,959	-0,5	-0,907
1622,949	-4,5	-2,25
1623,939	-3	-1,729
1624,923	-1,5	-1,411
1625,913	-7	-2,514
1626,903	0	-0,642
1627,887	-13	-3,383
1628,877	2	-0,001
1629,867	-13	-3,498
1630,85	2	-0,01
1631,84	-12,5	-3,47
1632,83	1,5	-0,1
1633,814	-9	-3,176
1634,804	-0,5	-0,761
1635,794	-5	-2,489
1636,778	-2,5	-1,513
1637,768	-2,5	-1,712
1638,758	-5,5	-2,231
1639,742	-0,5	-0,885
1640,732	-12	-3,08
1641,722	2	-0,052
1642,706	-13	-3,499
1643,696	2	-0,005
1644,686	-13	-3,487
1645,67	1,5	-0,063
1646,672	-10,5	-3,363
1647,655	0	-0,522
1648,639	-5,5	-2,604
1649,623	-2	-1,384
1650,613	-3	-1,804
1651,603	-5	-2,159
1652,587	-1	-0,965
1653,577	-10,5	-2,95
1654,567	2	-0,202
1655,551	-13	-3,499
1656,541	2	-0,003
1657,531	-13	-3,491
1658,515	1,5	-0,046
1659,505	-11	-3,378
1660,495	0	-0,384
1661,479	-6	-2,75
1662,469	-1,5	-1,253
1663,459	-3	-1,86
1664,443	-5	-2,188
1665,433	-1	-0,989
1666,422	-10,5	-2,989
1667,406	2	-0,101
1668,396	-13	-3,499
1669,386	2	-0,004
1670,37	-12,5	-3,487
1671,36	1,5	-0,052
1672,35	-10,5	-3,353
1673,334	0	-0,551
1674,324	-5,5	-2,593
1675,32	-1,5	-1,254
1676,304	-3	-1,851
1677,294	-6,5	-2,438
1678,284	-0,5	-0,792
1679,268	-11,5	-3,116
1680,252	2	-0,046
1681,236	-12,5	-3,499
1682,226	2	-0,004
1683,21	-12,5	-3,486
1684,193	1,5	-0,053
1685,183	-9,5	-3,33
1686,173	0	-0,521
1687,157	-5,5	-2,631
1688,147	-1,5	-1,444
1689,137	-2,5	-1,756
1690,121	-5	-2,218
1691,111	-1	-0,965
1692,101	-10	-2,956
1693,085	2	-0,18
1694,075	-12,5	-3,499
1695,071	2	-0,002
1696,055	-12,5	-3,492
1697,045	2	-0,034
1698,035	-11	-3,4
1699,019	0	-0,37
1700,009	-6	-2,786
1700,999	-1	-1,119
1701,982	-3,5	-2,012
1702,972	-3,5	-1,94
1993,146	-3	-1,798
1994,136	-1,5	-1,356
1995,126	-7,5	-2,585
1996,11	1	-0,541
1997,1	-12,5	-3,48
1998,089	2	-0,001
1999,073	-12,5	-3,496
2000,063	1,5	-0,017
2001,053	-11,5	-3,448
2002,037	0	-0,267
2003,027	-6,5	-2,928
2004,011	-1	-1,028
2005,001	-3	-2,151
2005,991	-3	-1,84
2006,975	-1,5	-1,338
2007,965	-7,5	-2,603
2008,949	0,5	-0,544
2009,939	-12,5	-3,469
2010,929	2	-0,001
2011,913	-12,5	-3,497
2012,903	2	-0,013
2013,893	-12	-3,468
2014,884	1	-0,124
2015,875	-8	-3,175
2016,856	-0,5	-0,801
2017,84	-4,5	-2,334
2018,83	-2,5	-1,586
2019,814	-2	-1,535
2020,804	-6	-2,424
2021,794	0	-0,7
2022,778	-12,5	-3,276
2023,768	2	-0,001
2024,758	-12,5	-3,498
2025,748	2	-0,008
2026,738	-12	-3,475
2027,722	1,5	-0,105
2028,712	-8,5	-3,22
2029,702	0	-0,757
2030,686	-4,5	-2,374
2031,676	-2,5	-1,574
2032,666	-2	-1,613
2033,649	-6	-2,4
2034,639	0	-0,751
2035,623	-12	-3,208
2036,607	2	0
2037,597	-12,5	-3,498
2038,581	2	-0,007
2039,571	-12	-3,478
2040,555	1,5	-0,081
2041,545	-8,5	-3,238
2042,535	0	-0,741
2043,525	-4,5	-2,398
2044,509	-2,5	-1,604
2045,493	-2	-1,568
2046,483	-5,5	-2,364
2047,473	0	-0,814
2048,457	-12	-3,142
2049,447	2	-0,006
2050,436	-12,5	-3,499
2051,426	2	-0,004
2052,416	-12	-3,487
2053,4	2	-0,052
2054,39	-9,5	-3,348
2055,38	0	-0,494
2056,364	-5	-2,631
2057,354	-1,5	-1,353
2058,344	-2,5	-1,76
2059,328	-5	-2,26
2060,318	-0,5	-0,886
2061,308	-11	-3,056
2062,292	2,5	-0,041
2063,282	-12,5	-3,499
2064,266	2	-0,004
2065,256	-12	-3,488
2066,246	1,5	-0,044
2067,23	-10	-3,368
2068,22	0	-0,475
2069,209	-5	-2,67
2070,193	-1,5	-1,334
2071,183	-2,5	-1,822
2072,173	-4,5	-2,146
2073,157	-1	-1,001
2074,147	-10	-2,92
2075,131	2	-0,238
2076,121	-12	-3,499
2077,111	2	-0,002
2078,095	-12	-3,493
2079,085	1,5	-0,04
2080,075	-10	-3,38
2081,059	0	-0,503
2082,049	-5	-2,641
2083,039	-1,5	-1,31
2084,023	-2,5	-1,836
2085,013	-5	-2,212
2086,002	-0,5	-0,956
2086,986	-11	-3,071
2087,976	2	-0,078
2088,96	-12	-3,499
2089,95	2	-0,005
2090,94	-12	-3,483
2091,924	1,5	-0,078
2092,914	-9	-3,322
2093,904	0	-0,57
2094,888	-4,5	-2,556
2095,878	-1,5	-1,376
2096,862	-2,5	-1,734
2097,852	-4,5	-2,198
2098,842	-1	-0,969
2099,826	-11,5	-3,11
2281,579	-11,5	-3,496
2282,563	2	-0,017
2283,553	-10,5	-3,449
2284,537	0,5	-0,314
2285,527	-6	-2,872
2286,517	-0,5	-1,133
2287,507	-3	-2,044
2288,497	-2,5	-1,85
2289,487	-1	-1,306
2290,471	-7	-2,688
2291,461	1,5	-0,49
2292,451	-11,5	-3,479
2293,435	2	-0,001
2294,425	-11,5	-3,497
2295,409	2	-0,016
2296,398	-10,5	-3,449
2297,388	1	-0,238
2298,372	-6	-2,916
2299,362	-0,5	-1,062
2300,346	-3	-2,078
2301,336	-3	-1,958
2302,326	-1	-1,203
2303,31	-7,5	-2,774
2304,3	1,5	-0,37
2305,29	-11,5	-3,5
2306,274	2	-0,002
2307,258	-12	-3,494
2308,242	2	-0,025
2309,232	-10,5	-3,434
2310,222	0,5	-0,288
2311,206	-5,5	-2,828
2312,196	-1	-1,151
2313,179	-2,5	-1,963
2314,169	-3	-2,015
2315,165	-1	-1,148
2316,149	-8	-2,855
2317,139	2	-0,294
3185,38	-8	-3,491
3186,364	1,5	-0,039
3187,354	-6,5	-3,398
3188,343	0,5	-0,413
3189,327	-3	-2,718
3190,311	-0,5	-1,328
3191,295	-1,5	-1,846
3192,285	-2	-2,112
3193,275	-0,5	-1,065
3194,259	-6,5	-2,918
3195,249	1,5	-0,284
3196,233	-8	-3,499
3197,223	2	-0,002
3198,207	-8	-3,494
3199,203	2	-0,018
3200,193	-7,5	-3,448
3201,177	0,5	-0,311
3202,161	-3	-2,799
3203,145	-0,5	-1,29
3204,135	-1,5	-1,93
3205,119	-1,5	-2,058
3206,108	-0,5	-1,076
3207,092	-5	-2,923
3208,082	2	-0,268
3209,072	-7,5	-3,499
3210,056	2	-0,002
3211,046	-8	-3,492
3212,03	1,5	-0,036
3212,276	2	-0,001