File: ensaios_Ciclicos/_50perc/_1gap/entrada/_3.txt
Time (s)	Load (N)	Displacement (mm)
72,865	0	-0,206
74,371	-17,5	-3,418
75,883	-8	-2,325
77,383	1,5	-0,005
78,889	-9,5	-2,198
80,383	-14,5	-3,335
81,883	1,5	-0,17
83,383	-4	-1,192
84,883	-17,5	-3,493
86,394	-3	-1,147
87,903	0	-0,193
89,394	-17,5	-3,5
90,894	-6,5	-2,078
92,394	1,5	-0,014
93,894	-12,5	-2,619
95,4	-11	-3,024
96,9	1,5	-0,001
98,4	-6	-1,612
99,9	-16,5	-3,471
101,4	0	-0,656
102,906	-1,5	-0,676
104,411	-17	-3,498
105,911	-4,5	-1,632
107,411	1,5	-0,047
108,911	-15	-2,982
255,891	1,5	-0,037
257,397	-11,5	-2,774
258,897	-10	-2,888
260,402	1,5	-0,001
261,908	-3,5	-1,49
263,414	-15	-3,482
264,914	-1	-0,903
266,432	0	-0,397
267,932	-15	-3,5
269,438	-5,5	-1,991
270,946	1,5	-0,015
272,444	-10,5	-2,586
273,938	-10,5	-3,003
275,444	1,5	-0,001
276,944	-5	-1,676
278,443	-15	-3,469
279,943	0	-0,645
281,443	-0,5	-0,687
282,949	-15	-3,499
284,455	-4	-1,785
285,955	1,5	-0,036
287,449	-13,5	-2,885
288,949	-8,5	-2,74
290,449	1,5	-0,002
437,242	-4,5	-2,099
438,742	2	-0,012
440,236	-10,5	-2,646
441,731	-9	-2,921
443,23	2	-0,001
444,73	-4	-1,612
446,224	-14,5	-3,474
447,724	0	-0,722
449,23	-0,5	-0,613
450,73	-15	-3,499
452,223	-3,5	-1,704
453,723	1,5	-0,039
455,223	-12,5	-2,881
456,723	-7,5	-2,717
458,217	2	-0,003
459,717	-6	-1,97
461,223	-13	-3,424
462,723	1,5	-0,344
464,217	-2	-1,048
465,711	-15	-3,496
467,217	-2	-1,272
468,717	0,5	-0,164
470,223	-14,5	-3,407
471,722	-5	-2,196
473,222	1,5	-0,009
474,722	-9,5	-2,47
476,216	-10,5	-3,132
477,717	1,5	-0,001
479,21	-4	-1,557
480,704	-14,5	-3,479
482,204	-0,5	-0,787
483,704	0	-0,57
485,204	-15	-3,499
486,71	-4	-1,834
488,209	1,5	-0,024
489,709	-10,5	-2,716
491,209	-9	-2,909
492,709	2	-0,001
494,209	-4,5	-1,742
495,709	-14	-3,463
497,209	0	-0,59
498,709	-1	-0,73
500,209	-15	-3,498
501,703	-3	-1,592
503,203	1,5	-0,064
504,715	-13,5	-3,014
506,22	-7	-2,608
507,72	1,5	-0,002
726,642	0,5	-0,198
728,136	-14	-3,489
729,636	-4,5	-2,171
731,13	2	-0,011
732,629	-7,5	-2,447
734,123	-9,5	-3,095
735,623	2	-0,001
737,117	-3	-1,534
738,611	-13,5	-3,477
740,111	-1	-0,838
741,605	0	-0,603
743,099	-14	-3,499
744,599	-3	-1,721
746,093	1,5	-0,037
747,587	-11	-2,922
749,093	-7,5	-2,696
750,586	1,5	-0,002
752,08	-4,5	-1,932
753,58	-12,5	-3,415
755,074	1,5	-0,263
756,574	-1,5	-1,04
758,074	-14	-3,496
759,568	-2,5	-1,246
761,062	0,5	-0,149
762,562	-14	-3,32
764,056	-5	-2,287
765,556	1,5	-0,008
767,05	-8,5	-2,447
768,543	-9	-3,149
770,037	1,5	-0,001
771,531	-3	-1,518
773,025	-13,5	-3,48
774,525	-0,5	-0,824
776,026	0	-0,582
777,519	-13,5	-3,499
779,019	-3	-1,694
780,513	1,5	-0,049
782,007	-11	-2,874
783,513	-7	-2,749
785,007	2	-0,002
786,5	-5,5	-1,973
788	-12,5	-3,434
789,494	1,5	-0,41
790,988	-1	-0,948
792,488	-13,5	-3,497
793,982	-2	-1,398
795,476	1	-0,118
796,972	-13,5	-3,28
798,47	-5	-2,376
799,964	2	-0,006
801,464	-6,5	-2,258
802,963	-11	-3,342
804,457	2	-0,142
805,951	-2	-1,286
807,445	-13,5	-3,489
808,945	-1,5	-1,048
810,451	0	-0,22
811,945	-13,5	-3,5
813,451	-4	-2,062
814,945	2	-0,015
816,439	-10	-2,67
817,939	-7,5	-2,892
819,439	2	-0,001
820,933	-4,5	-1,822
822,426	-12,5	-3,444
823,926	1	-0,511
825,42	-1,5	-0,898
826,914	-13,5	-3,497
828,408	-2	-1,347
829,902	1	-0,113
831,396	-13,5	-3,26
832,89	-5	-2,349
834,384	2	-0,006
1234,087	0	-0,651
1235,581	0	-0,753
1237,075	-13	-3,498
1238,569	-2,5	-1,679
1240,063	2	-0,036
1241,562	-9,5	-2,816
1243,056	-7,5	-2,789
1244,55	2	-0,002
1246,05	-3,5	-1,796
1247,544	-12,5	-3,455
1249,038	0	-0,641
1250,532	-0,5	-0,716
1252,026	-13	-3,498
1253,52	-3	-1,636
1255,014	1,5	-0,046
1256,508	-11,5	-2,99
1258,001	-6	-2,588
1259,501	2	-0,002
1261,001	-3,5	-1,854
1262,495	-12,5	-3,448
1263,989	1,5	-0,45
1265,483	-0,5	-0,928
1266,977	-13	-3,498
1268,471	-2	-1,435
1269,965	1,5	-0,082
1271,465	-11	-2,971
1272,967	-6	-2,638
1274,459	2	-0,003
1275,952	-5	-1,972
1277,446	-11,5	-3,425
1278,94	2	-0,358
1280,434	-1	-1,029
1281,928	-13	-3,496
1283,422	-1,5	-1,359
1284,916	1	-0,131
1286,41	-13	-3,3
1287,904	-4,5	-2,366
1289,398	2	-0,005
1290,892	-5,5	-2,197
1292,385	-10,5	-3,372
1293,885	2	-0,246
1295,379	-1,5	-1,149
1296,873	-12,5	-3,494
1298,373	-1,5	-1,206
1299,867	0,5	-0,172
1301,361	-12,5	-3,37
1302,855	-4,5	-2,249
1304,349	2	-0,008
1305,843	-7,5	-2,43
1307,337	-9	-3,221
1308,831	2	-0,001
1310,33	-2	-1,389
1311,83	-13	-3,488
1313,324	-1	-0,967
1314,818	0	-0,444
1316,312	-12,5	-3,5
1317,806	-3	-2,014
1319,3	2	-0,015
1320,794	-8	-2,589
1322,288	-7,5	-3,041
1323,782	2	-0,001
1325,276	-2,5	-1,542
1326,776	-12,5	-3,479
1328,276	-0,5	-0,859
1329,769	0	-0,486
1331,257	-13	-3,499
1332,751	-3	-1,873
1334,251	2	-0,024
1335,745	-10	-2,749
1337,245	-6,5	-2,854
1338,733	2	-0,002
1340,227	-4,5	-1,866
1341,733	-12	-3,447
1343,227	1,5	-0,449
1344,727	-0,5	-0,876
1346,226	-13	-3,498
1347,72	-2	-1,473
1349,214	1	-0,093
1350,708	-13	-3,279
1352,202	-4,5	-2,356
1353,696	2	-0,005
1355,19	-6	-2,316
1356,684	-9	-3,241
1358,178	2	0
1359,672	-2	-1,407
1361,166	-12,5	-3,483
1362,659	-0,5	-0,924
1364,153	0	-0,41
1365,653	-12,5	-3,499
1367,147	-3,5	-2,024
1368,641	2	-0,017
1370,135	-8,5	-2,629
1371,635	-8	-3,045
1373,129	2	-0,001
1374,623	-3	-1,651
1376,117	-12,5	-3,471
1377,611	0	-0,67
1379,105	0	-0,698
1380,598	-12,5	-3,498
1382,098	-2,5	-1,668
1383,592	1,5	-0,054
1385,104	-11,5	-2,943
1386,598	-5,5	-2,642
1388,092	2	-0,003
1389,586	-4,5	-1,963
1391,08	-11	-3,426
1392,574	1,5	-0,383
1394,068	-1	-1,053
1395,562	-12,5	-3,496
1397,062	-1,5	-1,261
1398,555	1	-0,161
1400,049	-13	-3,377
1401,549	-4,5	-2,265
1403,043	2	-0,007
1404,537	-7	-2,378
1406,031	-9	-3,23
1407,525	2	-0,018
1409,025	-1,5	-1,331
1410,525	-12,5	-3,49
1412,013	-1	-1,032
1413,507	0	-0,353
1415,007	-12,5	-3,5
1416,5	-3	-2,01
1417,994	1,5	-0,018
1419,488	-8,5	-2,617
1420,982	-7,5	-2,993
1422,476	2	-0,001
1423,97	-3	-1,706
1425,464	-12,5	-3,466
1426,958	1	-0,635
1428,452	-0,5	-0,796
1429,958	-12,5	-3,498
1431,446	-2	-1,548
1432,939	1	-0,072
1434,433	-12	-3,165
1435,927	-5	-2,422
1437,415	2	-0,004
1438,909	-5,5	-2,213
1440,403	-10	-3,319
1441,903	2	-0,058
1443,397	-2,5	-1,417
1444,891	-12,5	-3,485
1446,391	-1	-0,929
1447,885	0	-0,476
1449,379	-12,5	-3,499
1450,872	-3	-1,827
1452,366	1,5	-0,026
1453,86	-10,5	-2,846
1455,354	-6	-2,722
1456,848	2	-0,002
1458,348	-4,5	-1,943
1459,842	-11,5	-3,417
1461,342	1	-0,423
1462,836	-1	-0,991
1464,33	-12,5	-3,496
1465,83	-1,5	-1,38
1467,323	1	-0,126
1468,817	-12,5	-3,25
1470,312	-4,5	-2,332
1471,805	2	-0,007
1473,299	-7,5	-2,443
1474,793	-8	-3,11
1476,293	2	-0,001
1477,787	-3	-1,638
1479,281	-12,5	-3,472
1480,775	0,5	-0,594
1482,269	-0,5	-0,826
1483,763	-12,5	-3,498
1485,256	-2	-1,478
1486,75	1,5	-0,092
1488,244	-12,5	-3,274
1489,738	-4,5	-2,324
1491,238	2	-0,007
1492,732	-6,5	-2,351
1494,232	-9	-3,246
1495,726	2	-0,003
1497,22	-1,5	-1,315
1498,714	-12,5	-3,488
1500,214	-1	-1,008
1501,702	0	-0,432
1503,196	-12,5	-3,499
1504,695	-3	-1,913
1506,196	2	-0,018
1507,689	-8,5	-2,678
1509,183	-7,5	-2,929
1510,677	2	-0,001
1512,171	-3,5	-1,687
1513,665	-12	-3,471
1515,159	0	-0,75
1516,653	0	-0,622
1518,147	-12,5	-3,499
1519,64	-2,5	-1,756
1521,134	1,5	-0,038
1522,628	-10	-2,859
1524,122	-6	-2,746
1525,616	2	-0,002
1527,11	-4,5	-1,976
1528,604	-10,5	-3,365
1530,098	2	-0,114
1531,592	-1,5	-1,309
1533,086	-12,5	-3,488
1534,58	-1	-0,957
1536,074	0	-0,527
1537,567	-12,5	-3,499
1539,067	-3	-1,775
1540,561	2	-0,032
1542,055	-9,5	-2,798
1543,555	-6	-2,806
1545,049	2	-0,002
1546,541	-3,5	-1,843
1548,031	-11,5	-3,433
1549,531	1,5	-0,354
1551,025	-1	-1,012
1552,519	-12,5	-3,497
1554,013	-1,5	-1,426
1555,512	1,5	-0,091
1557,006	-12	-3,21
1558,5	-4,5	-2,323
1559,994	2	-0,007
1561,488	-6,5	-2,36
1562,982	-9	-3,231
1564,476	2	0
1565,97	-2	-1,44
1567,464	-12	-3,482
1568,964	-0,5	-0,825
1570,464	0	-0,544
1571,958	-12,5	-3,499
1573,451	-2,5	-1,686
1574,945	1,5	-0,055
1576,439	-11	-3,02
1577,933	-5,5	-2,595
1579,427	2	-0,004
1580,921	-5	-2,159
1582,415	-10	-3,334
1583,909	2	-0,006
1585,403	-2	-1,45
1586,897	-12	-3,485
1588,391	-1	-0,945
1589,886	0	-0,508
1591,378	-12,5	-3,499
1592,872	-2,5	-1,835
1594,366	1,5	-0,038
1595,86	-10,5	-2,964
1597,354	-5,5	-2,569
1598,848	2	-0,004
1600,342	-5,5	-2,248
1601,836	-10	-3,32
1603,336	2	-0,053
1604,83	-2	-1,357
1606,324	-12,5	-3,488
1607,817	-1	-0,937
1609,311	0	-0,457
1610,805	-12,5	-3,499
1612,299	-3	-1,869
1613,799	2	-0,024
1615,293	-8,5	-2,717
1616,787	-6,5	-2,83
1618,281	1,5	-0,002
1619,769	-4	-1,858
1621,263	-11	-3,434
1622,757	1,5	-0,456
1624,251	-1	-1,037
1625,751	-12,5	-3,496
1627,238	-2	-1,411
1628,732	1	-0,148
1630,226	-12	-3,377
1631,72	-4	-2,219
1633,214	2	-0,01
1634,708	-7,5	-2,508
1636,202	-8	-3,097
1637,696	2	-0,001
1639,19	-3	-1,678
1640,684	-12	-3,468
1642,177	0	-0,675
1643,671	0	-0,757
1645,165	-12,5	-3,498
1646,659	-2	-1,5
1648,153	1,5	-0,097
1649,647	-12	-3,192
1651,141	-4,5	-2,426
1652,641	2	-0,004
1654,135	-5	-2,181
1655,629	-10,5	-3,362
1657,123	2	-0,238
1658,617	-1	-1,127
1660,11	-12,5	-3,493
1661,604	-1	-1,049
1663,098	0	-0,354
1664,592	-12,5	-3,499
1666,086	-3	-1,885
1667,58	1,5	-0,028
1669,08	-9	-2,721
1670,574	-7,5	-2,9
1672,068	1,5	-0,001
1673,562	-3	-1,762
1675,056	-11,5	-3,45
1676,55	1,5	-0,391
1678,043	-1	-1,034
1679,537	-12,5	-3,496
1681,031	-1,5	-1,275
1682,525	1	-0,16
1684,019	-12,5	-3,382
1685,513	-4	-2,217
1687,013	1,5	-0,008
1688,501	-7	-2,451
1690,007	-9	-3,219
1691,501	2	-0,002
1692,995	-1,5	-1,406
1694,489	-12,5	-3,486
1695,982	-1	-0,957
1697,476	0	-0,415
1698,97	-12,5	-3,499
1700,464	-3	-1,914
1701,958	1,5	-0,025
1703,458	-8,5	-2,676
1704,958	-7	-2,96
1706,452	2	-0,001
1707,946	-3	-1,757
1709,44	-12	-3,456
1710,934	0	-0,568
1712,428	-0,5	-0,873
1713,921	-12,5	-3,497
1715,415	-2	-1,404
1716,909	1	-0,119
1718,403	-12,5	-3,241
1719,897	-4,5	-2,362
1721,391	2	-0,006
1722,885	-5,5	-2,338
1724,379	-9	-3,254
1725,873	1,5	0
1727,367	-1,5	-1,412
1728,861	-12	-3,485
1730,354	-0,5	-0,85
1731,848	0	-0,56
1733,342	-12,5	-3,499
1734,836	-2,5	-1,706
1736,33	1,5	-0,045
1737,824	-9,5	-2,95
1739,318	-5,5	-2,644
1740,812	2	-0,003
1742,306	-3,5	-1,971
1743,794	-11	-3,41
1745,294	1	-0,471
1746,788	-0,5	-0,928
1748,281	-12	-3,497
1749,775	-1,5	-1,402
1751,269	1	-0,124
1752,763	-12	-3,275
1754,257	-4,5	-2,334
1755,757	2	-0,006
1757,245	-6	-2,378
1758,739	-8,5	-3,159
1760,233	1,5	-0,001
1761,733	-2	-1,511
1763,227	-12	-3,48
1764,72	-0,5	-0,846
1766,214	0	-0,542
1767,708	-12	-3,499
1769,208	-3	-1,807
1770,708	1,5	-0,029
1772,202	-9	-2,858
1773,708	-6	-2,722
1775,202	2	-0,002
1776,696	-4	-1,967
1778,19	-11	-3,42
1779,684	1,5	-0,266
1781,178	-1	-1,094
1782,671	-12,5	-3,495
1784,165	-1,5	-1,252
1785,653	0,5	-0,196
1787,147	-12	-3,4
1788,641	-4,5	-2,372
1790,141	2	-0,005
1791,641	-5,5	-2,263
1793,141	-10,5	-3,375
1794,635	1,5	-0,374
1796,129	-1	-0,955
1797,623	-12,5	-3,497
1799,117	-1,5	-1,428
1800,61	1	-0,107
1802,104	-12	-3,161
1803,598	-4,5	-2,461
1805,092	1,5	-0,004
1806,586	-5	-2,112
1808,08	-10,5	-3,378
1809,574	1,5	-0,296
1811,068	-1	-1,122
1812,562	-12,5	-3,495
1814,056	-1,5	-1,221
1815,55	0,5	-0,205
1817,05	-12	-3,342
1818,543	-4	-2,245
1820,037	2	-0,009
1821,531	-7,5	-2,477
1823,025	-8	-3,124
1824,519	2	-0,001
1826,013	-2,5	-1,572
1827,507	-12	-3,477
1829,007	0	-0,796
1830,501	0	-0,621
1831,995	-12,5	-3,499
1833,489	-2	-1,732
1834,976	1,5	-0,046
1836,47	-11	-3,016
1837,964	-5	-2,58
1839,458	1,5	-0,003
1840,952	-4,5	-2,014
1842,446	-10,5	-3,407
1843,94	1,5	-0,309
1845,434	-1	-1,098
1846,934	-12,5	-3,496
1848,428	-1,5	-1,245
1849,922	0,5	-0,191
1851,416	-12,5	-3,401
1852,909	-4	-2,276
1854,409	2	-0,007
1855,903	-6	-2,36
1857,397	-8,5	-3,212
1858,891	2	0
1860,385	-2,5	-1,466
1861,879	-12	-3,482
1863,373	0	-0,811
1864,867	0	-0,524
1866,361	-12	-3,499
1867,856	-2,5	-1,912
1869,349	1,5	-0,024
1870,836	-8,5	-2,728
1872,336	-7	-2,892
1873,824	2	-0,001
1875,318	-2,5	-1,631
1876,812	-12	-3,472
1878,306	0	-0,669
1879,8	0	-0,719
1881,294	-12	-3,498
1882,788	-2,5	-1,685
1884,288	1,5	-0,041
1885,782	-9,5	-2,884
1887,275	-6	-2,774
1888,769	2	-0,002
1890,263	-3,5	-1,905
1891,757	-11	-3,43
1893,257	1,5	-0,428
1894,751	-0,5	-0,923
1896,245	-12	-3,497
1897,745	-1,5	-1,459
1899,239	1,5	-0,099
1900,733	-12	-3,278
1902,233	-4	-2,341
1903,727	2	-0,006
1905,226	-5,5	-2,281
1906,72	-8,5	-3,249
1908,214	2	-0,03
1909,714	-1,5	-1,267
1911,208	-12	-3,491
1912,702	-1	-1,048
1914,202	0	-0,304
1915,69	-12	-3,5
1917,178	-3	-2,029
1918,672	1,5	-0,014
1920,166	-7,5	-2,518
1921,666	-8	-3,152
1923,16	2	0
1924,653	-1,5	-1,459
1926,153	-12	-3,486
1927,647	-0,5	-0,89
1929,141	0	-0,53
1930,635	-12	-3,499
1932,129	-2,5	-1,832
1933,623	1,5	-0,028
1935,117	-9	-2,772
1936,611	-5,5	-2,776
1938,111	2	-0,002
1939,605	-3	-1,746
1941,098	-11,5	-3,458
1942,592	0	-0,611
1944,08	0	-0,776
1945,574	-12	-3,498
1947,062	-1,5	-1,498
1948,556	1,5	-0,082
1950,056	-11,5	-3,163
1951,55	-4	-2,392
1953,044	2	-0,005
1954,538	-5	-2,246
1956,032	-9,5	-3,303
1957,531	2	-0,076
1959,031	-1	-1,286
1960,525	-12	-3,492
1962,019	-1	-1,151
1963,513	0,5	-0,234
1965,013	-12	-3,456
1966,507	-3	-2,122
1968,001	2	-0,011
1969,495	-6,5	-2,494
1970,989	-7,5	-3,107
1972,477	2	0
1973,971	-2	-1,484
1975,465	-11,5	-3,482
1976,952	-0,5	-0,831
1978,452	0	-0,5
1979,946	-12	-3,499
1981,44	-3	-1,867
1982,934	2	-0,023
1984,428	-8,5	-2,789
1985,928	-6	-2,813
1987,422	2	-0,001
1988,916	-3	-1,743
1990,41	-11,5	-3,467
1991,904	0	-0,667
1993,398	0	-0,716
1994,891	-12	-3,498
1996,385	-1,5	-1,582
1997,891	1,5	-0,055
1999,385	-10,5	-3,048
2000,879	-4,5	-2,542
2002,373	2	-0,003
2003,861	-4	-2,104
2005,355	-9,5	-3,351
2006,849	2	-0,128
2008,343	-1	-1,214
2009,837	-12	-3,494
2011,33	-1,5	-1,24
2012,824	0,5	-0,205
2014,318	-11,5	-3,498
2015,818	-3	-2,095
2017,318	2	-0,01
2018,812	-6,5	-2,543
2020,306	-7,5	-3,029
2021,8	2	-0,001
2023,294	-2,5	-1,596
2024,788	-11,5	-3,475
2026,288	-0,5	-0,77
2027,775	0	-0,594
2029,269	-11,5	-3,499
2030,763	-2	-1,66
2032,257	1,5	-0,05
2033,751	-9,5	-2,971
2035,245	-5,5	-2,63
2036,739	2	-0,003
2038,233	-4	-2,055
2039,727	-10	-3,383
2041,221	2	-0,235
2042,715	-1	-1,144
2044,209	-11,5	-3,494
2045,702	-1	-1,126
2047,196	0,5	-0,256
2048,69	-11,5	-3,5
2050,19	-3	-2,11
2051,678	2	-0,014
2053,172	-7,5	-2,636
2054,666	-6,5	-2,941
2056,16	2	-0,001
2057,66	-2,5	-1,644
2059,154	-11	-3,472
2060,648	0	-0,698
2062,142	0	-0,712
2063,635	-11,5	-3,498
2065,129	-2	-1,592
2066,623	1,5	-0,058
2068,117	-10,5	-3,023
2069,617	-4,5	-2,591
2071,111	2	-0,003
2072,605	-3,5	-2,056
2074,099	-9,5	-3,387
2075,593	2	-0,272
2077,081	-1	-1,093
2078,581	-11	-3,496
2080,074	-1	-1,221
2081,568	1	-0,186
2083,062	-11	-3,426
2084,556	-3	-2,153
2086,05	2	-0,008
2087,544	-5,5	-2,43
2089,038	-7	-3,138
2090,532	2	-0,001
2092,026	-1,5	-1,45
2093,52	-11	-3,482
2095,014	-0,5	-0,832
2096,508	0	-0,545
2098,001	-11	-3,499
2099,495	-2	-1,742
2100,989	1,5	-0,042
2102,483	-9	-2,926
2103,977	-5	-2,647
2105,471	2	-0,002
2106,965	-3,5	-2,004
2108,459	-9,5	-3,412
2109,954	1,5	-0,394
2111,447	-0,5	-0,96
2112,941	-11	-3,497
2114,435	-1,5	-1,391
2115,928	1	-0,111
2117,422	-10,5	-3,179
2118,916	-4	-2,386
2120,416	2	-0,005
2121,904	-4,5	-2,256
2123,398	-8	-3,304
2124,892	2	-0,174
2126,386	-1	-1,148
2127,88	-11	-3,495
2129,374	-1,5	-1,293
2130,868	1	-0,145
2132,361	-10,5	-3,301
2133,855	-3,5	-2,325
2135,349	2	-0,006
2136,837	-5	-2,32
2138,331	-8	-3,264
2139,825	2	-0,046
2141,325	-1	-1,278
2142,819	-11	-3,489
2144,313	-1	-1,057
2145,807	0,5	-0,352
2147,307	-11	-3,5
2148,801	-3	-1,934
2150,3	2	-0,02
2151,794	-6,5	-2,608
2153,282	-6,5	-2,977
2154,776	2	-0,001
2156,264	-2	-1,669
2157,758	-10,5	-3,466
2159,252	0	-0,705
2160,746	0	-0,656
2162,252	-10,5	-3,499
2163,746	-2,5	-1,797
2165,24	2	-0,035
2166,734	-8,5	-2,876
2168,227	-5	-2,708
2169,715	2	-0,002
2171,209	-3	-1,99
2172,703	-10	-3,414
2174,197	1,5	-0,393
2175,685	-0,5	-1,024
2177,185	-10,5	-3,496
2178,679	-1,5	-1,325
2180,173	1	-0,154
2181,667	-10,5	-3,445
2183,167	-3	-2,18
2184,661	2	-0,008
2186,154	-5,5	-2,419
2187,642	-7	-3,13
2189,142	2	0
2190,636	-1,5	-1,488
2192,13	-10,5	-3,482
2193,624	-0,5	-0,837
2195,118	0	-0,556
2196,612	-10,5	-3,499
2198,106	-2	-1,716
2199,6	1,5	-0,042
2201,094	-9,5	-2,953
2202,588	-4,5	-2,605
2204,081	2	-0,003
2205,581	-3	-1,974
2207,069	-10	-3,409
2208,563	2	-0,22
2210,063	-1	-1,187
2211,557	-10,5	-3,493
2213,051	-1	-1,09
2214,545	0,5	-0,314
2216,039	-10,5	-3,5
2217,533	-3	-2,055
2219,027	2	-0,016
2220,52	-6	-2,583
2222,014	-6,5	-2,964
2223,508	2	-0,001
2225,008	-2,5	-1,712
2226,502	-10,5	-3,464
2227,996	0	-0,592
2229,49	0	-0,813
2230,978	-10,5	-3,498
2232,472	-1,5	-1,505
2233,966	1,5	-0,08
2235,46	-10	-3,16
2236,954	-4,5	-2,435
2238,447	2	-0,005
2239,941	-4	-2,189
2241,435	-9	-3,338
2242,929	2	-0,076
2244,417	-1	-1,29
2245,917	-10,5	-3,489
2247,411	-0,5	-1,035
2248,917	0,5	-0,319
2250,411	-10,5	-3,5
2251,905	-3	-2,032
2253,405	2	-0,014
2254,898	-6	-2,601
2256,392	-6	-2,972
2257,886	2	-0,001
2259,38	-2	-1,622
2260,868	-10,5	-3,47
2262,368	0	-0,715
2263,862	0	-0,637
2265,356	-10,5	-3,499
2266,85	-2	-1,721
2268,344	1,5	-0,04
2269,844	-8	-2,812
2271,338	-5	-2,751
2272,831	2	-0,002
2274,319	-2,5	-1,842
2275,813	-10	-3,459
2277,307	0	-0,69
2278,801	0	-0,665
2280,295	-10,5	-3,499
2281,789	-2	-1,735
2283,283	1,5	-0,036
2284,777	-8	-2,875
2286,271	-5	-2,719
2287,765	2	-0,002
2289,259	-2,5	-1,821
2290,752	-10	-3,452
2292,241	0	-0,69
2293,734	0	-0,696
2295,228	-10,5	-3,498
2296,722	-1,5	-1,624
2298,216	1,5	-0,055
2299,71	-9	-2,987
2301,21	-4,5	-2,639
2302,704	2	-0,003
2304,198	-3	-1,964
2305,686	-9	-3,411
2307,186	2	-0,379
2308,679	-0,5	-0,96
2310,179	-10,5	-3,497
2311,673	-1,5	-1,469
2313,167	1,5	-0,081
2314,661	-10	-3,157
2316,161	-4	-2,516
2317,655	2	-0,004
2319,143	-4,5	-2,137
2320,637	-8,5	-3,379
2322,137	2	-0,294
2323,631	-0,5	-1,072
2325,124	-10,5	-3,495
2326,618	-1	-1,231
2328,112	1	-0,178
2329,612	-10,5	-3,333
2331,106	-3	-2,257
2332,6	2	-0,008
2334,094	-5	-2,41
2335,588	-7	-3,184
2337,076	2	-0,001
2338,57	-1,5	-1,536
2340,064	-10	-3,48
2341,558	0	-0,789
2343,051	0	-0,562
2344,545	-10,5	-3,499
2346,039	-2	-1,752
2347,533	2	-0,04
2349,027	-9,5	-2,931
2350,521	-4,5	-2,695
2352,009	2	-0,002
2353,503	-3,5	-1,988
2354,997	-9	-3,419
2356,491	1,5	-0,347
2357,985	-0,5	-1,018
2359,48	-10,5	-3,496
2360,972	-1	-1,35
2362,466	1,5	-0,107
2363,96	-10,5	-3,172
2365,448	-4	-2,426
2366,942	2	-0,005
2368,436	-4	-2,158
2369,93	-8,5	-3,373
2371,424	1,5	-0,304
2372,918	-0,5	-1,05
2374,412	-10,5	-3,496
2375,906	-1	-1,344
2377,393	1	-0,143
2378,888	-10,5	-3,296
2380,381	-3	-2,299
2381,875	2	-0,006
2383,369	-4,5	-2,317
2384,863	-8	-3,278
2386,363	2	-0,186
2387,857	-1	-1,148
2389,351	-10,5	-3,496
2390,839	-1	-1,258
2392,333	1	-0,161
2393,827	-10,5	-3,247
2395,32	-3	-2,334
2396,814	2	-0,006
2398,314	-5	-2,342
2399,808	-7	-3,239
2401,302	2	0
2402,796	-1	-1,334
2404,284	-10,5	-3,488
2405,784	-0,5	-1,011
2407,278	0	-0,303
2408,772	-10,5	-3,49
2410,272	-3	-2,191
2411,766	2	-0,009
2413,259	-5,5	-2,451
2414,753	-6,5	-3,132
2416,247	2	-0,001
2417,741	-1,5	-1,493
2419,229	-10,5	-3,479
2420,723	-0,5	-0,85
2422,217	0	-0,511
2423,711	-10,5	-3,499
2425,205	-2,5	-1,856
2426,699	2	-0,025
2428,193	-7,5	-2,765
2429,687	-5,5	-2,936
2431,186	2	-0,001
2432,68	-2	-1,67
2434,168	-10	-3,468
2435,662	0	-0,732
2437,156	0	-0,656
2438,65	-10,5	-3,499
2440,144	-2	-1,705
2441,638	2	-0,037
2443,132	-8	-2,846
2444,626	-5	-2,77
2446,12	2	-0,002
2447,614	-2,5	-1,755
2449,101	-10	-3,457
2450,595	0,5	-0,668
2452,089	0	-0,714
2453,589	-10,5	-3,499
2455,083	-2	-1,773
2456,583	2	-0,033
2458,077	-7,5	-2,748
2459,565	-5,5	-2,9
2461,065	2	-0,001
2462,559	-2	-1,704
2464,053	-10	-3,472
2465,546	0	-0,844
2467,04	0	-0,476
2468,534	-10	-3,499
2470,028	-2,5	-1,961
2471,522	2	-0,02
2473,016	-6	-2,59
2474,51	-5,5	-2,972
2475,998	2	-0,001
2477,492	-1,5	-1,482
2478,986	-10	-3,481
2480,486	0	-0,846
2481,979	0	-0,541
2483,473	-10	-3,499
2484,973	-2	-1,772
2486,461	1,5	-0,04
2487,955	-8,5	-2,922
2489,449	-4,5	-2,694
2490,943	2	-0,003
2492,437	-2,5	-1,91
2493,931	-9,5	-3,444
2495,425	0,5	-0,553
2496,919	0	-0,782
2498,413	-10	-3,498
2499,9	-2	-1,672
2501,4	1,5	-0,046
2502,888	-8,5	-2,878
2504,388	-5	-2,778
2505,882	2	-0,002
2507,376	-2,5	-1,763
2508,87	-10	-3,465
2510,364	0	-0,647
2511,858	0	-0,73
2513,352	-10	-3,498
2514,846	-1,5	-1,664
2516,34	1,5	-0,044
2517,833	-9	-2,934
2519,327	-4,5	-2,68
2520,821	2	-0,003
2522,315	-2,5	-1,913
2523,803	-9,5	-3,429
2525,303	0,5	-0,545
2526,797	0	-0,811
2528,297	-10	-3,498
2529,803	-2	-1,752
2531,297	1,5	-0,035
2532,791	-8	-2,84
2534,285	-5	-2,763
2535,772	2	-0,002
2537,266	-2,5	-1,764
2538,76	-10	-3,462
2540,254	0	-0,592
2541,748	0	-0,732
2543,242	-10	-3,498
2544,736	-1,5	-1,679
2546,23	1,5	-0,049
2547,724	-8	-2,904
2549,218	-4,5	-2,658
2550,706	2	-0,002
2552,2	-3	-1,965
2553,699	-9,5	-3,438
2555,193	1	-0,49
2556,687	0	-0,877
2558,181	-10	-3,498
2559,675	-1,5	-1,528
2561,169	1,5	-0,076
2562,657	-9	-3,114
2564,151	-3,5	-2,482
2565,651	2	-0,004
2567,145	-3	-2,07
2568,639	-9	-3,414
2570,132	1,5	-0,414
2571,626	-0,5	-0,937
2573,114	-10	-3,497
2574,614	-1,5	-1,415
2576,108	1	-0,101
2577,602	-10	-3,213
2579,096	-3,5	-2,379
2580,59	2	-0,005
2582,084	-4	-2,248
2583,578	-8	-3,338
2585,078	2	-0,142
2586,566	-1	-1,23
2588,059	-10	-3,492
2589,553	-1	-1,184
2591,047	0,5	-0,2
2592,541	-10	-3,471
2594,035	-3	-2,143
2595,529	1,5	-0,009
2597,023	-5	-2,439
2598,517	-6,5	-3,164
2600,011	2	0
2601,505	-1,5	-1,44
2603,005	-10	-3,488
2604,499	-0,5	-0,942
2605,986	0	-0,452
2607,48	-10	-3,499
2608,98	-2	-1,82
2610,474	2	-0,027
2611,968	-7,5	-2,796
2613,468	-5	-2,846
2614,962	2	-0,002
2616,456	-2	-1,796
2617,944	-9	-3,452
2619,438	1	-0,499
2620,938	0	-0,833
2622,431	-10	-3,498
2623,925	-1	-1,43
2625,419	1,5	-0,098
2626,913	-9,5	-3,232
2628,407	-3	-2,323
2629,901	2	-0,006
2631,389	-4,5	-2,418
2632,883	-6	-3,14
2634,377	2	-0,001
2635,871	-1	-1,444
2637,365	-10	-3,484
2638,859	-0,5	-0,886
2640,352	0	-0,517
2641,84	-10	-3,499
2643,334	-2	-1,772
2644,828	1,5	-0,036
2646,328	-6,5	-2,834
2647,822	-4,5	-2,77
2649,316	2	-0,002
2650,81	-2	-1,79
2652,304	-9	-3,453
2653,792	0,5	-0,564
2655,286	0	-0,789
2656,78	-10	-3,498
2658,279	-2	-1,694
2659,773	1,5	-0,038
2661,267	-7,5	-2,894
2662,761	-4,5	-2,669
2664,255	2	-0,002
2665,743	-2,5	-1,923
2667,237	-9	-3,431
2668,731	1,5	-0,412
2670,231	0	-0,956
2671,725	-9,5	-3,497
2673,219	-1,5	-1,416
2674,713	1,5	-0,108
2676,2	-10	-3,291
2677,694	-3	-2,35
2679,188	2	-0,005
2680,682	-4	-2,26
2682,176	-7,5	-3,334
2683,664	2	-0,064
2685,158	-1	-1,321
2686,652	-9,5	-3,489
2688,14	-0,5	-1,043
2689,64	0,5	-0,266
2691,134	-9,5	-3,486
2692,627	-3	-2,19
2694,121	2	-0,009
2695,615	-4,5	-2,366
2697,109	-7	-3,249
2698,597	2	-0,006
2700,091	-1	-1,324
2701,591	-9,5	-3,488
2703,085	-0,5	-1,002
2704,579	0	-0,385
2706,085	-9,5	-3,5
2707,579	-2,5	-2,075
2709,067	2	-0,013
2710,56	-5	-2,524
2712,054	-5,5	-3,034
2713,548	1,5	-0,001
2715,042	-1,5	-1,587
2716,536	-9,5	-3,475
2718,03	0	-0,696
2719,524	0	-0,597
2721,018	-10	-3,499
2722,512	-2	-1,682
2724,006	1,5	-0,046
2725,5	-7,5	-2,919
2726,994	-4,5	-2,617
2728,487	1,5	-0,002
2729,981	-2,5	-2,003
2731,475	-8	-3,396
2732,963	1,5	-0,279
2734,457	-0,5	-1,096
2735,951	-9,5	-3,496
2737,445	-1	-1,207
2738,939	0,5	-0,215
2740,433	-9,5	-3,426
2741,927	-3	-2,15
2743,421	2	-0,011
2744,915	-5	-2,54
2746,408	-5,5	-3,066
2747,902	2	-0,001
2749,396	-1	-1,485
2750,89	-9	-3,482
2752,378	0	-0,809
2753,872	0	-0,536
2755,366	-9	-3,499
2756,86	-2	-1,751
2758,36	2	-0,03
2759,854	-6,5	-2,743
2761,342	-5	-2,848
2762,835	2	-0,002
2764,323	-1,5	-1,794
2765,817	-8,5	-3,452
2767,311	0	-0,629
2768,805	0	-0,685
2770,299	-9	-3,498
2771,793	-1,5	-1,619
2773,287	1,5	-0,06
2774,775	-8,5	-3,095
2776,269	-3,5	-2,552
2777,763	2	-0,004
2779,257	-2,5	-2,019
2780,751	-8	-3,424
2782,244	1,5	-0,428
2783,732	0	-0,987
2785,238	-9,5	-3,496
2786,732	-1	-1,341
2788,226	1	-0,129
2789,72	-9	-3,284
2791,214	-3	-2,289
2792,708	2	-0,007
2794,202	-3,5	-2,326
2795,696	-6	-3,27
2797,184	2	-0,007
2798,677	-1	-1,397
2800,171	-9	-3,486
2801,665	-0,5	-1,05
2803,159	0,5	-0,334
2804,653	-9	-3,499
2806,147	-2,5	-2,041
2807,641	2	-0,016
2809,129	-4,5	-2,542
2810,623	-5,5	-3,11
2812,123	2	0
2813,617	-1	-1,426
2815,111	-9	-3,486
2816,604	-0,5	-0,974
2818,092	0	-0,34
2819,586	-9	-3,5
2821,074	-2	-2,122
2822,568	2	-0,012
2824,062	-5	-2,558
2825,556	-5,5	-3,101
2827,044	2	0
2828,538	-1	-1,485
2830,032	-9	-3,487
2831,52	-0,5	-0,921
2833,013	0	-0,462
2834,507	-9	-3,5
2835,995	-2,5	-2,062
2837,489	2	-0,014
2838,983	-4,5	-2,494
2840,477	-6	-3,244
2841,965	2	-0,026
2843,459	-1	-1,312
2844,953	-9	-3,493
2846,447	-1	-1,29
2847,941	1	-0,172
2849,435	-8,5	-3,276
2850,928	-3	-2,466
2852,416	2	-0,004
2853,91	-3	-2,141
2855,404	-7	-3,396
2856,892	2	-0,36
2858,386	-0,5	-1,017
2859,88	-8,5	-3,496
2861,368	-0,5	-1,236
2862,862	0,5	-0,176
2864,356	-8,5	-3,42
2865,856	-2,5	-2,266
2867,35	2	-0,008
2868,843	-3,5	-2,38
2870,337	-5,5	-3,258
2871,825	2	-0,084
2873,319	-0,5	-1,239
2874,813	-8,5	-3,495
2876,307	-1	-1,405
2877,801	1	-0,103
2879,295	-8	-3,138
2880,789	-3	-2,384
2882,277	2	-0,006
2883,771	-4,5	-2,495
2885,265	-5,5	-3,257
2886,758	2	-0,095
2888,252	-0,5	-1,314
2889,746	-8,5	-3,489
2891,24	-0,5	-1,086
2892,74	0	-0,258
2894,234	-8,5	-3,354
2895,728	-2,5	-2,34
2897,222	2	-0,006
2898,716	-3	-2,206
2900,21	-6,5	-3,379
2901,71	2	-0,334
2903,203	0	-1,032
2904,691	-8,5	-3,496
2906,185	-1	-1,406
2907,679	1	-0,105
2909,179	-8	-3,154
2910,673	-3	-2,42
2912,167	2	-0,005
2913,661	-2,5	-2,168
2915,149	-6,5	-3,378
2916,643	2	-0,355
2918,137	0	-1,038
2919,631	-8,5	-3,497
2921,124	-1	-1,532
2922,618	1,5	-0,076
2924,106	-7,5	-3,071
2925,6	-3	-2,626
2927,094	2	-0,002
2928,588	-1,5	-1,862
2930,088	-7,5	-3,45
2931,582	0	-0,678
2933,07	0	-0,707
2934,564	-8	-3,499
2936,058	-2	-1,942
2937,552	1,5	-0,021
2939,051	-3,5	-2,509
2940,545	-5	-3,192
2942,045	2	-0,077
2943,539	-0,5	-1,309
2945,033	-8	-3,494
2946,527	-0,5	-1,292
2948,021	1	-0,125
2949,515	-7,5	-3,116
2951,009	-3,5	-2,639
2952,503	2	-0,003
2953,991	-1,5	-1,852
2955,478	-7,5	-3,462
2956,972	0	-0,777
2958,466	0	-0,609
2959,96	-8	-3,499
2961,454	-2	-2,061
2962,948	2	-0,013
2964,442	-3,5	-2,412
2965,93	-5,5	-3,248
2967,424	2	-0,179
2968,918	-0,5	-1,202
2970,412	-8	-3,495
2971,906	-1	-1,379
2973,399	1	-0,124
2974,893	-7,5	-3,175
2976,381	-3	-2,488
2977,875	2	-0,004
2979,375	-2	-2,007
2980,869	-7	-3,429
2982,363	1	-0,483
2983,857	0	-0,847
2985,345	-8	-3,498
2986,839	-1,5	-1,704
2988,333	1,5	-0,037
2989,832	-5	-2,786
2991,326	-4,5	-2,931
2992,82	2	-0,001
2994,32	-1	-1,532
2995,808	-8	-3,484
2997,302	0	-0,922
2998,796	0	-0,47
3000,29	-8	-3,5
3001,784	-2	-1,992
3003,278	2	-0,019
3004,766	-4,5	-2,711
3006,26	-4	-2,92
3007,759	2	-0,001
3009,253	-1	-1,654
3010,747	-8	-3,477
3012,241	0	-0,836
3013,741	0	-0,538
3015,229	-8	-3,499
3016,723	-2	-1,991
3018,211	2	-0,018
3019,705	-4	-2,595
3021,199	-5	-3,195
3022,693	2	-0,026
3024,181	-0,5	-1,333
3025,674	-8	-3,492
3027,168	-0,5	-1,302
3028,662	1	-0,149
3030,156	-8	-3,276
3031,65	-3	-2,445
3033,144	2	-0,004
3034,638	-2,5	-2,169
3036,132	-6	-3,353
3037,626	2	-0,242
3039,12	-0,5	-1,127
3040,614	-8	-3,495
3042,108	-1	-1,353
3043,601	1	-0,131
3045,089	-7,5	-3,238
3046,583	-2,5	-2,451
3048,077	2	-0,005
3049,571	-2,5	-2,207
3051,065	-6	-3,322
3052,553	2	-0,262
3054,047	0	-1,077
3055,541	-8	-3,496
3057,029	-1	-1,41
3058,523	1,5	-0,106
3060,017	-7,5	-3,142
3061,51	-2,5	-2,491
3062,998	2	-0,004
3064,492	-2	-2,091
3065,992	-6,5	-3,4
3067,492	1,5	-0,368
3068,986	0	-1,029
3070,48	-7,5	-3,497
3071,968	-0,5	-1,43
3073,462	1,5	-0,09
3074,956	-7,5	-3,15
3076,45	-3	-2,585
3077,943	2	-0,003
3079,437	-1	-1,929
3080,925	-7	-3,441
3082,413	1,5	-0,463
3083,907	0	-0,919
3085,401	-7,5	-3,498
3086,895	-1	-1,726
3088,389	1,5	-0,043
3089,883	-4,5	-2,753
3091,371	-4	-2,956
3092,865	2	-0,001
3094,359	-0,5	-1,532
3095,852	-7,5	-3,482
3097,352	0	-0,972
3098,846	0,5	-0,427
3100,334	-7,5	-3,5
3101,828	-2	-2,124
3103,322	2	-0,011
3104,816	-3	-2,465
3106,31	-5	-3,233
3107,804	2,5	-0,191
3109,292	0	-1,17
3110,786	-7,5	-3,497
3112,279	-1	-1,495
3113,779	1,5	-0,074
3115,273	-6	-2,957
3116,767	-3,5	-2,792
3118,261	2	-0,001
3119,749	-1	-1,685
3121,243	-7,5	-3,472
3122,737	0	-0,78
3124,231	0	-0,588
3125,737	-7,5	-3,499
3127,231	-1,5	-1,984
3128,719	2	-0,021
3130,207	-4	-2,643
3131,7	-4,5	-3,058
3133,194	2	-0,001
3134,688	-0,5	-1,462
3136,182	-7,5	-3,488
3137,676	-0,5	-1,087
3139,164	0,5	-0,357
3140,658	-7,5	-3,5
3142,152	-1,5	-2,186
3143,646	2	-0,008
3145,146	-2,5	-2,303
3146,64	-5,5	-3,346
3148,133	1,5	-0,324
3149,627	0	-1,09
3151,121	-7,5	-3,496
3152,615	-1	-1,491
3154,109	1,5	-0,078
3155,603	-6	-3,019
3157,097	-3	-2,65
3158,591	2	-0,002
3160,085	-1,5	-1,853
3161,573	-7	-3,452
3163,067	0,5	-0,601
3164,561	0	-0,782
3166,048	-8	-3,498
3167,542	-1,5	-1,774
3169,036	2	-0,033
3170,53	-5	-2,762
3172,024	-4	-2,96
3173,524	2	0
3175,018	-0,5	-1,418
3176,512	-7,5	-3,489
3178,006	-0,5	-1,008
3179,5	0,5	-0,331
3180,994	-8	-3,471
3182,487	-2	-2,244
3183,981	2	-0,007
3185,481	-2	-2,219
3186,975	-6	-3,382
3188,469	1,5	-0,393
3189,957	0	-1,024
3191,451	-7,5	-3,497
3192,945	-1	-1,587
3194,439	1,5	-0,066
3195,933	-5,5	-2,98
3197,433	-3,5	-2,782
3198,927	2	-0,002
3200,421	-1	-1,79
3201,909	-7,5	-3,466
3203,402	0	-0,707
3204,89	0	-0,69
3206,384	-7,5	-3,499
3207,878	-1,5	-1,836
3209,366	2	-0,03
3210,86	-4,5	-2,781
3212,354	-4	-2,956
3213,854	2	-0,001
3215,348	-0,5	-1,58
3215,996	2	-0,001