File: Cycling_tests/_30perc/_4gap/entrada/_1.txt
Time (s)	Load (N)	Displacement (mm)
0	-0,5	-0,035
2,261	-1,5	-0,587
4,421	-1,5	-0,733
6,581	-3	-0,837
8,74	-3,5	-0,908
10,9	-3,5	-0,904
13,06	-3,5	-0,939
15,22	-4,5	-1,026
17,38	-5	-1,12
19,54	-5,5	-1,206
21,712	-6	-1,258
23,872	-5,5	-1,229
26,031	-5,5	-1,257
28,197	-5	-1,162
30,357	-5	-1,175
32,517	-5	-1,246
34,677	-5,5	-1,408
36,843	-7	-1,585
39,009	-8	-1,653
41,175	-9	-1,814
43,34	-10	-1,984
45,501	-10,5	-2,13
47,66	-11,5	-2,233
49,82	-12,5	-2,357
51,986	-14	-2,486
54,146	-14,5	-2,542
56,312	-14,5	-2,574
58,478	-15	-2,69
60,643	-15	-2,782
62,803	-17	-2,933
64,975	-16	-2,82
67,135	-18	-3,035
69,295	-17,5	-2,983
71,468	-19,5	-3,185
73,627	-18,5	-3,016
75,787	-19,5	-3,162
77,959	-20,5	-3,311
80,13	-22,5	-3,418
82,296	-23,5	-3,448
84,462	-24	-3,475
86,628	-24,5	-3,491
88,794	-24,5	-3,496
90,954	-24	-3,496
93,12	-24,5	-3,498
95,285	-24	-3,499
97,451	-24	-3,499
99,617	-24	-3,5
101,795	-24	-3,322
103,955	-24	-3,275
106,115	-24	-3,153
108,275	-23	-3,103
110,44	-21	-2,937
112,606	-21	-2,947
114,766	-20	-2,795
116,95	-16,5	-2,471
119,122	-14,5	-2,303
121,294	-14	-2,154
123,454	-12	-2,009
125,614	-11,5	-1,933
127,774	-11	-1,867
129,94	-9,5	-1,738
132,099	-9	-1,71
134,266	-8	-1,55
136,443	-6,5	-1,394
138,603	-6	-1,295
140,787	-5	-1,125
142,953	-4,5	-1,062
145,125	-3,5	-0,919
147,296	-3	-0,772
149,474	-2	-0,59
151,64	-1	-0,457
153,806	-0,5	-0,282
155,967	0	-0,24
158,138	0	-0,198
160,31	0	-0,132
162,476	0	-0,113
164,659	1,5	-0,054
166,831	1,5	-0,039
169,003	1,5	-0,028
171,175	1,5	-0,016
173,353	1,5	-0,009
175,519	2	-0,008
177,685	1,5	-0,005
179,851	2	-0,003
182,028	1,5	-0,002
184,206	1,5	-0,002
186,366	1,5	-0,001
188,556	1,5	0
190,722	1,5	-0,015
192,882	1,5	-0,077
195,06	1,5	-0,202
197,226	1	-0,402
199,392	0,5	-0,509
201,551	0	-0,624
203,723	-1	-0,707
205,895	-2,5	-0,881
208,067	-3	-1,034
210,233	-3	-1,14
212,411	-4	-1,296
214,583	-4,5	-1,412
216,754	-5,5	-1,5
218,932	-5,5	-1,636
221,11	-6	-1,759
223,282	-7,5	-1,896
225,454	-7,5	-2,005
227,638	-9	-2,15
229,81	-10	-2,318
231,982	-11	-2,424
234,153	-12,5	-2,544
236,331	-12,5	-2,668
238,497	-14	-2,754
240,681	-14,5	-2,908
242,847	-15	-2,994
245,025	-16,5	-3,187
247,198	-18	-3,291
249,369	-18,5	-3,349
251,546	-20,5	-3,426
253,712	-22	-3,465
255,873	-22,5	-3,482
258,038	-22,5	-3,489
260,204	-22,5	-3,494
262,376	-22,5	-3,497
264,548	-22,5	-3,498
266,72	-22,5	-3,499
268,891	-22,5	-3,499
271,069	-22,5	-3,499
273,253	-22,5	-3,5
275,431	-22,5	-3,311
277,609	-22	-3,092
279,781	-20,5	-2,964
281,953	-19	-2,864
284,119	-18,5	-2,812
286,296	-17,5	-2,704
288,468	-16,5	-2,545
290,634	-15	-2,465
292,818	-13,5	-2,29
294,996	-12	-2,138
297,162	-11	-2,049
299,322	-11	-1,914
301,494	-8,5	-1,772
303,659	-8	-1,66
305,837	-6	-1,455
308,003	-6	-1,364
310,175	-4,5	-1,168
312,347	-4	-1,064
314,519	-3	-0,97
316,691	-2,5	-0,839
318,869	-1	-0,572
321,046	-1	-0,399
323,218	0	-0,276
325,39	0	-0,173
327,562	0,5	-0,126
329,746	1	-0,067
331,918	1,5	-0,052
334,084	1,5	-0,044
336,256	1,5	-0,027
338,433	2	-0,021
340,605	2	-0,014
342,777	2	-0,01
344,949	2	-0,006
347,121	2	-0,004
349,293	2	-0,003
351,459	2	-0,002
353,631	2	-0,001
355,802	2	-0,001
357,968	2	-0,001
360,146	2	0
362,318	2	0
364,49	2	-0,003
366,674	2	-0,237
368,84	1,5	-0,452
371,012	0,5	-0,545
373,189	0	-0,675
375,367	-1	-0,762
377,539	-1,5	-0,894
379,723	-2,5	-1,037
381,895	-2,5	-1,089
384,067	-3	-1,151
386,245	-3,5	-1,286
388,417	-4	-1,396
390,583	-4	-1,514
392,766	-5	-1,706
394,944	-5,5	-1,776
397,116	-6	-1,886
399,294	-7	-2,086
401,472	-8	-2,22
403,644	-9	-2,311
405,822	-9	-2,427
407,988	-9	-2,385
410,159	-9,5	-2,484
412,337	-10,5	-2,578
414,503	-10	-2,465
416,681	-11	-2,713
418,853	-12	-2,737
421,025	-12	-2,725
423,203	-12	-2,732
425,381	-12	-2,798
427,558	-11	-2,71
429,736	-12	-2,755
431,908	-12,5	-2,854
434,08	-13	-2,926
436,258	-14,5	-3,104
438,424	-15	-3,157
440,596	-16	-3,285
442,768	-18	-3,373
444,939	-19,5	-3,404
447,117	-19,5	-3,421
449,295	-20,5	-3,456
451,467	-20,5	-3,452
453,651	-20,5	-3,453
455,823	-20,5	-3,461
457,995	-20,5	-3,467
460,179	-21	-3,484
462,35	-21	-3,481
464,516	-21	-3,48
466,688	-21,5	-3,489
468,866	-21,5	-3,493
471,038	-21	-3,494
473,216	-21	-3,497
475,388	-21	-3,498
477,572	-21	-3,499
479,743	-21	-3,499
481,915	-21	-3,499
484,081	-21,5	-3,5
486,259	-21	-3,5
488,443	-21,5	-3,483
490,621	-21	-3,364
492,799	-21	-3,226
494,965	-21	-3,214
497,136	-20	-3,156
499,302	-20,5	-3,166
501,474	-20,5	-3,088
503,646	-18,5	-2,95
505,818	-16,5	-2,856
508,008	-15	-2,644
510,18	-13,5	-2,529
512,358	-12	-2,394
514,535	-11,5	-2,334
516,713	-11,5	-2,243
518,891	-9	-1,99
521,069	-7,5	-1,782
523,247	-6	-1,625
525,425	-5,5	-1,518
527,597	-4,5	-1,374
529,775	-3,5	-1,23
531,946	-2,5	-1,019
534,112	-2,5	-0,928
536,284	-1,5	-0,786
538,456	-0,5	-0,664
540,628	-0,5	-0,518
542,8	0	-0,36
544,972	0	-0,22
547,144	1	-0,12
549,321	1,5	-0,077
551,493	2	-0,054
553,665	2,5	-0,031
555,843	2,5	-0,017
558,027	2,5	-0,008
560,205	2,5	-0,005
562,377	2,5	-0,003
564,549	2,5	-0,002
566,72	2,5	-0,001
568,892	2,5	-0,001
571,064	2,5	-0,001
573,236	2,5	-0,052
575,414	2,5	-0,198
577,598	1,5	-0,415
579,782	0	-0,586
581,954	-1	-0,722
584,131	-1,5	-0,835
586,309	-1,5	-1,023
588,487	-2,5	-1,232
590,659	-3	-1,337
592,831	-3,5	-1,454
595,009	-4	-1,631
597,187	-5	-1,813
599,365	-5,5	-1,986
601,536	-7	-2,111
603,714	-7,5	-2,24
605,886	-8,5	-2,377
608,07	-10,5	-2,547
610,248	-11	-2,736
612,426	-12,5	-2,907
614,598	-13,5	-3,002
616,77	-15	-3,15
618,941	-15	-3,231
621,119	-15	-3,305
623,285	-18	-3,394
625,457	-19	-3,424
627,635	-19,5	-3,437
629,807	-19,5	-3,462
631,973	-20	-3,47
634,151	-20	-3,481
636,328	-20,5	-3,487
638,488	-20,5	-3,488
640,666	-20,5	-3,493
642,838	-20,5	-3,496
645,01	-20,5	-3,497
647,188	-20,5	-3,498
649,36	-20,5	-3,499
651,532	-20,5	-3,499
653,703	-20,5	-3,456
655,881	-20,5	-3,23
658,047	-19	-3,138
660,225	-19,5	-2,981
662,403	-15	-2,75
664,569	-13	-2,564
666,747	-10,5	-2,312
668,925	-9	-2,002
671,09	-7	-1,858
673,268	-5	-1,607
675,446	-3,5	-1,322
677,624	-3	-1,112
679,79	-1,5	-0,899
681,956	-0,5	-0,692
684,128	0	-0,448
686,3	0,5	-0,286
688,465	1	-0,162
690,637	1,5	-0,093
692,809	2	-0,062
694,981	2,5	-0,03
697,153	2,5	-0,015
699,331	2,5	-0,006
701,497	2,5	-0,004
703,669	2,5	-0,003
705,84	2	-0,002
708,012	2	-0,001
710,184	2,5	-0,001
712,362	2,5	-0,052
714,54	2	-0,243
716,718	0,5	-0,531
718,89	-1	-0,725
721,074	-2	-0,927
723,246	-2,5	-0,989
725,423	-2,5	-1,145
727,601	-2,5	-1,264
729,773	-3	-1,337
731,945	-3	-1,421
734,111	-3	-1,474
736,283	-4	-1,584
738,449	-4,5	-1,733
740,627	-5	-1,869
742,798	-5,5	-1,999
744,976	-6	-2,102
747,142	-6,5	-2,156
749,32	-7,5	-2,425
751,486	-9	-2,482
753,658	-10	-2,71
755,83	-11,5	-2,872
757,989	-12,5	-2,987
760,161	-14,5	-3,161
762,333	-15	-3,288
764,505	-16,5	-3,342
766,671	-17	-3,392
768,837	-18	-3,432
771,003	-19	-3,458
773,175	-19,5	-3,474
775,34	-19,5	-3,483
777,512	-19,5	-3,489
779,678	-19,5	-3,494
781,856	-19,5	-3,497
784,028	-20	-3,498
786,196	-20	-3,498
788,372	-19,5	-3,499
790,532	-20	-3,499
792,704	-20	-3,499
794,875	-20	-3,5
797,053	-19,5	-3,5
799,225	-19,5	-3,414
801,391	-19,5	-3,289
803,569	-19,5	-3,162
805,735	-19	-3,064
807,913	-16,5	-2,866
810,079	-15	-2,786
812,244	-15	-2,733
814,416	-13	-2,58
816,588	-12	-2,422
818,76	-11	-2,348
820,926	-10	-2,215
823,098	-9	-2,126
825,264	-8,5	-2,026
827,436	-6,5	-1,809
829,607	-6	-1,709
831,773	-5,5	-1,587
833,951	-4,5	-1,42
836,117	-4	-1,378
838,295	-3	-1,2
840,461	-2,5	-1,115
842,639	-2,5	-1,043
844,817	-1,5	-0,872
846,988	-1	-0,767
849,16	-0,5	-0,629
851,332	-0,5	-0,456
853,504	0	-0,319
855,676	0	-0,236
857,842	1	-0,143
860,014	1,5	-0,105
862,18	1,5	-0,068
864,351	2	-0,036
866,523	2	-0,026
868,695	2,5	-0,017
870,861	2,5	-0,011
873,033	2,5	-0,006
875,205	2,5	-0,004
877,371	2,5	-0,003
879,543	2,5	-0,002
881,715	2,5	-0,002
883,886	2	-0,001
886,052	2,5	-0,001
888,224	2,5	-0,036
890,396	2,5	-0,226
892,562	2	-0,366
894,728	1,5	-0,49
896,9	0	-0,69
899,071	-1	-0,785
901,237	-2	-1,014
903,409	-2	-1,156
905,575	-3	-1,315
907,753	-3	-1,487
909,925	-3,5	-1,608
912,097	-4	-1,714
914,263	-4,5	-1,814
916,434	-5,5	-2,02
918,6	-6	-2,148
920,766	-7	-2,355
922,938	-8	-2,45
925,104	-8,5	-2,493
927,276	-9	-2,561
929,466	-9,5	-2,697
931,638	-11	-2,86
933,803	-11	-2,886
935,981	-14	-3,218
938,159	-15	-3,325
940,325	-15,5	-3,356
942,503	-16,5	-3,39
944,675	-17	-3,41
946,841	-18	-3,438
949,013	-19	-3,464
951,184	-19	-3,48
953,356	-19,5	-3,486
955,528	-19,5	-3,493
957,694	-19,5	-3,496
959,86	-19,5	-3,498
962,026	-19,5	-3,499
964,198	-19,5	-3,499
966,376	-19,5	-3,5
968,541	-19,5	-3,466
970,713	-19,5	-3,264
972,885	-19	-3,087
975,045	-18	-3,005
977,223	-15	-2,727
979,389	-13	-2,608
981,561	-11,5	-2,419
983,733	-9,5	-2,239
985,904	-9	-2,082
988,082	-7,5	-1,912
990,254	-5,5	-1,741
992,426	-4,5	-1,572
994,592	-4	-1,454
996,758	-3	-1,253
998,93	-2	-1,104
1001,102	-2	-0,968
1003,267	-1	-0,777
1005,439	-0,5	-0,639
1007,617	0	-0,464
1009,789	0	-0,3
1011,961	0,5	-0,182
1014,133	1	-0,117
1016,299	1,5	-0,09
1018,465	2	-0,056
1020,636	2	-0,033
1022,802	2,5	-0,024
1024,974	2,5	-0,016
1027,146	2,5	-0,01
1029,312	2,5	-0,007
1031,484	2,5	-0,004
1033,662	2,5	-0,002
1035,828	2,5	-0,001
1037,994	2,5	0
1040,165	2,5	-0,173
1042,331	2	-0,299
1044,503	1,5	-0,39
1046,675	1	-0,505
1048,841	-1	-0,862
1051,013	-1,5	-1,021
1053,185	-2,5	-1,296
1055,351	-3	-1,486
1057,517	-3,5	-1,657
1059,688	-4,5	-1,82
1061,854	-5	-1,911
1064,026	-5,5	-2,021
1066,198	-5,5	-2,106
1068,364	-7	-2,281
1070,536	-8,5	-2,561
1072,702	-9,5	-2,631
1074,873	-10	-2,74
1077,039	-10,5	-2,842
1079,211	-12,5	-3,042
1081,383	-14,5	-3,225
1083,555	-15	-3,302
1085,727	-17	-3,4
1087,899	-18	-3,441
1090,065	-18,5	-3,459
1092,236	-19	-3,474
1094,408	-19	-3,484
1096,58	-19	-3,487
1098,752	-19,5	-3,492
1100,918	-19	-3,495
1103,09	-19,5	-3,497
1105,256	-19,5	-3,498
1107,427	-19	-3,499
1109,599	-19	-3,5
1111,765	-19	-3,489
1113,938	-19	-3,366
1116,109	-19	-3,161
1118,275	-17	-3,005
1120,447	-15	-2,853
1122,613	-14,5	-2,73
1124,785	-12	-2,529
1126,956	-11,5	-2,435
1129,122	-10	-2,349
1131,294	-9,5	-2,197
1133,46	-8	-2,139
1135,632	-7,5	-2,018
1137,804	-6	-1,849
1139,97	-6	-1,768
1142,142	-5	-1,619
1144,313	-4	-1,458
1146,485	-4	-1,402
1148,657	-3	-1,249
1150,823	-2,5	-1,178
1152,995	-2,5	-1,079
1155,161	-1,5	-1,015
1157,339	-1,5	-0,95
1159,511	-1	-0,828
1161,676	-1	-0,764
1163,848	-0,5	-0,586
1166,014	0	-0,472
1168,186	0	-0,338
1170,358	0,5	-0,241
1172,524	1	-0,159
1174,696	1,5	-0,136
1176,862	1,5	-0,098
1179,033	2	-0,066
1181,205	2	-0,05
1183,371	2	-0,052
1185,543	2	-0,044
1187,709	2,5	-0,032
1189,881	2,5	-0,022
1192,053	2,5	-0,016
1194,225	2,5	-0,009
1196,396	2,5	-0,006
1198,568	2,5	-0,005
1200,74	2,5	-0,004
1202,906	2,5	-0,003
1205,078	2,5	-0,003
1207,25	2,5	-0,002
1209,422	2,5	-0,002
1211,588	2,5	-0,001
1213,759	2,5	-0,001
1215,925	2,5	-0,001
1218,091	3	0
1220,269	2,5	-0,076
1222,435	2,5	-0,228
1224,607	2	-0,361
1226,779	1,5	-0,466
1228,951	0	-0,631
1231,122	0	-0,73
1233,294	-1	-0,884
1235,46	-1	-0,91
1237,632	-1,5	-1,014
1239,798	-1,5	-1,02
1241,97	-1,5	-1,12
1244,136	-2	-1,179
1246,302	-2	-1,233
1248,473	-2	-1,284
1250,639	-2,5	-1,434
1252,805	-3	-1,546
1254,965	-3	-1,676
1257,137	-4	-1,801
1259,309	-4,5	-1,948
1261,481	-5	-2,086
1263,653	-5,5	-2,19
1265,818	-6,5	-2,329
1267,99	-7,5	-2,47
1270,162	-7,5	-2,554
1272,322	-8	-2,605
1274,494	-9,5	-2,73
1276,66	-10	-2,875
1278,826	-11,5	-3,077
1280,986	-13	-3,231
1283,158	-14,5	-3,303
1285,323	-15	-3,372
1287,495	-17	-3,435
1289,661	-17,5	-3,456
1291,833	-18,5	-3,476
1294,005	-18,5	-3,486
1296,177	-18,5	-3,49
1298,343	-18,5	-3,493
1300,514	-18,5	-3,496
1302,686	-18,5	-3,498
1304,852	-18,5	-3,498
1307,024	-19	-3,499
1309,19	-18,5	-3,499
1311,362	-18,5	-3,498
1313,534	-18,5	-3,349
1315,7	-18,5	-3,227
1317,866	-17	-3,081
1320,037	-16,5	-2,955
1322,203	-15	-2,826
1324,375	-14,5	-2,764
1326,541	-13	-2,578
1328,719	-11	-2,421
1330,891	-9	-2,199
1333,063	-8,5	-2,073
1335,235	-6,5	-1,904
1337,406	-5	-1,693
1339,578	-4	-1,461
1341,744	-3	-1,37
1343,916	-2,5	-1,17
1346,082	-2	-1,027
1348,248	-1,5	-0,925
1350,414	-1	-0,754
1352,586	0	-0,559
1354,751	0	-0,395
1356,923	0,5	-0,258
1359,083	1	-0,157
1361,261	1,5	-0,08
1363,433	2	-0,042
1365,605	2,5	-0,026
1367,771	2,5	-0,015
1369,936	2,5	-0,01
1372,102	2,5	-0,006
1374,274	3	-0,004
1376,434	2,5	-0,004
1378,606	2,5	-0,003
1380,778	2,5	-0,002
1382,944	2,5	-0,001
1385,116	2,5	0
1387,288	2,5	-0,124
1389,459	2,5	-0,269
1391,631	1,5	-0,466
1393,803	0	-0,65
1395,969	0	-0,726
1398,141	-1	-0,83
1400,313	-1,5	-1,015
1402,479	-1,5	-1,126
1404,657	-2	-1,325
1406,816	-2,5	-1,418
1408,988	-3	-1,506
1411,154	-3	-1,576
1413,326	-3,5	-1,681
1415,492	-4	-1,803
1417,658	-4	-1,857
1419,83	-4,5	-1,978
1421,996	-4,5	-2,026
1424,161	-5	-2,016
1426,333	-5	-2,089
1428,505	-6	-2,194
1430,677	-6	-2,266
1432,843	-8,5	-2,597
1435,009	-8,5	-2,651
1437,175	-9	-2,72
1439,347	-10	-2,815
1441,506	-10	-2,88
1443,678	-11,5	-2,99
1445,844	-12	-3,082
1448,016	-12,5	-3,174
1450,182	-13,5	-3,253
1452,348	-14,5	-3,317
1454,514	-16,5	-3,431
1456,686	-18	-3,479
1458,851	-18	-3,49
1461,029	-18,5	-3,495
1463,195	-18,5	-3,497
1465,367	-18,5	-3,498
1467,533	-18	-3,498
1469,711	-18,5	-3,499
1471,883	-18,5	-3,499
1474,049	-18,5	-3,499
1476,214	-18,5	-3,497
1478,386	-18,5	-3,353
1480,558	-18	-3,241
1482,73	-17,5	-3,108
1484,902	-16	-3,013
1487,074	-15	-2,95
1489,24	-14	-2,818
1491,412	-13,5	-2,707
1493,577	-12	-2,622
1495,749	-11	-2,506
1497,921	-9,5	-2,38
1500,093	-7,5	-2,196
1502,265	-8	-2,144
1504,437	-7	-2,054
1506,609	-6	-1,892
1508,781	-5,5	-1,819
1510,952	-4,5	-1,713
1513,118	-4	-1,602
1515,302	-3	-1,432
1517,468	-3	-1,336
1519,64	-2,5	-1,235
1521,812	-2	-1,136
1523,984	-1,5	-1,037
1526,15	-1,5	-0,979
1528,327	-1	-0,886
1530,493	-0,5	-0,727
1532,671	-0,5	-0,58
1534,837	0	-0,495
1537,009	0	-0,321
1539,178	0,5	-0,248
1541,347	0,5	-0,173
1543,513	1,5	-0,146
1545,69	2	-0,085
1547,856	2	-0,067
1550,022	2	-0,048
1552,2	2,5	-0,03
1554,366	2,5	-0,02
1556,544	2,5	-0,01
1558,722	2,5	-0,006
1560,888	2,5	-0,005
1563,059	2,5	-0,004
1565,237	2,5	-0,002
1567,409	2,5	-0,002
1569,581	2,5	-0,001
1571,759	2,5	-0,03
1573,925	2,5	-0,146
1576,097	2	-0,301
1578,263	1,5	-0,446
1580,428	0,5	-0,499
1582,6	0,5	-0,566
1584,76	0	-0,724
1586,932	-1	-0,85
1589,104	-1,5	-1,018
1591,276	-2	-1,198
1593,442	-2,5	-1,363
1595,614	-3	-1,505
1597,779	-3	-1,617
1599,951	-3,5	-1,769
1602,123	-4	-1,853
1604,295	-4,5	-1,995
1606,467	-6	-2,19
1608,639	-6	-2,301
1610,811	-7,5	-2,454
1612,977	-7,5	-2,528
1615,149	-9	-2,67
1617,308	-9	-2,715
1619,474	-9,5	-2,78
1621,646	-11	-2,953
1623,806	-12	-3,046
1625,972	-12,5	-3,163
1628,138	-13,5	-3,276
1630,31	-15,5	-3,384
1632,476	-15,5	-3,396
1634,641	-15,5	-3,412
1636,819	-16,5	-3,443
1638,985	-17	-3,456
1641,157	-17,5	-3,467
1643,323	-16,5	-3,473
1645,495	-17,5	-3,478
1647,661	-17,5	-3,481
1649,833	-18	-3,487
1652,004	-18	-3,494
1654,164	-18	-3,496
1656,336	-18	-3,497
1658,502	-18	-3,498
1660,68	-18	-3,499
1662,846	-18	-3,499
1665,024	-18	-3,499
1667,19	-18	-3,5
1669,361	-18	-3,471
1671,533	-18	-3,326
1673,699	-18	-3,258
1675,871	-18	-3,151
1678,031	-16,5	-3,106
1680,203	-17,5	-3,028
1682,375	-15	-2,913
1684,547	-14	-2,855
1686,706	-12,5	-2,746
1688,878	-11,5	-2,563
1691,05	-11	-2,452
1693,216	-10	-2,393
1695,388	-8,5	-2,299
1697,554	-7,5	-2,128
1699,72	-7	-2,074
1701,892	-6	-1,928
1704,057	-5,5	-1,814
1706,229	-5	-1,732
1708,395	-4,5	-1,672
1710,567	-3,5	-1,553
1712,739	-3,5	-1,457
1714,905	-2,5	-1,357
1717,077	-2,5	-1,248
1719,243	-2	-1,172
1721,408	-2	-1,078
1723,58	-1,5	-1,04
1725,74	-1	-0,888
1727,912	-1	-0,73
1730,078	-0,5	-0,699
1732,244	-0,5	-0,698
1734,416	0	-0,573
1736,588	0	-0,451
1738,759	0	-0,298
1740,925	0,5	-0,238
1743,085	1	-0,154
1745,257	1	-0,121
1747,423	1,5	-0,062
1749,595	2	-0,029
1751,761	2,5	-0,02
1753,933	2,5	-0,008
1756,104	2,5	-0,004
1758,27	2,5	-0,002
1760,454	2,5	-0,001
1762,62	2,5	-0,001
1764,78	2,5	-0,001
1766,958	2,5	-0,001
1769,124	2,5	-0,018
1771,296	2,5	-0,158
1773,461	2,5	-0,188
1775,627	2,5	-0,142
1777,805	2	-0,228
1779,977	1,5	-0,39
1782,149	0,5	-0,612
1784,321	0	-0,632
1786,493	0	-0,752
1788,653	0	-0,76
1790,824	-0,5	-0,844
1792,996	-1,5	-0,975
1795,162	-1,5	-1,044
1797,34	-1,5	-1,174
1799,506	-1,5	-1,276
1801,678	-2,5	-1,416
1803,844	-3	-1,541
1806,01	-3	-1,631
1808,187	-3,5	-1,791
1810,353	-4	-1,894
1812,525	-5	-2,084
1814,691	-5,5	-2,254
1816,863	-6,5	-2,381
1819,035	-6,5	-2,463
1821,201	-7,5	-2,544
1823,373	-7,5	-2,638
1825,538	-9,5	-2,836
1827,704	-10	-2,957
1829,876	-11,5	-3,09
1832,042	-12,5	-3,23
1834,208	-13	-3,294
1836,38	-15	-3,388
1838,54	-15,5	-3,404
1840,712	-16,5	-3,447
1842,878	-17	-3,458
1845,049	-17,5	-3,47
1847,221	-17,5	-3,48
1849,387	-17,5	-3,485
1851,559	-18	-3,491
1853,731	-18	-3,495
1855,897	-18	-3,497
1858,069	-18	-3,498
1860,235	-17,5	-3,498
1862,406	-18	-3,499
1864,578	-18	-3,499
1866,744	-18	-3,498
1868,922	-18	-3,388
1871,088	-18	-3,294
1873,254	-17,5	-3,2
1875,432	-16,5	-3,105
1877,598	-16,5	-2,983
1879,763	-13,5	-2,702
1881,935	-10,5	-2,52
1884,095	-10	-2,448
1886,261	-9,5	-2,358
1888,427	-9	-2,289
1890,593	-7,5	-2,144
1892,759	-7	-2,075
1894,925	-6	-1,969
1897,102	-5	-1,749
1899,268	-4	-1,658
1901,44	-4	-1,543
1903,618	-3	-1,349
1905,784	-2,5	-1,254
1907,95	-1,5	-1,099
1910,122	-0,5	-0,749
1912,294	0	-0,58
1914,459	0	-0,48
1916,637	0	-0,345
1918,803	0,5	-0,222
1920,975	1	-0,14
1923,141	1,5	-0,108
1925,307	1,5	-0,081
1927,479	2	-0,047
1929,645	2,5	-0,029
1931,822	2,5	-0,016
1933,988	2,5	-0,012
1936,154	2,5	-0,009
1938,32	2,5	-0,006
1940,486	3	-0,004
1942,652	2,5	-0,002
1944,824	3	-0,002
1946,99	2,5	-0,001
1949,167	2,5	-0,001
1951,339	2,5	0
1953,511	2,5	-0,005
1955,677	2,5	-0,006
1957,849	2,5	-0,204
1960,015	2	-0,286
1962,187	0,5	-0,541
1964,359	0	-0,656
1966,524	-0,5	-0,737
1968,69	-1	-0,896
1970,856	-1	-0,946
1973,022	-1	-1,079
1975,194	-2	-1,257
1977,366	-2,5	-1,34
1979,538	-2,5	-1,478
1981,704	-3	-1,59
1983,87	-3	-1,654
1986,035	-3,5	-1,834
1988,213	-4	-1,949
1990,379	-4	-2,009
1992,545	-5	-2,093
1994,711	-5	-2,222
1996,877	-6	-2,358
1999,049	-6	-2,491
2001,221	-7,5	-2,612
2003,386	-8,5	-2,715
2005,558	-9	-2,855
2007,724	-10,5	-2,978
2009,902	-12	-3,107
2012,068	-13	-3,258
2014,234	-13,5	-3,325
2016,406	-14,5	-3,369
2018,571	-15	-3,413
2020,737	-15	-3,418
2022,909	-16	-3,452
2025,075	-16	-3,454
2027,241	-16,5	-3,471
2029,413	-16,5	-3,479
2031,579	-17	-3,485
2033,745	-16,5	-3,49
2035,922	-17	-3,496
2038,088	-17	-3,496
2040,248	-16,5	-3,498
2042,42	-17	-3,498
2044,592	-17	-3,499
2046,764	-16,5	-3,499
2048,93	-16,5	-3,499
2051,096	-17	-3,5
2053,267	-16,5	-3,492
2055,433	-16,5	-3,414
2057,599	-15,5	-3,148
2059,771	-15,5	-3,085
2061,937	-15	-2,999
2064,109	-14	-2,937
2066,281	-13	-2,874
2068,447	-13	-2,827
2070,613	-13	-2,74
2072,79	-10	-2,526
2074,956	-10	-2,51
2077,122	-9	-2,483
2079,294	-9,5	-2,432
2081,472	-8	-2,302
2083,638	-7	-2,223
2085,816	-7,5	-2,173
2087,982	-6,5	-2,172
2090,153	-6,5	-2,093
2092,325	-6	-2,09
2094,497	-6	-2,069
2096,669	-6	-2,035
2098,847	-6	-1,938
2101,019	-4,5	-1,838
2103,179	-4,5	-1,772
2105,35	-3,5	-1,603
2107,522	-3	-1,54
2109,688	-3	-1,487
2111,86	-2,5	-1,456
2114,026	-2,5	-1,434
2116,192	-2,5	-1,323
2118,364	-2	-1,282
2120,536	-1,5	-1,198
2122,701	-1	-1,107
2124,879	-1	-1,053
2127,045	-1	-0,993
2129,211	-1	-0,972
2131,377	-0,5	-0,881
2133,549	-0,5	-0,844
2135,721	0	-0,682
2137,893	0	-0,557
2140,065	0,5	-0,383
2142,23	0,5	-0,272
2144,402	1,5	-0,15
2146,568	1,5	-0,128
2148,728	2	-0,087
2150,9	2,5	-0,062
2153,066	2	-0,058
2155,232	2,5	-0,05
2157,41	2,5	-0,032
2159,575	3	-0,023
2161,741	3	-0,02
2163,919	2,5	-0,013
2166,085	3	-0,01
2168,257	3	-0,006
2170,435	3	-0,005
2172,607	3	-0,003
2174,767	3	-0,002
2176,944	3	-0,001
2179,116	3	-0,001
2181,282	3	-0,001
2183,448	3	-0,001
2185,614	3	0
2187,78	3	0
2189,952	2,5	-0,026
2192,118	3	-0,18
2194,283	2	-0,429
2196,455	1	-0,481
2198,621	0,5	-0,576
2200,793	0	-0,698
2202,965	0	-0,755
2205,131	-0,5	-0,824
2207,297	-0,5	-0,856
2209,469	-1	-0,919
2211,634	-0,5	-0,95
2213,8	-1	-1,026
2215,978	-1	-1,055
2218,144	-1	-1,13
2220,322	-1,5	-1,227
2222,488	-1,5	-1,28
2224,654	-1,5	-1,356
2226,826	-1,5	-1,386
2228,991	-2,5	-1,567
2231,157	-2,5	-1,668
2233,329	-3	-1,773
2235,495	-3	-1,875
2237,667	-4,5	-2,097
2239,839	-4,5	-2,143
2242,005	-4,5	-2,212
2244,171	-5	-2,292
2246,342	-5,5	-2,466
2248,514	-7,5	-2,726
2250,68	-8,5	-2,916
2252,852	-10	-3,118
2255,012	-11,5	-3,267
2257,178	-12	-3,338
2259,35	-14	-3,417
2261,516	-15	-3,447
2263,681	-15	-3,463
2265,847	-15	-3,468
2268,025	-15	-3,482
2270,185	-15,5	-3,486
2272,357	-15,5	-3,494
2274,529	-15,5	-3,496
2276,695	-15,5	-3,497
2278,867	-15,5	-3,498
2281,038	-15,5	-3,499
2283,204	-15,5	-3,499
2285,376	-15,5	-3,499
2287,548	-15	-3,483
2289,72	-15,5	-3,344
2291,886	-15	-3,2
2294,058	-15	-3,152
2296,224	-15	-3,169
2298,383	-15	-3,192
2300,561	-15	-3,107
2302,727	-14	-3,014
2304,893	-14	-2,998
2307,053	-14	-2,979
2309,225	-13,5	-2,975
2311,391	-14,5	-3,044
2313,569	-12	-2,883
2315,734	-12	-2,818
2317,9	-13	-2,898
2320,072	-12	-2,862
2322,238	-11,5	-2,782
2324,416	-11,5	-2,679
2326,576	-11	-2,74
2328,742	-10	-2,687
2330,908	-9,5	-2,623
2333,08	-8,5	-2,412
2335,245	-7	-2,352
2337,417	-7,5	-2,317
2339,589	-6	-2,207
2341,755	-6	-2,148
2343,921	-5,5	-2,138
2346,087	-5	-2,063
2348,259	-5	-2,026
2350,424	-5	-2,037
2352,596	-4,5	-1,9
2354,762	-4	-1,9
2356,934	-4	-1,853
2359,106	-3	-1,775
2361,272	-3,5	-1,738
2363,438	-4,5	-1,774
2365,604	-3,5	-1,811
2367,776	-3,5	-1,754
2369,941	-3	-1,733
2372,119	-2,5	-1,603
2374,285	-2	-1,522
2376,451	-2,5	-1,533
2378,617	-2,5	-1,507
2380,783	-2	-1,437
2382,955	-2	-1,427
2385,121	-1	-1,304
2387,286	-1	-1,262
2389,452	-1,5	-1,278
2391,624	-1	-1,254
2393,796	-1	-1,079
2395,962	-0,5	-1,006
2398,134	-0,5	-0,899
2400,3	0	-0,824
2402,466	0	-0,77
2404,631	0	-0,734
2406,797	0	-0,664
2408,969	0	-0,612
2411,141	0	-0,49
2413,307	0	-0,454
2415,473	0	-0,358
2417,645	1	-0,207
2419,817	1,5	-0,14
2421,988	1,5	-0,116
2424,154	1,5	-0,093
2426,32	2	-0,066
2428,486	2	-0,049
2430,658	2,5	-0,026
2432,83	2,5	-0,02
2434,996	2,5	-0,019
2437,168	2,5	-0,013
2439,333	3	-0,011
2441,499	3	-0,006
2443,671	3	-0,005
2445,837	3	-0,005
2448,003	3	-0,004
2450,181	3	-0,004
2452,353	3	-0,004
2454,519	3	-0,004
2456,69	3	-0,003
2458,862	3	-0,002
2461,028	3	-0,002
2463,2	2,5	-0,001
2465,372	3	-0,001
2467,538	2,5	-0,001
2469,716	3	-0,001
2471,882	3	0
2474,047	3	0
2476,225	2,5	-0,082
2478,391	3	-0,136
2480,563	3	-0,175
2482,729	3	-0,21
2484,901	2,5	-0,24
2487,067	3	-0,215
2489,239	2	-0,332
2491,41	2	-0,417
2493,576	2	-0,454
2495,742	2	-0,434
2497,914	1	-0,528
2500,08	0,5	-0,608
2502,246	0,5	-0,635
2504,424	0	-0,68
2506,59	0	-0,717
2508,755	0	-0,657
2510,927	0	-0,716
2513,093	0	-0,776
2515,259	0	-0,823
2517,443	-0,5	-0,999
2519,705	-1,5	-1,532
2521,877	-1,5	-1,43
2524,043	-1,5	-1,414
2526,214	-1,5	-1,375
2528,38	-1,5	-1,413
2530,546	-1,5	-1,424
2532,712	-1,5	-1,5
2534,884	-1,5	-1,492
2537,056	-1,5	-1,528
2539,222	-1,5	-1,586
2541,388	-1,5	-1,544
2543,559	-1,5	-1,521
2545,725	-2	-1,616
2547,897	-2	-1,621
2550,063	-1,5	-1,59
2552,241	-2	-1,613
2554,413	-2	-1,723
2556,585	-2,5	-1,828
2558,751	-2,5	-1,828
2560,928	-3	-1,889
2563,094	-2,5	-1,874
2565,266	-3	-1,962
2567,426	-3	-1,885
2569,592	-2,5	-1,8
2571,758	-2,5	-1,795
2573,924	-2,5	-1,826
2576,096	-2,5	-1,846
2578,261	-3	-1,922
2580,427	-3	-2,007
2582,599	-3	-2,021
2584,759	-3	-2,083
2586,931	-3,5	-2,123
2589,097	-3,5	-2,176
2591,263	-3,5	-2,179
2593,429	-3,5	-2,156
2595,601	-3,5	-2,282
2597,766	-4,5	-2,337
2599,932	-4,5	-2,453
2602,098	-5	-2,534
2604,276	-5	-2,498
2606,442	-4,5	-2,482
2608,608	-5,5	-2,568
2610,78	-5,5	-2,623
2612,957	-6	-2,728
2615,123	-7	-2,824
2617,295	-7	-2,918
2619,467	-7,5	-2,932
2621,639	-7,5	-3,005
2623,811	-8	-3,062
2625,977	-8	-3,1
2628,143	-9	-3,143
2630,309	-9	-3,181
2632,48	-9,5	-3,31
2634,652	-11	-3,372
2636,824	-12	-3,398
2638,99	-12,5	-3,436
2641,162	-12,5	-3,45
2643,334	-12,5	-3,458
2645,506	-13	-3,471
2647,677	-13	-3,476
2649,849	-13	-3,48
2652,009	-13	-3,479
2654,175	-13	-3,482
2656,347	-13	-3,485
2658,513	-13	-3,486
2660,685	-13	-3,488
2662,857	-13	-3,492
2665,023	-13	-3,494
2667,188	-13	-3,495
2669,36	-13	-3,496
2671,532	-13	-3,497
2673,704	-13	-3,498
2675,87	-13	-3,497
2678,042	-13	-3,498
2680,208	-13	-3,498
2682,374	-13	-3,499
2684,545	-13	-3,499
2686,717	-13	-3,5
2688,883	-13	-3,5
2691,049	-13	-3,498
2693,238	-13	-3,413
2695,404	-13	-3,348
2697,576	-13	-3,232
2699,742	-12,5	-3,214
2701,907	-13	-3,226
2704,073	-13	-3,159
2706,239	-11,5	-3,069
2708,411	-11,5	-3
2710,577	-9,5	-2,888
2712,743	-9,5	-2,877
2714,915	-9,5	-2,804
2717,081	-8	-2,708
2719,252	-7	-2,534
2721,436	-5	-2,326
2723,602	-5	-2,288
2725,768	-5	-2,274
2727,934	-5	-2,198
2730,106	-4,5	-2,14
2732,272	-4	-2,06
2734,438	-3,5	-2,055
2736,603	-3	-1,933
2738,775	-2,5	-1,8
2740,941	-2,5	-1,742
2743,119	-2	-1,659
2745,291	-2	-1,577
2747,457	-1,5	-1,576
2749,623	-1,5	-1,502
2751,801	-1	-1,388
2753,966	-1	-1,271
2756,144	-0,5	-1,114
2758,31	0	-0,992
2760,482	0	-0,833
2762,648	0	-0,733
2764,814	0	-0,663
2766,992	0	-0,56
2769,158	0,5	-0,528
2771,323	0,5	-0,518
2773,489	0,5	-0,438
2775,661	0,5	-0,417
2777,827	0,5	-0,434
2779,993	0,5	-0,417
2782,165	0,5	-0,413
2784,331	1	-0,343
2786,497	0,5	-0,328
2788,674	1	-0,206
2790,84	1,5	-0,128
2793,006	1,5	-0,149
2795,166	1,5	-0,154
2797,338	1,5	-0,143
2799,498	1,5	-0,124
2801,664	1,5	-0,122
2803,848	1,5	-0,088
2806,013	2	-0,066
2808,179	2	-0,058
2810,345	2	-0,053
2812,523	2,5	-0,028
2814,683	2,5	-0,03
2816,849	2,5	-0,023
2819,021	2,5	-0,017
2821,187	3	-0,013
2823,352	3	-0,008
2825,518	3	-0,006
2827,69	3	-0,004
2829,856	3	-0,002
2832,022	3	-0,002
2834,194	3	-0,002
2836,36	3	-0,002
2838,526	3	-0,001
2840,697	3	-0,001
2842,869	3	-0,001
2845,035	3	-0,001
2847,201	3	0
2849,385	3	-0,21
2851,551	3	-0,27
2853,723	2,5	-0,35
2855,889	2	-0,408
2858,06	1,5	-0,513
2860,226	1,5	-0,589
2862,392	0	-0,695
2864,57	0	-0,894
2866,736	-0,5	-0,974
2868,902	-0,5	-1,055
2871,068	-1	-1,189
2873,246	-1	-1,323
2875,412	-1	-1,44
2877,577	-1,5	-1,472
2879,749	-1,5	-1,53
2881,915	-1	-1,561
2884,081	-1,5	-1,583
2886,247	-1,5	-1,626
2888,425	-2	-1,81
2890,591	-2	-1,926
2892,751	-2	-1,981
2894,92	-2	-2,014
2897,088	-2,5	-2,028
2899,254	-2,5	-2,092
2901,42	-3	-2,21
2903,592	-3	-2,309
2905,758	-3	-2,362
2907,924	-3	-2,336
2910,096	-3,5	-2,468
2912,267	-4,5	-2,662
2914,433	-4,5	-2,706
2916,599	-4,5	-2,786
2918,771	-4,5	-2,785
2920,937	-4,5	-2,816
2923,103	-5	-2,854
2925,269	-5	-2,946
2927,441	-5,5	-3,114
2929,606	-6,5	-3,167
2931,772	-6	-3,173
2933,944	-7	-3,25
2936,11	-7,5	-3,315
2938,276	-7,5	-3,346
2940,448	-9	-3,42
2942,614	-9	-3,421
2944,78	-9	-3,439
2946,945	-9,5	-3,453
2949,123	-10	-3,469
2951,289	-10	-3,48
2953,455	-10	-3,485
2955,621	-10	-3,485
2957,793	-10	-3,491
2959,959	-10,5	-3,491
2962,125	-10	-3,495
2964,29	-10	-3,497
2966,462	-10	-3,497
2968,628	-10	-3,498
2970,794	-10	-3,498
2972,972	-10	-3,499
2975,132	-10	-3,499
2977,298	-10	-3,499
2979,464	-9,5	-3,5
2981,641	-9,5	-3,494
2983,807	-10	-3,433
2985,973	-9,5	-3,234
2988,145	-9,5	-3,128
2990,311	-9	-3,144
2992,483	-7	-2,937
2994,649	-6,5	-2,873
2996,821	-5,5	-2,789
2998,986	-5	-2,688
3001,152	-4,5	-2,527
3003,318	-3,5	-2,438
3005,484	-3,5	-2,378
3007,65	-3	-2,303
3009,816	-3	-2,207
3011,988	-2,5	-2,113
3014,154	-2	-2,022
3016,319	-1,5	-1,894
3018,485	-1	-1,777
3020,657	-0,5	-1,608
3022,817	-0,5	-1,568
3024,983	-0,5	-1,564
3027,149	-0,5	-1,499
3029,315	-0,5	-1,424
3031,481	0	-1,402
3033,652	-0,5	-1,334
3035,83	0	-1,168
3037,996	0	-1,104
3040,168	0	-1,031
3042,334	0	-0,903
3044,5	0	-0,796
3046,666	0	-0,674
3048,844	0,5	-0,528
3051,015	0,5	-0,392
3053,187	1	-0,25
3055,353	1	-0,176
3057,519	1,5	-0,138
3059,691	1,5	-0,104
3061,857	2	-0,06
3064,023	2	-0,052
3066,189	2,5	-0,034
3068,36	2,5	-0,025
3070,526	3	-0,016
3072,698	3	-0,017
3074,87	3	-0,011
3077,036	3	-0,006
3079,208	3	-0,006
3081,374	3	-0,005
3083,546	3	-0,004
3085,711	3	-0,003
3087,877	3	-0,002
3090,043	3	-0,002
3092,221	3	-0,002
3094,387	3	-0,002
3096,553	3	-0,001
3098,725	3	-0,001
3100,891	3	-0,001
3103,056	3	-0,001
3105,228	2,5	-0,001
3107,394	3	0
3109,566	3	-0,003
3111,732	2,5	-0,035
3113,898	3	-0,107
3116,082	3	-0,189
3118,248	3	-0,248
3120,413	2	-0,346
3122,585	2	-0,366
3124,757	1,5	-0,424
3126,923	1,5	-0,456
3129,089	1,5	-0,542
3131,261	1	-0,605
3133,427	0,5	-0,674
3135,593	0	-0,722
3137,759	0	-0,79
3139,936	-0,5	-0,905
3142,102	0	-0,954
3144,274	-0,5	-1,143
3146,44	-0,5	-1,213
3148,606	-0,5	-1,309
3150,766	-0,5	-1,439
3152,932	-1	-1,588
3155,104	-1	-1,693
3157,269	-1,5	-1,806
3159,435	-1,5	-1,864
3161,607	-1,5	-1,974
3163,773	-2	-2,086
3165,939	-2,5	-2,204
3168,105	-2,5	-2,295
3170,277	-3	-2,378
3172,443	-3	-2,479
3174,608	-3	-2,532
3176,78	-3,5	-2,637
3178,952	-4	-2,786
3181,118	-4,5	-2,95
3183,284	-5	-3,03
3185,45	-5,5	-3,085
3187,622	-6	-3,22
3189,794	-6,5	-3,311
3191,959	-6,5	-3,338
3194,131	-7,5	-3,383
3196,297	-8	-3,413
3198,469	-8,5	-3,436
3200,641	-8,5	-3,451
3202,813	-9	-3,473
3204,979	-9	-3,484
3207,145	-9	-3,49
3209,316	-9	-3,494
3211,488	-9	-3,496
3213,66	-9	-3,497
3215,826	-9,5	-3,497
3217,992	-9	-3,498
3220,164	-9,5	-3,499
3221,316	3	0