File: Cycling_tests/_30perc/_4gap/entrada/_2.txt
Time (s)	Load (N)	Displacement (mm)
0	-0,5	-0,031
2,224	0	-0,391
4,336	0	-0,392
6,454	0	-0,328
8,566	0	-0,292
10,677	0,5	-0,266
12,789	1	-0,212
14,902	1	-0,079
17,013	1	-0,012
19,125	1	0
21,237	1	-0,001
23,361	1	-0,001
25,479	1	-0,001
27,591	1	-0,002
29,708	1	-0,003
31,826	1,5	-0,004
33,938	1,5	-0,006
36,05	1	-0,01
38,169	1	-0,01
40,28	1,5	-0,017
42,392	1	-0,029
44,504	1	-0,038
46,622	1	-0,03
48,739	1	-0,028
50,863	1,5	-0,02
52,975	1,5	-0,017
55,087	1,5	-0,02
57,211	1,5	-0,017
59,335	1,5	-0,016
61,452	1,5	-0,019
63,564	1,5	-0,014
65,682	1,5	-0,013
67,812	1,5	-0,01
69,93	1,5	-0,009
72,048	1,5	-0,007
74,172	1,5	-0,008
76,29	1,5	-0,006
78,408	1,5	-0,006
80,519	1,5	-0,007
82,637	1,5	-0,006
84,755	1,5	-0,005
86,873	1,5	-0,004
88,985	1,5	-0,004
91,109	1,5	-0,003
93,221	1,5	-0,002
95,333	1,5	-0,004
97,45	1,5	-0,002
99,562	1,5	-0,001
101,68	1,5	-0,001
103,798	1,5	-0,001
105,922	1,5	-0,001
108,052	1,5	-0,003
110,17	1,5	0
112,294	1,5	-0,165
114,406	1	-0,284
116,523	1,5	-0,268
118,641	1,5	-0,289
120,759	1	-0,359
122,889	1	-0,386
125,019	0,5	-0,42
127,143	0	-0,524
129,261	0	-0,602
131,384	-0,5	-0,638
133,508	0	-0,599
135,638	-1	-0,652
137,762	-1	-0,668
139,874	-0,5	-0,706
141,986	-0,5	-0,685
144,116	-1	-0,73
146,24	-2	-0,776
148,352	-1	-0,831
150,481	-3	-0,901
152,611	-2,5	-0,922
154,729	-3	-0,943
156,841	-3	-0,929
158,965	-3,5	-1,001
161,083	-3	-0,985
163,201	-3	-0,99
165,325	-3	-1,061
167,442	-3	-1,013
169,572	-3	-1,074
171,696	-3,5	-1,119
173,826	-3,5	-1,19
175,938	-4	-1,238
178,056	-4	-1,202
180,18	-4	-1,22
182,328	-4	-1,326
184,458	-4,5	-1,402
186,575	-5	-1,434
188,705	-5	-1,435
190,823	-4,5	-1,44
192,941	-4,5	-1,412
195,077	-5	-1,508
197,207	-5	-1,52
199,337	-5	-1,516
201,46	-5,5	-1,576
203,595	-6	-1,736
205,72	-6,5	-1,781
207,838	-6,5	-1,766
209,962	-6,5	-1,848
212,08	-7	-1,901
214,204	-7	-1,914
216,328	-7	-1,949
218,458	-7,5	-2,009
220,575	-9	-2,136
222,693	-9	-2,136
224,811	-9	-2,124
226,935	-9	-2,154
229,065	-9	-2,214
231,189	-8,5	-2,275
233,313	-10	-2,327
235,436	-10,5	-2,426
237,56	-10,5	-2,428
239,69	-11,5	-2,498
241,82	-12	-2,579
243,956	-12,5	-2,642
246,086	-12,5	-2,681
248,216	-14	-2,798
250,34	-13,5	-2,765
252,47	-14,5	-2,836
254,605	-15	-2,993
256,729	-16	-3,033
258,853	-15	-2,978
260,977	-15	-2,992
263,107	-15	-3,078
265,219	-15	-2,989
267,349	-16	-3,05
269,473	-16	-3,094
271,596	-16	-3,107
273,726	-15	-3,088
275,856	-16,5	-3,147
277,998	-16,5	-3,161
280,122	-15,5	-3,122
282,246	-15	-3,077
284,376	-16	-3,11
286,5	-15,5	-3,081
288,624	-16	-3,142
290,747	-15,5	-3,102
292,871	-15	-3,041
294,995	-15	-2,965
297,113	-14	-2,848
299,237	-12,5	-2,739
301,361	-12,5	-2,726
303,483	-11,5	-2,661
305,615	-11,5	-2,597
307,738	-10,5	-2,51
309,862	-10	-2,439
311,986	-11	-2,464
314,122	-9,5	-2,377
316,24	-9	-2,297
318,364	-8	-2,226
320,488	-9	-2,24
322,606	-8,5	-2,206
324,735	-8,5	-2,203
326,871	-9	-2,261
328,996	-8,5	-2,222
331,113	-9	-2,284
333,238	-9,5	-2,382
335,373	-10,5	-2,511
337,491	-11,5	-2,568
339,603	-11,5	-2,622
341,727	-13	-2,759
343,856	-13,5	-2,898
345,986	-15	-2,991
348,11	-15	-3,088
350,234	-16	-3,182
352,364	-18	-3,325
354,494	-18,5	-3,351
356,606	-19	-3,361
358,735	-19,5	-3,403
360,859	-20,5	-3,44
362,983	-21	-3,444
365,119	-21	-3,458
367,255	-21,5	-3,468
369,385	-22	-3,477
371,503	-21,5	-3,48
373,639	-22	-3,484
375,769	-22	-3,49
377,904	-22	-3,494
380,034	-22	-3,494
382,152	-22	-3,494
384,276	-22	-3,494
386,4	-22	-3,494
388,53	-22	-3,495
390,66	-22	-3,496
392,784	-22	-3,496
394,919	-22	-3,497
397,043	-22	-3,497
399,173	-22	-3,497
401,297	-22	-3,497
403,421	-22	-3,498
405,551	-22	-3,498
407,675	-22	-3,499
409,811	-22	-3,499
411,934	-21,5	-3,499
414,076	-22	-3,5
416,194	-22	-3,5
418,319	-22	-3,5
420,442	-21,5	-3,486
422,584	-21,5	-3,306
424,708	-21,5	-3,274
426,832	-21,5	-3,173
428,961	-19,5	-3,017
431,085	-19,5	-2,999
433,209	-19,5	-2,969
435,345	-18,5	-2,906
437,463	-17,5	-2,869
439,593	-17	-2,771
441,723	-15	-2,648
443,847	-14	-2,49
445,977	-13,5	-2,378
448,106	-12	-2,27
450,23	-12	-2,22
452,354	-11	-2,153
454,478	-9,5	-2,064
456,602	-9	-1,95
458,732	-8,5	-1,858
460,856	-8,5	-1,829
462,979	-7,5	-1,764
465,109	-7,5	-1,74
467,233	-7	-1,678
469,369	-6,5	-1,604
471,493	-6	-1,558
473,617	-6	-1,552
475,741	-5,5	-1,532
477,865	-5	-1,496
479,989	-5	-1,457
482,112	-5,5	-1,437
484,23	-6	-1,443
486,36	-4	-1,314
488,49	-3,5	-1,18
490,62	-3	-1,084
492,738	-2,5	-1,041
494,868	-2,5	-1,01
496,992	-2,5	-0,936
499,115	-1,5	-0,858
501,245	-1,5	-0,674
503,369	-1	-0,578
505,499	0	-0,465
507,629	0	-0,348
509,747	0	-0,252
511,871	0,5	-0,208
514,001	1	-0,144
516,125	1	-0,096
518,254	1,5	-0,078
520,378	2	-0,047
522,502	2	-0,032
524,626	2	-0,026
526,75	2	-0,026
528,88	2	-0,016
531,004	2	-0,021
533,127	2,5	-0,019
535,251	2	-0,018
537,375	2,5	-0,018
539,499	2,5	-0,018
541,629	2,5	-0,016
543,747	2,5	-0,016
545,877	2,5	-0,011
547,995	2,5	-0,01
550,125	2,5	-0,01
552,248	2,5	-0,01
554,366	2,5	-0,009
556,49	2,5	-0,01
558,62	2,5	-0,005
560,75	2,5	-0,003
562,88	3	-0,002
565,004	3	-0,002
567,14	2,5	-0,001
569,257	3	-0,001
571,387	2,5	-0,048
573,511	2,5	-0,096
575,641	2,5	-0,196
577,765	2,5	-0,242
579,895	1,5	-0,346
582,025	0,5	-0,55
584,143	0	-0,646
586,272	-1	-0,764
588,408	-2	-0,932
590,532	-2	-0,974
592,656	-2,5	-1,11
594,774	-3	-1,126
596,899	-3	-1,287
599,022	-3,5	-1,44
601,152	-4,5	-1,61
603,281	-4,5	-1,718
605,411	-5,5	-1,831
607,541	-6	-1,981
609,665	-7,5	-2,207
611,789	-9,5	-2,428
613,919	-10	-2,608
616,043	-10,5	-2,666
618,173	-12,5	-2,875
620,297	-13,5	-2,958
622,426	-15	-3,102
624,556	-15,5	-3,242
626,674	-15	-3,271
628,798	-15	-3,348
630,922	-18	-3,398
633,046	-19,5	-3,434
635,164	-19,5	-3,462
637,288	-19,5	-3,462
639,417	-20,5	-3,472
641,541	-20,5	-3,472
643,659	-20	-3,479
645,783	-20	-3,486
647,907	-20,5	-3,488
650,031	-20,5	-3,492
652,149	-21	-3,493
654,279	-20,5	-3,494
656,408	-21	-3,496
658,538	-20,5	-3,497
660,662	-20,5	-3,498
662,792	-20,5	-3,498
664,916	-21	-3,499
667,052	-20,5	-3,5
669,17	-20,5	-3,471
671,288	-20,5	-3,432
673,418	-20,5	-3,286
675,541	-20	-3,12
677,665	-19	-3,036
679,783	-18,5	-3,021
681,907	-17	-2,901
684,031	-16,5	-2,829
686,155	-15,5	-2,72
688,279	-15	-2,642
690,409	-14	-2,544
692,526	-12,5	-2,423
694,65	-12	-2,319
696,78	-10	-2,115
698,916	-9	-1,994
701,046	-8	-1,903
703,164	-7	-1,829
705,282	-6	-1,696
707,412	-6	-1,642
709,535	-5,5	-1,574
711,665	-5	-1,489
713,795	-4,5	-1,365
715,913	-4,5	-1,376
718,043	-3	-1,226
720,167	-3	-1,186
722,297	-3	-1,104
724,421	-2,5	-1,049
726,539	-2,5	-0,958
728,662	-1,5	-0,854
730,786	-1	-0,783
732,91	-0,5	-0,605
735,034	-0,5	-0,516
737,158	0	-0,412
739,276	0	-0,386
741,406	0	-0,3
743,529	0,5	-0,195
745,647	1	-0,162
747,777	1	-0,131
749,913	1,5	-0,096
752,037	1,5	-0,07
754,167	2	-0,054
756,291	2	-0,05
758,409	2	-0,039
760,538	2,5	-0,028
762,668	2,5	-0,019
764,792	2,5	-0,015
766,922	2,5	-0,009
769,046	3	-0,006
771,17	2,5	-0,004
773,3	2,5	-0,003
775,424	3	-0,002
777,548	2,5	-0,001
779,671	2,5	-0,001
781,795	2,5	0
783,919	2,5	-0,001
786,043	2,5	-0,012
788,167	2,5	-0,067
790,297	2	-0,223
792,421	2	-0,383
794,545	1,5	-0,493
796,662	0,5	-0,53
798,798	-0,5	-0,716
800,922	0	-0,718
803,04	0	-0,771
805,158	-1,5	-0,893
807,288	-2	-1,134
809,406	-2,5	-1,224
811,53	-2,5	-1,327
813,653	-3	-1,422
815,777	-3,5	-1,584
817,895	-4,5	-1,732
820,019	-5,5	-1,927
822,149	-6	-2,056
824,279	-6,5	-2,194
826,403	-7,5	-2,292
828,521	-8,5	-2,42
830,645	-9,5	-2,598
832,762	-11	-2,784
834,886	-12	-2,963
837,01	-14	-3,179
839,14	-15,5	-3,302
841,264	-16	-3,354
843,382	-17,5	-3,401
845,506	-18,5	-3,436
847,63	-18,5	-3,444
849,753	-19	-3,46
851,883	-19,5	-3,481
854,007	-19,5	-3,489
856,125	-20	-3,493
858,249	-20	-3,495
860,373	-20	-3,497
862,497	-20	-3,498
864,621	-19,5	-3,499
866,75	-20	-3,499
868,868	-20	-3,471
870,992	-19	-3,182
873,11	-18,5	-3,001
875,24	-15,5	-2,738
877,364	-14	-2,63
879,488	-12	-2,383
881,612	-9,5	-2,198
883,741	-8	-1,948
885,859	-6,5	-1,815
887,983	-5,5	-1,631
890,107	-5	-1,48
892,225	-4,5	-1,399
894,349	-3	-1,21
896,473	-2,5	-1,07
898,603	-2	-0,899
900,726	-1,5	-0,8
902,856	-0,5	-0,639
904,974	0	-0,538
907,098	0	-0,301
909,222	0,5	-0,18
911,346	1	-0,115
913,47	1,5	-0,082
915,594	1,5	-0,067
917,718	2	-0,05
919,835	2	-0,034
921,959	2,5	-0,022
924,089	2,5	-0,014
926,207	2,5	-0,01
928,331	3	-0,008
930,449	3	-0,005
932,573	2,5	-0,005
934,697	3	-0,004
936,82	2,5	-0,003
938,944	3	-0,002
941,062	2,5	-0,002
943,186	2,5	-0,001
945,304	2,5	0
947,428	2,5	-0,065
949,558	2,5	-0,187
951,688	2	-0,315
953,805	1,5	-0,346
955,929	1,5	-0,426
958,053	1,5	-0,47
960,177	0,5	-0,548
962,295	0	-0,636
964,419	-0,5	-0,791
966,543	-0,5	-0,836
968,673	-2	-1,027
970,796	-2,5	-1,18
972,932	-3	-1,344
975,056	-3	-1,486
977,186	-4,5	-1,699
979,31	-4,5	-1,819
981,434	-5	-1,939
983,558	-6	-2,097
985,682	-6	-2,248
987,806	-8	-2,406
989,929	-8,5	-2,482
992,053	-9	-2,687
994,177	-10,5	-2,802
996,295	-11,5	-2,92
998,431	-13	-3,089
1000,555	-14	-3,233
1002,679	-15	-3,336
1004,803	-17,5	-3,404
1006,932	-18,5	-3,457
1009,05	-19	-3,468
1011,186	-19,5	-3,482
1013,304	-19,5	-3,486
1015,428	-19,5	-3,492
1017,552	-19,5	-3,494
1019,67	-19,5	-3,496
1021,8	-19,5	-3,498
1023,923	-19,5	-3,498
1026,047	-19,5	-3,499
1028,165	-19,5	-3,5
1030,301	-19,5	-3,333
1032,425	-18	-3,122
1034,549	-17	-3,006
1036,673	-17,5	-2,919
1038,797	-18	-2,836
1040,914	-14,5	-2,735
1043,038	-13,5	-2,641
1045,162	-11,5	-2,5
1047,286	-10	-2,311
1049,398	-10	-2,24
1051,522	-8,5	-2,148
1053,652	-7,5	-1,97
1055,77	-6	-1,816
1057,9	-5,5	-1,742
1060,017	-5	-1,614
1062,147	-4	-1,443
1064,271	-3	-1,233
1066,389	-2,5	-1,174
1068,513	-2	-1,08
1070,643	-1,5	-1,01
1072,761	-1	-0,942
1074,885	-1	-0,748
1077,002	-0,5	-0,727
1079,138	0	-0,472
1081,262	0	-0,369
1083,386	1	-0,178
1085,51	1,5	-0,116
1087,628	1,5	-0,077
1089,758	2	-0,04
1091,882	2,5	-0,018
1094,005	3	-0,011
1096,129	2,5	-0,006
1098,247	3	-0,004
1100,371	2,5	-0,002
1102,495	2,5	-0,002
1104,619	2,5	-0,001
1106,749	2,5	-0,044
1108,867	2,5	-0,186
1110,996	1,5	-0,372
1113,114	1,5	-0,431
1115,232	0	-0,595
1117,362	-1	-0,777
1119,486	-1,5	-0,908
1121,604	-2	-1,041
1123,728	-2,5	-1,177
1125,852	-3	-1,329
1127,975	-3,5	-1,442
1130,093	-3,5	-1,612
1132,217	-4,5	-1,743
1134,335	-5	-1,861
1136,453	-5	-1,924
1138,571	-5,5	-2,046
1140,695	-6,5	-2,176
1142,813	-6	-2,331
1144,937	-8	-2,518
1147,048	-9	-2,691
1149,172	-9,5	-2,778
1151,29	-11	-2,948
1153,444	-13,5	-3,231
1155,562	-15	-3,343
1157,692	-17	-3,431
1159,81	-18	-3,451
1161,934	-18,5	-3,469
1164,057	-19	-3,483
1166,175	-19	-3,488
1168,299	-19	-3,49
1170,423	-19	-3,494
1172,541	-19,5	-3,496
1174,665	-19,5	-3,498
1176,789	-19,5	-3,499
1178,907	-19,5	-3,499
1181,036	-19,5	-3,497
1183,16	-19	-3,176
1185,284	-17	-2,959
1187,396	-15	-2,861
1189,52	-13,5	-2,65
1191,638	-11	-2,416
1193,756	-10	-2,321
1195,874	-9	-2,232
1198,009	-8,5	-2,004
1200,127	-6	-1,813
1202,257	-4,5	-1,573
1204,375	-3,5	-1,378
1206,505	-3	-1,136
1208,623	-2	-1,02
1210,747	-1,5	-0,771
1212,865	-0,5	-0,575
1215,013	0	-0,33
1217,13	0	-0,198
1219,254	1,5	-0,109
1221,378	2	-0,061
1223,49	2	-0,039
1225,614	2,5	-0,02
1227,732	3	-0,01
1229,862	3	-0,004
1231,981	3	-0,002
1234,103	2,5	-0,002
1236,221	2,5	-0,001
1238,345	3	0
1240,463	2,5	-0,12
1242,587	2	-0,344
1244,705	1,5	-0,53
1246,829	-0,5	-0,72
1248,953	-1	-0,851
1251,076	-2	-1,078
1253,194	-2,5	-1,231
1255,312	-3	-1,447
1257,436	-3,5	-1,665
1259,554	-4,5	-1,823
1261,672	-5	-1,998
1263,796	-6	-2,23
1265,908	-7	-2,332
1268,032	-8	-2,496
1270,161	-9,5	-2,746
1272,279	-10	-2,816
1274,409	-12	-3,007
1276,533	-13,5	-3,191
1278,657	-15	-3,331
1280,781	-15,5	-3,392
1282,893	-17	-3,431
1285,011	-18	-3,457
1287,134	-18,5	-3,474
1289,252	-19	-3,485
1291,377	-19	-3,494
1293,494	-19	-3,496
1295,612	-19	-3,497
1297,742	-19	-3,499
1299,86	-19	-3,5
1301,984	-19	-3,27
1304,107	-16,5	-3,019
1306,231	-14,5	-2,808
1308,349	-12,5	-2,59
1310,473	-10,5	-2,406
1312,591	-9	-2,221
1314,721	-7,5	-1,996
1316,839	-5,5	-1,774
1318,963	-4,5	-1,589
1321,08	-3,5	-1,394
1323,204	-2	-1,161
1325,328	-1,5	-0,914
1327,446	-1	-0,765
1329,57	0	-0,571
1331,688	0	-0,429
1333,812	0,5	-0,264
1335,93	1	-0,132
1338,053	2	-0,056
1340,171	2	-0,041
1342,289	2	-0,028
1344,407	2,5	-0,022
1346,531	2,5	-0,012
1348,649	2,5	-0,008
1350,773	3	-0,005
1352,891	2,5	-0,003
1355,015	2,5	-0,002
1357,132	2,5	-0,001
1359,262	2,5	-0,037
1361,38	2,5	-0,238
1363,498	2	-0,405
1365,628	0	-0,626
1367,746	-1	-0,81
1369,87	-1,5	-1,016
1371,988	-2	-1,186
1374,111	-2,5	-1,316
1376,235	-2,5	-1,421
1378,353	-3	-1,478
1380,477	-3,5	-1,716
1382,595	-4,5	-1,865
1384,719	-5	-1,963
1386,837	-5	-2,106
1388,961	-6	-2,21
1391,079	-7,5	-2,395
1393,196	-8	-2,495
1395,32	-9,5	-2,733
1397,438	-11	-2,913
1399,562	-12,5	-3,13
1401,68	-14,5	-3,302
1403,804	-16,5	-3,407
1405,928	-17	-3,436
1408,057	-18	-3,474
1410,175	-18	-3,489
1412,293	-18,5	-3,494
1414,411	-18,5	-3,496
1416,529	-18,5	-3,498
1418,659	-18,5	-3,499
1420,783	-18,5	-3,499
1422,913	-18,5	-3,278
1425,031	-17	-3,025
1427,154	-15	-2,804
1429,284	-11,5	-2,52
1431,402	-9	-2,264
1433,532	-8	-2,078
1435,65	-6	-1,839
1437,768	-5,5	-1,733
1439,892	-4,5	-1,56
1442,016	-3,5	-1,43
1444,139	-3	-1,304
1446,257	-1,5	-1,119
1448,375	-1	-0,95
1450,499	-0,5	-0,728
1452,623	0	-0,577
1454,741	0	-0,354
1456,859	1	-0,182
1458,983	1,5	-0,09
1461,1	2,5	-0,05
1463,218	2,5	-0,027
1465,348	3	-0,011
1467,466	2,5	-0,005
1469,59	3	-0,002
1471,708	3	-0,001
1473,832	2,5	-0,001
1475,95	2,5	-0,001
1478,068	2,5	0
1480,191	2,5	-0,085
1482,309	2,5	-0,274
1484,433	1,5	-0,442
1486,551	1	-0,592
1488,675	-1	-0,782
1490,799	-1,5	-0,965
1492,917	-2	-1,209
1495,041	-2,5	-1,334
1497,158	-2,5	-1,43
1499,288	-3	-1,538
1501,412	-4	-1,784
1503,53	-4,5	-1,971
1505,66	-6	-2,269
1507,778	-7	-2,376
1509,902	-7	-2,643
1512,02	-10	-2,814
1514,143	-11	-3,056
1516,267	-13,5	-3,246
1518,385	-14,5	-3,34
1520,509	-16	-3,422
1522,627	-17,5	-3,46
1524,745	-18	-3,484
1526,881	-18,5	-3,493
1528,999	-18,5	-3,495
1531,116	-18,5	-3,498
1533,234	-18,5	-3,499
1535,352	-18	-3,486
1537,476	-18	-3,271
1539,6	-16,5	-3,079
1541,712	-15	-2,95
1543,836	-12,5	-2,69
1545,954	-10	-2,458
1548,072	-9	-2,318
1550,189	-6,5	-2,084
1552,307	-6,5	-1,954
1554,431	-4,5	-1,711
1556,549	-3,5	-1,503
1558,667	-3	-1,266
1560,791	-1	-0,91
1562,915	0	-0,584
1565,039	0,5	-0,294
1567,162	1,5	-0,102
1569,286	2	-0,048
1571,41	3	-0,02
1573,534	3	-0,008
1575,652	3	-0,006
1577,77	3	-0,004
1579,888	2,5	-0,001
1582,012	2,5	-0,001
1584,129	3	-0,085
1586,253	2	-0,357
1588,371	0	-0,634
1590,495	-1,5	-0,956
1592,613	-2	-1,174
1594,737	-2,5	-1,396
1596,861	-3	-1,642
1598,979	-4,5	-1,945
1601,102	-5,5	-2,187
1603,22	-6,5	-2,361
1605,338	-8	-2,574
1607,462	-9,5	-2,843
1609,586	-12	-3,042
1611,71	-13	-3,185
1613,834	-14,5	-3,321
1615,952	-15,5	-3,391
1618,07	-15	-3,437
1620,187	-17,5	-3,468
1622,311	-18	-3,483
1624,435	-18,5	-3,488
1626,553	-18	-3,493
1628,677	-18	-3,492
1630,795	-18,5	-3,496
1632,913	-18,5	-3,496
1635,043	-18,5	-3,496
1637,161	-18,5	-3,495
1639,284	-18,5	-3,498
1641,402	-18	-3,499
1643,514	-18,5	-3,498
1645,644	-18	-3,498
1647,762	-18	-3,499
1649,886	-18	-3,499
1652,01	-18,5	-3,451
1654,133	-18	-3,229
1656,251	-18	-3,192
1658,363	-16	-3,019
1660,475	-15	-2,863
1662,599	-13	-2,631
1664,717	-11	-2,47
1666,835	-9,5	-2,296
1668,959	-8	-2,085
1671,088	-5,5	-1,851
1673,212	-4,5	-1,62
1675,33	-3,5	-1,413
1677,448	-3	-1,323
1679,572	-2	-1,134
1681,69	-1	-0,932
1683,808	-0,5	-0,741
1685,926	0	-0,555
1688,043	0	-0,47
1690,161	0	-0,429
1692,285	0	-0,251
1694,409	1	-0,139
1696,527	1,5	-0,067
1698,651	2	-0,035
1700,769	2,5	-0,02
1702,887	2,5	-0,016
1705,005	2,5	-0,012
1707,128	3	-0,008
1709,258	2,5	-0,007
1711,376	2,5	-0,005
1713,494	2,5	-0,003
1715,618	2,5	-0,002
1717,742	3	-0,001
1719,866	3	0
1721,984	2,5	-0,201
1724,101	2,5	-0,289
1726,225	1,5	-0,446
1728,343	0,5	-0,6
1730,467	-0,5	-0,864
1732,591	-1,5	-1,078
1734,709	-1,5	-1,234
1736,827	-2,5	-1,424
1738,951	-3	-1,668
1741,068	-3,5	-1,783
1743,192	-4	-1,914
1745,31	-4,5	-2,068
1747,428	-5	-2,185
1749,552	-6	-2,417
1751,67	-7	-2,527
1753,788	-8	-2,67
1755,912	-9,5	-2,876
1758,029	-11	-3,077
1760,147	-12	-3,204
1762,265	-13,5	-3,316
1764,383	-15	-3,395
1766,507	-16,5	-3,445
1768,631	-17,5	-3,473
1770,749	-17,5	-3,484
1772,867	-18	-3,489
1774,997	-18	-3,494
1777,114	-18	-3,496
1779,238	-18	-3,498
1781,356	-18	-3,499
1783,468	-18	-3,5
1785,592	-18	-3,384
1787,71	-17,5	-3,119
1789,834	-15	-2,945
1791,958	-12,5	-2,681
1794,075	-11	-2,538
1796,193	-9,5	-2,385
1798,323	-7,5	-2,116
1800,441	-6	-1,958
1802,565	-6	-1,913
1804,689	-5	-1,739
1806,813	-4,5	-1,736
1808,931	-4,5	-1,624
1811,048	-3,5	-1,51
1813,172	-3	-1,42
1815,29	-3	-1,357
1817,414	-1,5	-1,119
1819,532	-1	-0,95
1821,65	-1	-0,802
1823,774	0	-0,516
1825,892	0,5	-0,315
1828,01	1	-0,156
1830,139	1,5	-0,093
1832,251	2	-0,062
1834,375	2,5	-0,032
1836,493	2,5	-0,02
1838,623	2,5	-0,012
1840,741	3	-0,008
1842,859	2,5	-0,005
1844,977	2,5	-0,004
1847,094	2,5	-0,002
1849,218	3	-0,001
1851,336	3	0
1853,46	3	-0,019
1855,578	3	-0,251
1857,708	2,5	-0,356
1859,826	1,5	-0,505
1861,944	1	-0,591
1864,068	-0,5	-0,769
1866,179	-0,5	-0,85
1868,303	-0,5	-1,007
1870,421	-1	-1,007
1872,539	-1,5	-1,192
1874,663	-1,5	-1,366
1876,787	-2,5	-1,524
1878,905	-3	-1,725
1881,022	-3,5	-1,884
1883,152	-5	-2,113
1885,276	-5	-2,196
1887,394	-6	-2,318
1889,512	-6	-2,366
1891,63	-7,5	-2,526
1893,748	-8,5	-2,668
1895,866	-9	-2,828
1897,996	-10,5	-2,994
1900,113	-12	-3,121
1902,231	-13	-3,268
1904,355	-15	-3,38
1906,473	-15,5	-3,413
1908,591	-16,5	-3,442
1910,721	-17	-3,471
1912,839	-17	-3,477
1914,957	-18	-3,486
1917,08	-18	-3,491
1919,198	-18	-3,493
1921,322	-17,5	-3,496
1923,44	-18	-3,498
1925,558	-18	-3,499
1927,676	-18	-3,499
1929,8	-18	-3,5
1931,918	-18	-3,446
1934,041	-18	-3,264
1936,159	-17,5	-3,134
1938,277	-16	-3,026
1940,395	-14,5	-2,895
1942,513	-14,5	-2,879
1944,637	-13	-2,743
1946,755	-12	-2,63
1948,873	-10	-2,467
1951,003	-7,5	-2,21
1953,126	-6,5	-2,07
1955,244	-5,5	-1,915
1957,374	-4,5	-1,67
1959,492	-3	-1,378
1961,61	-2	-1,186
1963,734	-1,5	-1,008
1965,852	-1	-0,844
1967,97	0	-0,6
1970,087	0	-0,434
1972,205	0,5	-0,247
1974,323	1	-0,168
1976,435	1,5	-0,104
1978,553	2	-0,059
1980,683	2,5	-0,032
1982,807	2,5	-0,02
1984,925	3	-0,015
1987,048	3	-0,007
1989,166	2,5	-0,004
1991,284	2,5	-0,002
1993,408	3	-0,001
1995,532	2,5	-0,032
1997,65	2,5	-0,224
1999,768	1,5	-0,446
2001,892	0	-0,645
2004,009	-0,5	-0,766
2006,127	-1	-0,92
2008,251	-1,5	-1,099
2010,369	-2	-1,279
2012,487	-2,5	-1,496
2014,611	-3	-1,691
2016,729	-3	-1,696
2018,853	-4	-1,922
2020,97	-4,5	-2,114
2023,094	-5,5	-2,276
2025,212	-6	-2,42
2027,33	-7	-2,557
2029,454	-8	-2,747
2031,572	-9,5	-2,902
2033,69	-9	-3,076
2035,808	-12	-3,249
2037,938	-15	-3,374
2040,055	-14,5	-3,43
2042,185	-16,5	-3,464
2044,309	-16,5	-3,48
2046,427	-16,5	-3,488
2048,539	-16,5	-3,492
2050,663	-17	-3,496
2052,781	-17	-3,497
2054,898	-17	-3,498
2057,016	-17	-3,499
2059,14	-17	-3,5
2061,258	-17	-3,496
2063,376	-16,5	-3,354
2065,5	-15,5	-3,136
2067,624	-15	-3,047
2069,736	-15	-3,061
2071,854	-14	-2,918
2073,977	-11,5	-2,75
2076,095	-10,5	-2,665
2078,219	-9,5	-2,513
2080,343	-8,5	-2,398
2082,461	-7,5	-2,261
2084,579	-6	-2,122
2086,703	-5	-1,918
2088,827	-3,5	-1,606
2090,95	-4	-1,709
2093,062	-3	-1,559
2095,18	-2,5	-1,411
2097,304	-1,5	-1,19
2099,422	-1	-1,01
2101,534	-0,5	-0,86
2103,658	0	-0,638
2105,776	0	-0,531
2107,894	0,5	-0,394
2110,023	1	-0,18
2112,141	2	-0,086
2114,265	2	-0,056
2116,389	3	-0,021
2118,513	3	-0,012
2120,631	3	-0,008
2122,749	3	-0,004
2124,867	3	-0,003
2126,99	3	-0,002
2129,108	3	-0,001
2131,226	3	-0,005
2133,35	3	-0,269
2135,468	2	-0,457
2137,592	0	-0,747
2139,716	-1	-1,016
2141,834	-1	-1,142
2143,951	-2	-1,361
2146,069	-1,5	-1,402
2148,193	-2,5	-1,571
2150,311	-2,5	-1,645
2152,429	-2,5	-1,643
2154,553	-3	-1,754
2156,671	-3	-1,817
2158,789	-3	-1,811
2160,906	-4	-2,022
2163,03	-5	-2,245
2165,148	-4,5	-2,245
2167,266	-4,5	-2,238
2169,384	-4	-2,142
2171,508	-5	-2,358
2173,632	-5,5	-2,414
2175,744	-6,5	-2,602
2177,867	-7	-2,742
2179,985	-8,5	-2,908
2182,103	-9,5	-3,11
2184,227	-10,5	-3,216
2186,345	-12	-3,345
2188,463	-13,5	-3,392
2190,581	-14,5	-3,435
2192,705	-14,5	-3,442
2194,817	-15	-3,462
2196,934	-15,5	-3,474
2199,052	-15,5	-3,476
2201,176	-15	-3,472
2203,294	-15,5	-3,485
2205,418	-15,5	-3,492
2207,536	-15,5	-3,495
2209,66	-16	-3,497
2211,778	-16	-3,498
2213,895	-16	-3,499
2216,019	-15,5	-3,5
2218,137	-16	-3,475
2220,255	-15,5	-3,306
2222,379	-15	-3,075
2224,497	-13,5	-2,947
2226,609	-11,5	-2,791
2228,727	-9	-2,557
2230,844	-7,5	-2,289
2232,968	-5,5	-2,124
2235,086	-5	-1,97
2237,204	-5	-1,901
2239,322	-3,5	-1,658
2241,44	-2	-1,328
2243,564	-1,5	-1,102
2245,688	-0,5	-0,869
2247,812	0	-0,674
2249,929	0	-0,554
2252,047	0,5	-0,438
2254,171	1	-0,207
2256,295	1,5	-0,134
2258,413	2	-0,077
2260,531	2,5	-0,056
2262,655	3	-0,035
2264,779	3	-0,018
2266,902	3	-0,008
2269,02	3	-0,006
2271,138	3	-0,003
2273,262	3	-0,001
2275,38	3	-0,026
2277,504	2,5	-0,31
2279,628	1,5	-0,523
2281,752	0	-0,706
2283,869	-0,5	-0,898
2285,993	-1	-1,055
2288,111	-1,5	-1,209
2290,229	-1	-1,156
2292,347	-1,5	-1,309
2294,477	-1,5	-1,316
2296,595	-2	-1,523
2298,713	-2,5	-1,73
2300,831	-3	-1,92
2302,96	-4,5	-2,171
2305,078	-4,5	-2,368
2307,202	-6	-2,563
2309,32	-7	-2,695
2311,444	-8,5	-2,926
2313,562	-10	-3,112
2315,68	-11,5	-3,27
2317,81	-13	-3,389
2319,927	-14,5	-3,445
2322,045	-15	-3,468
2324,163	-15	-3,482
2326,287	-15,5	-3,491
2328,405	-15	-3,494
2330,523	-15	-3,498
2332,641	-15	-3,499
2334,765	-15	-3,5
2336,882	-15	-3,45
2339	-15	-3,248
2341,124	-13,5	-3,03
2343,242	-10,5	-2,796
2345,36	-9,5	-2,674
2347,478	-8,5	-2,541
2349,602	-7	-2,363
2351,72	-5,5	-2,125
2353,849	-5	-1,959
2355,973	-5	-1,95
2358,091	-4	-1,816
2360,209	-3	-1,589
2362,333	-2	-1,364
2364,457	-1	-1,18
2366,581	0	-0,884
2368,699	0	-0,66
2370,816	0,5	-0,388
2372,94	1	-0,225
2375,064	1,5	-0,112
2377,188	1,5	-0,135
2379,306	2	-0,067
2381,436	2,5	-0,029
2383,554	3	-0,016
2385,678	3	-0,016
2387,789	3	-0,01
2389,913	3	-0,007
2392,031	3	-0,008
2394,149	3	-0,004
2396,273	2,5	-0,003
2398,397	3	-0,001
2400,515	3	-0,001
2402,639	3	-0,001
2404,763	3	-0,002
2406,88	3	-0,003
2408,998	3	-0,004
2411,116	3	-0,002
2413,246	3	0
2415,364	3	-0,166
2417,482	2,5	-0,341
2419,6	1	-0,522
2421,724	0	-0,765
2423,841	-0,5	-0,876
2425,965	-0,5	-1,001
2428,095	-1,5	-1,294
2430,213	-2	-1,528
2432,331	-2,5	-1,708
2434,449	-3	-1,862
2436,573	-3,5	-2,083
2438,697	-5	-2,32
2440,814	-5	-2,389
2442,926	-5	-2,46
2445,05	-6	-2,692
2447,168	-7	-2,862
2449,286	-8,5	-3,079
2451,404	-10,5	-3,311
2453,528	-13	-3,421
2455,646	-13,5	-3,453
2457,764	-14	-3,478
2459,881	-14,5	-3,49
2462,005	-14,5	-3,495
2464,129	-14,5	-3,495
2466,247	-14,5	-3,498
2468,371	-14,5	-3,499
2470,489	-14,5	-3,5
2472,607	-14,5	-3,5
2474,743	-14	-3,5
2476,86	-14,5	-3,5
2478,978	-14,5	-3,5
2481,096	-14,5	-3,5
2483,22	-14,5	-3,5
2485,344	-14,5	-3,5
2487,456	-14,5	-3,5
2489,574	-14,5	-3,5
2491,698	-14,5	-3,5
2493,821	-14,5	-3,5
2495,939	-14	-3,489
2498,063	-14	-3,306
2500,187	-13	-3,044
2502,305	-10	-2,767
2504,423	-7,5	-2,539
2506,547	-7,5	-2,509
2508,665	-6,5	-2,372
2510,783	-5,5	-2,26
2512,9	-4,5	-2,085
2515,024	-4	-1,94
2517,142	-3	-1,732
2519,26	-3	-1,733
2521,384	-2	-1,495
2523,502	-2,5	-1,597
2525,62	-3	-1,704
2527,737	-3	-1,81
2529,855	-2,5	-1,619
2531,985	-1,5	-1,379
2534,109	-0,5	-1,141
2536,227	0	-0,903
2538,345	0	-0,698
2540,469	0	-0,608
2542,587	0	-0,662
2544,705	0	-0,519
2546,822	0,5	-0,342
2548,946	1,5	-0,174
2551,064	1	-0,198
2553,182	1	-0,231
2555,3	1,5	-0,178
2557,43	1,5	-0,132
2559,548	1,5	-0,172
2561,666	1,5	-0,121
2563,783	2	-0,07
2565,913	2,5	-0,036
2568,031	3	-0,02
2570,155	3	-0,014
2572,279	3	-0,007
2574,397	3	-0,004
2576,515	3	-0,003
2578,633	3	-0,002
2580,756	3	0
2582,88	3	-0,089
2584,998	3	0
2587,116	3	-0,001
2589,246	3	-0,001
2591,364	3	-0,001
2593,494	3	0
2595,606	3	-0,001
2597,736	3	0
2599,853	3	-0,002
2601,971	3,5	-0,002
2604,089	3	-0,003
2606,213	3	-0,004
2608,331	3	-0,006
2610,455	3	-0,008
2612,573	3	-0,012
2614,703	3	-0,015
2616,82	3	-0,023
2618,944	3	-0,016
2621,068	3	-0,021
2623,186	2,5	-0,036
2625,31	2,5	-0,057
2627,434	2	-0,069
2629,558	2	-0,047
2631,676	2	-0,064
2633,799	2,5	-0,069
2635,917	1,5	-0,1
2638,041	1,5	-0,146
2640,153	1	-0,193
2642,277	1	-0,211
2644,395	1	-0,242
2646,513	0,5	-0,324
2648,631	0,5	-0,5
2650,749	0	-0,606
2652,866	0	-0,762
2654,99	0	-0,96
2657,108	0	-0,86
2659,22	0	-1,023
2661,338	0	-1,081
2663,462	-0,5	-1,239
2665,58	0	-1,142
2667,692	-0,5	-1,242
2669,809	-0,5	-1,162
2671,933	0	-0,964
2674,045	-0,5	-1,159
2676,163	0	-0,999
2678,287	0	-1,091
2680,411	-0,5	-1,238
2682,529	-0,5	-1,174
2684,647	0	-0,999
2686,764	-0,5	-1,194
2688,888	-0,5	-1,215
2691,006	0	-1,098
2693,124	-0,5	-1,2
2695,248	-0,5	-1,1
2697,366	0	-0,92
2699,478	0	-0,829
2701,602	0	-0,634
2703,725	0,5	-0,46
2705,849	0,5	-0,314
2707,967	0,5	-0,41
2710,097	0,5	-0,441
2712,221	0,5	-0,439
2714,345	0,5	-0,446
2716,463	0	-0,53
2718,581	1	-0,324
2720,705	0,5	-0,385
2722,828	1	-0,222
2724,946	1	-0,202
2727,07	1	-0,178
2729,194	1,5	-0,222
2731,312	1	-0,212
2733,43	1	-0,259
2735,548	0,5	-0,33
2737,678	0,5	-0,351
2739,795	0,5	-0,424
2741,913	1	-0,42
2744,031	0,5	-0,404
2746,155	0,5	-0,518
2748,273	0,5	-0,646
2750,391	0,5	-0,492
2752,515	1	-0,398
2754,639	1	-0,295
2756,762	1	-0,354
2758,874	0,5	-0,454
2760,998	0,5	-0,509
2763,116	0,5	-0,516
2765,24	0,5	-0,406
2767,358	1	-0,428
2769,482	0,5	-0,378
2771,6	1	-0,389
2773,723	0,5	-0,343
2775,841	1	-0,282
2777,965	1	-0,251
2780,083	0,5	-0,32
2782,207	0,5	-0,379
2784,325	0,5	-0,47
2786,449	0,5	-0,255
2788,567	0,5	-0,426
2790,684	1	-0,367
2792,808	0,5	-0,46
2794,92	0,5	-0,49
2797,038	0,5	-0,522
2799,162	1	-0,413
2801,286	0	-0,543
2803,404	0	-0,704
2805,522	0,5	-0,666
2807,646	0,5	-0,423
2809,769	1	-0,273
2811,893	1,5	-0,229
2814,005	1	-0,224
2816,123	1	-0,203
2818,241	1,5	-0,175
2820,365	1	-0,205
2822,483	1	-0,227
2824,601	1	-0,273
2826,724	0,5	-0,39
2828,842	0,5	-0,412
2830,954	0,5	-0,448
2833,072	0,5	-0,359
2835,19	1	-0,276
2837,308	1	-0,29
2839,426	1,5	-0,17
2841,544	1,5	-0,146
2843,673	2	-0,085
2845,791	2,5	-0,052
2847,909	2,5	-0,038
2850,027	2,5	-0,024
2852,151	3	-0,02
2854,269	3	-0,012
2856,387	3	-0,009
2858,511	3	-0,008
2860,634	3	-0,006
2862,752	3	-0,005
2864,87	3	-0,004
2866,988	2,5	-0,004
2869,112	3	-0,002
2871,236	3	-0,001
2873,354	3	-0,001
2875,472	3	0
2877,602	3	-0,028
2879,719	3	-0,212
2881,837	2,5	-0,346
2883,955	2	-0,48
2886,079	0,5	-0,668
2888,197	0	-0,743
2890,315	0	-0,844
2892,433	0	-0,892
2894,557	0	-0,915
2896,674	0	-0,745
2898,798	0	-0,738
2900,916	0	-0,774
2903,034	0	-0,716
2905,152	0	-0,767
2907,27	0	-0,821
2909,388	0	-0,719
2911,512	1	-0,594
2913,629	0,5	-0,664
2915,747	0	-0,679
2917,865	0	-0,817
2919,983	0	-0,726
2922,107	0,5	-0,647
2924,219	0	-0,725
2926,337	0,5	-0,704
2928,455	1	-0,602
2930,585	0	-0,79
2932,702	0	-0,695
2934,82	0	-0,709
2936,944	0	-0,649
2939,062	0	-0,856
2941,18	0	-0,876
2943,298	0	-0,956
2945,422	-0,5	-1,038
2947,54	-0,5	-0,996
2949,657	0	-0,969
2951,775	-0,5	-1,111
2953,899	-0,5	-1,11
2956,017	-0,5	-1,2
2958,141	-0,5	-1,096
2960,259	-1	-1,234
2962,383	-0,5	-1,236
2964,501	-1	-1,321
2966,618	-1	-1,523
2968,736	-1	-1,566
2970,86	-1,5	-1,76
2972,978	-2	-1,855
2975,096	-2	-1,972
2977,22	-2,5	-2,14
2979,344	-3	-2,323
2981,462	-3	-2,408
2983,579	-3,5	-2,593
2985,703	-3,5	-2,618
2987,827	-4,5	-2,771
2989,951	-4,5	-2,932
2992,069	-5	-3,082
2994,187	-6	-3,193
2996,311	-6,5	-3,313
2998,429	-7,5	-3,378
3000,546	-8	-3,411
3002,67	-8,5	-3,428
3004,794	-8,5	-3,446
3006,912	-9	-3,454
3009,03	-9	-3,457
3011,154	-9	-3,476
3013,278	-9,5	-3,483
3015,396	-9,5	-3,48
3017,514	-9,5	-3,485
3019,631	-9,5	-3,488
3021,755	-9,5	-3,492
3023,873	-9,5	-3,494
3025,991	-9	-3,494
3028,103	-9,5	-3,496
3030,227	-9,5	-3,497
3032,345	-9,5	-3,498
3034,463	-9,5	-3,498
3036,58	-9,5	-3,499
3038,704	-9,5	-3,499
3040,816	-9,5	-3,499
3042,934	-9,5	-3,5
3045,052	-9,5	-3,414
3047,182	-9	-3,228
3049,3	-8,5	-3,126
3051,418	-7	-3,025
3053,529	-7,5	-2,986
3055,647	-6,5	-2,917
3057,771	-5,5	-2,765
3059,889	-5	-2,691
3062,007	-4	-2,57
3064,131	-3,5	-2,455
3066,255	-3	-2,296
3068,373	-2	-2,085
3070,491	-2	-2
3072,614	-1,5	-1,8
3074,738	-1	-1,659
3076,856	-1	-1,56
3078,974	-0,5	-1,538
3081,098	-0,5	-1,371
3083,222	-0,5	-1,266
3085,34	0	-1,175
3087,458	0	-1
3089,588	0	-0,718
3091,705	0,5	-0,58
3093,823	0,5	-0,51
3095,941	0,5	-0,331
3098,059	1	-0,252
3100,183	1,5	-0,14
3102,301	1,5	-0,1
3104,419	1,5	-0,082
3106,542	2	-0,065
3108,666	2	-0,041
3110,784	2,5	-0,028
3112,926	3	-0,012
3115,05	3	-0,009
3117,174	3	-0,007
3119,292	3	-0,004
3121,41	3	-0,003
3123,533	3	-0,001
3125,651	3	-0,001
3127,769	3	0
3129,899	2,5	-0,077
3132,017	3	-0,196
3134,141	2,5	-0,374
3136,253	1,5	-0,433
3138,371	0,5	-0,625
3140,489	0	-0,726
3142,606	0	-0,827
3144,73	0	-0,941
3146,854	-0,5	-1,072
3148,702	2,5	-0,001