File: Cycling_tests/_newS/_1G40/entrada/_1.txt
Time (s)	Load (N)	Displacement (mm)
0	-0,16	-0,035
2,225	-1,26	-0,625
4,361	-0,56	-0,689
6,496	-1,36	-0,756
8,632	-2,08	-0,793
10,768	-2,78	-0,931
12,91	-3,02	-0,988
15,046	-3,84	-1,055
17,194	-3,96	-1,156
19,33	-4,02	-1,204
21,466	-5,24	-1,32
23,602	-4,7	-1,372
25,749	-6	-1,474
27,891	-6,56	-1,6
30,027	-6,3	-1,605
32,163	-5,88	-1,682
34,299	-7,9	-1,862
36,453	-8,78	-2,005
38,589	-9,3	-2,094
40,731	-10,36	-2,219
42,866	-9,82	-2,256
45,002	-10,58	-2,378
47,15	-11,2	-2,458
49,298	-12,62	-2,613
51,44	-13,64	-2,786
53,588	-14,7	-2,898
55,724	-15,7	-2,94
57,872	-16,34	-3,1
60,013	-15,66	-3,086
62,155	-15,08	-3,158
64,303	-17,6	-3,235
66,445	-17,48	-3,331
68,587	-18,42	-3,353
70,723	-19,48	-3,382
72,871	-19,44	-3,377
75,007	-18,94	-3,371
77,149	-18,72	-3,335
79,296	-17,26	-3,286
81,432	-15,6	-3,141
83,568	-16,7	-3,182
85,704	-15,46	-3,037
87,846	-14,66	-2,912
89,994	-14,64	-2,993
92,136	-14,86	-3,076
94,277	-16,24	-3,186
96,419	-17,06	-3,222
98,561	-18,38	-3,313
100,703	-18,52	-3,353
102,851	-17,86	-3,363
104,993	-18,58	-3,37
107,135	-18,52	-3,387
109,283	-17,76	-3,386
111,436	-18,66	-3,42
113,584	-19,78	-3,408
115,732	-19,94	-3,435
117,868	-20,28	-3,45
120,016	-20,6	-3,466
122,152	-20,44	-3,463
124,294	-20,08	-3,458
126,436	-20,22	-3,454
128,578	-20,72	-3,47
130,725	-20,56	-3,48
132,879	-21,02	-3,488
135,015	-20,92	-3,484
137,151	-20,84	-3,483
139,287	-20,86	-3,484
141,429	-20,86	-3,483
143,577	-20,9	-3,486
145,719	-20,88	-3,486
147,866	-20,9	-3,488
150,014	-20,92	-3,492
152,162	-20,94	-3,492
154,31	-20,88	-3,491
156,452	-20,9	-3,494
158,594	-20,9	-3,494
160,742	-20,88	-3,496
162,89	-20,86	-3,498
165,037	-20,84	-3,498
167,191	-20,76	-3,499
169,339	-20,68	-3,499
171,493	-20,64	-3,488
173,647	-20,6	-3,338
175,795	-20,28	-3,186
177,931	-19,38	-3,037
180,079	-17,62	-2,892
182,22	-16,32	-2,799
184,368	-15,96	-2,692
186,516	-15,64	-2,69
188,658	-14,98	-2,657
190,8	-14,34	-2,532
192,954	-12,62	-2,304
195,096	-11,14	-2,232
197,25	-10,1	-1,999
199,403	-9,22	-1,889
201,551	-7,98	-1,724
203,705	-6,24	-1,468
205,854	-5,02	-1,398
208,001	-4,58	-1,265
210,155	-3,8	-1,144
212,297	-2,98	-1,047
214,445	-2,52	-0,944
216,604	-1,06	-0,66
218,752	-0,24	-0,606
220,906	0,4	-0,389
223,049	0,48	-0,339
225,202	1,68	-0,217
227,344	2,18	-0,129
229,498	3,14	-0,094
231,658	3,58	-0,056
233,811	4	-0,03
235,959	3,98	-0,026
238,113	4,14	-0,016
240,253	4,1	-0,015
242,403	4,16	-0,012
244,557	4,2	-0,008
246,699	4,22	-0,005
248,835	4,22	-0,004
250,976	4,22	-0,002
253,13	4,2	-0,002
255,29	4,2	0
257,438	4,18	0
259,592	4,18	-0,005
261,74	4,18	-0,193
263,894	3,82	-0,356
266,036	3,5	-0,412
268,19	2,44	-0,539
270,337	2,78	-0,598
272,491	1,38	-0,731
274,639	0,72	-0,896
276,793	-0,1	-0,981
278,935	-0,5	-1,062
281,089	-2	-1,232
283,225	-1,72	-1,284
285,373	-2,92	-1,407
287,526	-3,34	-1,565
289,674	-4,6	-1,767
291,834	-5,96	-2,031
293,983	-5,8	-2,1
296,13	-6,42	-2,182
298,278	-7,58	-2,241
300,426	-8,28	-2,338
302,58	-9,36	-2,517
304,727	-10,9	-2,629
306,875	-11,04	-2,727
309,017	-10,78	-2,766
311,159	-12,44	-2,916
313,319	-13,26	-3,047
315,461	-13,28	-3,123
317,609	-16,06	-3,302
319,763	-17,34	-3,385
321,905	-17,38	-3,4
324,064	-18,78	-3,445
326,212	-19,04	-3,459
328,372	-19,56	-3,475
330,514	-19,6	-3,482
332,668	-19,72	-3,49
334,816	-19,72	-3,494
336,97	-19,74	-3,495
339,117	-19,74	-3,496
341,271	-19,74	-3,498
343,419	-19,72	-3,498
345,573	-19,72	-3,499
347,727	-19,68	-3,499
349,881	-19,68	-3,5
352,029	-19,68	-3,444
354,171	-19,6	-3,274
356,319	-19,54	-3,171
358,46	-19,34	-3,071
360,608	-16,82	-2,937
362,756	-14,64	-2,697
364,91	-12,76	-2,491
367,064	-11,38	-2,328
369,212	-11,32	-2,225
371,366	-9,46	-2,099
373,519	-9,12	-1,945
375,673	-7,28	-1,772
377,821	-6,76	-1,633
379,969	-5,96	-1,489
382,123	-5,04	-1,473
384,265	-4,7	-1,454
386,413	-5,14	-1,448
388,561	-3,96	-1,257
390,709	-3,1	-1,139
392,862	-1,9	-1,007
395,016	-1,58	-0,854
397,17	-0,32	-0,695
399,324	0,56	-0,533
401,478	1,14	-0,383
403,632	2,34	-0,195
405,78	2,88	-0,159
407,928	3,36	-0,118
410,087	4,06	-0,06
412,235	4,2	-0,051
414,383	4,36	-0,044
416,537	4,52	-0,031
418,691	4,68	-0,02
420,845	4,78	-0,011
422,993	4,8	-0,007
425,147	4,8	-0,004
427,3	4,8	-0,003
429,454	4,8	-0,002
431,608	4,8	-0,001
433,762	4,76	0
435,916	4,76	0
438,07	4,76	-0,109
440,212	4,74	-0,249
442,354	4,74	-0,285
444,513	4	-0,421
446,667	3,22	-0,569
448,821	1,28	-0,803
450,969	1,08	-0,936
453,129	-0,5	-1,136
455,283	-1,42	-1,282
457,431	-2,28	-1,432
459,591	-3,14	-1,631
461,738	-4,6	-1,781
463,892	-4,58	-1,87
466,034	-5,48	-2,011
468,188	-6,66	-2,191
470,336	-8,28	-2,34
472,49	-8,58	-2,488
474,638	-9,48	-2,59
476,788	-10,38	-2,718
478,934	-11,02	-2,872
481,081	-12,04	-3,012
483,241	-13,2	-3,088
485,395	-13,5	-3,162
487,543	-14,78	-3,282
489,703	-15,5	-3,36
491,851	-17	-3,397
494,005	-17,46	-3,418
496,158	-17,92	-3,442
498,318	-18,48	-3,457
500,484	-18,66	-3,474
502,65	-18,82	-3,479
504,804	-18,88	-3,481
506,964	-18,94	-3,482
509,124	-18,98	-3,487
511,272	-19	-3,488
513,425	-19,02	-3,489
515,573	-19,06	-3,489
517,721	-19,06	-3,491
519,875	-19,1	-3,494
522,023	-19,12	-3,495
524,177	-19,08	-3,497
526,331	-19,1	-3,498
528,485	-19,08	-3,498
530,645	-19,08	-3,498
532,798	-19,08	-3,498
534,952	-19,06	-3,499
537,094	-19,04	-3,499
539,254	-19,02	-3,499
541,402	-19	-3,499
543,556	-19	-3,499
545,71	-19,02	-3,499
547,858	-19,02	-3,499
550,005	-19,02	-3,499
552,153	-19,02	-3,499
554,307	-19,02	-3,499
556,467	-19,02	-3,499
558,621	-19,02	-3,498
560,781	-19	-3,499
562,929	-19	-3,499
565,089	-19	-3,499
567,242	-18,98	-3,498
569,39	-18,94	-3,498
571,538	-18,92	-3,499
573,686	-18,9	-3,499
575,834	-18,88	-3,499
577,994	-18,88	-3,499
580,136	-18,88	-3,499
582,29	-18,86	-3,499
584,437	-18,86	-3,499
586,597	-18,84	-3,5
588,757	-18,82	-3,498
590,913	-18,78	-3,358
593,059	-18,78	-3,283
595,213	-18,4	-3,154
597,367	-18,68	-3,186
599,509	-18,32	-3,174
601,662	-17,98	-3,089
603,81	-17,8	-3,1
605,952	-17,92	-3,043
608,1	-15,74	-2,855
610,254	-12,86	-2,622
612,402	-12,34	-2,489
614,556	-10	-2,278
616,716	-8,66	-2,068
618,875	-6,74	-1,842
621,023	-6,72	-1,767
623,171	-4,84	-1,48
625,337	-3,68	-1,339
627,491	-3,04	-1,229
629,645	-2,2	-1,066
631,793	-2	-1,007
633,941	-0,6	-0,849
636,112	0	-0,673
638,266	1,74	-0,418
640,42	2,5	-0,195
642,574	3,86	-0,108
644,716	4,26	-0,069
646,87	4,96	-0,034
649,018	5,1	-0,021
651,172	5,2	-0,011
653,32	5,24	-0,006
655,503	5,22	-0,002
657,651	5,2	-0,001
659,811	5,18	0
661,965	5,16	-0,079
664,119	5,18	-0,294
666,273	4,14	-0,475
668,427	2,44	-0,735
670,581	1,14	-0,951
672,734	-0,12	-1,147
674,882	-0,46	-1,296
677,036	-2,38	-1,551
679,202	-4	-1,886
681,344	-5,9	-2,08
683,516	-6,88	-2,323
685,664	-8,26	-2,428
687,818	-9,1	-2,652
689,965	-10,18	-2,802
692,119	-11,5	-2,977
694,273	-13,08	-3,188
696,421	-14,08	-3,286
698,581	-15,34	-3,396
700,747	-17,68	-3,443
702,907	-18,16	-3,469
705,061	-18,32	-3,485
707,208	-18,54	-3,49
709,368	-18,58	-3,494
711,522	-18,62	-3,497
713,694	-18,6	-3,498
715,842	-18,56	-3,499
717,99	-18,56	-3,5
720,15	-18,52	-3,451
722,304	-18,5	-3,194
724,469	-15,96	-2,942
726,617	-14,26	-2,69
728,771	-12,08	-2,516
730,919	-11,94	-2,41
733,073	-9,62	-2,199
735,221	-7,78	-2,054
737,369	-7,94	-2,01
739,523	-6,48	-1,809
741,676	-5,26	-1,603
743,824	-4,58	-1,513
745,984	-3,9	-1,446
748,15	-2,92	-1,222
750,298	-1,62	-1,094
752,452	-1,18	-0,95
754,618	0,18	-0,769
756,778	1,08	-0,567
758,937	2,78	-0,288
761,091	2,78	-0,21
763,233	3,3	-0,171
765,387	3,94	-0,114
767,541	4,6	-0,066
769,695	4,96	-0,038
771,843	5,16	-0,027
774,003	5,32	-0,016
776,144	5,28	-0,018
778,292	5,38	-0,01
780,446	5,4	-0,006
782,594	5,4	-0,005
784,748	5,4	-0,002
786,896	5,38	-0,002
789,05	5,4	-0,002
791,21	5,38	-0,001
793,369	5,36	0
795,517	5,34	-0,048
797,665	5,32	-0,139
799,813	5,34	-0,214
801,955	4,52	-0,376
804,109	4,44	-0,539
806,257	2,62	-0,699
808,417	1,68	-0,867
810,571	1,42	-0,94
812,718	0,96	-0,988
814,866	0,1	-1,132
817,02	-0,4	-1,232
819,174	-1,3	-1,372
821,334	-1,86	-1,452
823,488	-2,94	-1,685
825,648	-3,3	-1,814
827,796	-5	-1,996
829,943	-5,72	-2,124
832,091	-6,02	-2,247
834,245	-7,14	-2,421
836,393	-9,12	-2,608
838,547	-10,32	-2,903
840,707	-12,16	-3,077
842,855	-13,72	-3,234
845,009	-13,88	-3,336
847,156	-16,2	-3,402
849,304	-16,32	-3,43
851,458	-17,5	-3,455
853,606	-17,9	-3,473
855,76	-18,14	-3,485
857,908	-18,22	-3,49
860,062	-18,28	-3,494
862,21	-18,3	-3,496
864,363	-18,3	-3,498
866,523	-18,26	-3,499
868,677	-18,26	-3,499
870,825	-18,26	-3,499
872,985	-18,24	-3,5
875,139	-18,2	-3,294
877,293	-17,44	-3,145
879,447	-16,84	-2,992
881,594	-14,2	-2,832
883,742	-13,94	-2,724
885,89	-13,4	-2,66
888,05	-11,04	-2,425
890,198	-10,48	-2,289
892,346	-9,78	-2,22
894,5	-8,3	-2,098
896,642	-8,64	-2,096
898,795	-6,78	-1,916
900,949	-6,2	-1,811
903,097	-5,14	-1,65
905,257	-4,7	-1,548
907,411	-3,9	-1,49
909,559	-3,74	-1,389
911,713	-2,96	-1,332
913,867	-3,58	-1,328
916,014	-2,02	-1,161
918,156	-2,18	-1,09
920,31	-1,36	-1,043
922,47	-0,82	-0,983
924,624	-0,4	-0,798
926,778	0,62	-0,67
928,932	1,48	-0,502
931,08	2,14	-0,374
933,228	2,9	-0,265
935,387	3,8	-0,131
937,535	4,36	-0,096
939,689	5,02	-0,062
941,849	5,22	-0,04
943,997	5,36	-0,028
946,145	5,42	-0,018
948,305	5,56	-0,01
950,447	5,58	-0,006
952,6	5,6	-0,004
954,748	5,58	-0,003
956,902	5,58	-0,002
959,05	5,58	-0,001
961,204	5,58	-0,001
963,364	5,56	-0,001
965,518	5,54	0
967,678	5,54	-0,131
969,831	5,22	-0,254
971,985	4,78	-0,372
974,127	4,46	-0,455
976,281	4,06	-0,613
978,429	1,92	-0,838
980,583	1,2	-1,054
982,737	-0,24	-1,272
984,897	-1,48	-1,507
987,05	-2,24	-1,682
989,198	-3,58	-1,837
991,346	-4,78	-2,012
993,494	-5,54	-2,152
995,636	-6,16	-2,292
997,79	-7,66	-2,451
999,938	-8,3	-2,617
1002,092	-9,4	-2,812
1004,251	-11,92	-3,075
1006,399	-12,8	-3,202
1008,547	-13,64	-3,271
1010,707	-15,42	-3,366
1012,861	-16,8	-3,431
1015,003	-17,24	-3,448
1017,163	-17,64	-3,473
1019,323	-17,92	-3,487
1021,47	-18	-3,494
1023,63	-18,02	-3,496
1025,79	-17,98	-3,499
1027,938	-17,98	-3,499
1030,086	-17,92	-3,5
1032,24	-17,9	-3,349
1034,394	-17,82	-3,177
1036,548	-16,68	-3,002
1038,702	-14,18	-2,79
1040,849	-12,52	-2,635
1043,003	-11,38	-2,509
1045,163	-9,82	-2,358
1047,317	-9,06	-2,151
1049,465	-7,02	-1,979
1051,613	-6,62	-1,798
1053,761	-4,72	-1,628
1055,914	-4,14	-1,405
1058,062	-2,76	-1,294
1060,216	-1,94	-1,124
1062,37	-0,86	-0,924
1064,518	0,32	-0,7
1066,666	1,44	-0,513
1068,808	2,52	-0,344
1070,956	2,88	-0,219
1073,104	4,12	-0,142
1075,257	4	-0,082
1077,411	5,22	-0,046
1079,559	5,56	-0,022
1081,707	5,66	-0,012
1083,849	5,68	-0,008
1085,997	5,7	-0,004
1088,157	5,68	-0,001
1090,305	5,68	-0,001
1092,458	5,64	-0,059
1094,612	5,62	-0,26
1096,766	4,94	-0,452
1098,908	4,1	-0,572
1101,056	2,4	-0,76
1103,204	2	-0,925
1105,364	-0,16	-1,242
1107,524	-1,22	-1,462
1109,677	-2,7	-1,667
1111,837	-3,62	-1,867
1113,991	-4,54	-2,057
1116,139	-5,78	-2,249
1118,287	-7,04	-2,452
1120,447	-8,68	-2,667
1122,601	-10,2	-2,883
1124,743	-11,88	-3,088
1126,89	-12,74	-3,264
1129,05	-13,72	-3,366
1131,21	-15,84	-3,436
1133,358	-16,46	-3,458
1135,506	-17,08	-3,48
1137,66	-17,26	-3,488
1139,808	-17,3	-3,493
1141,95	-17,34	-3,496
1144,103	-17,32	-3,498
1146,257	-17,3	-3,499
1148,405	-17,26	-3,499
1150,559	-17,24	-3,498
1152,713	-17,2	-3,316
1154,867	-16,9	-3,126
1157,015	-14,72	-2,981
1159,175	-12,82	-2,75
1161,322	-11,84	-2,644
1163,476	-10,66	-2,484
1165,636	-8,76	-2,29
1167,784	-8,38	-2,168
1169,926	-8,18	-2,069
1172,086	-6,6	-1,897
1174,228	-6,06	-1,841
1176,382	-4,7	-1,699
1178,535	-3,54	-1,499
1180,677	-2,6	-1,358
1182,837	-1,78	-1,18
1184,979	-1,24	-1,108
1187,133	-0,32	-0,888
1189,287	0,48	-0,728
1191,441	1,32	-0,542
1193,583	1,94	-0,444
1195,737	2,78	-0,328
1197,884	2,8	-0,246
1200,038	3,9	-0,16
1202,198	5,1	-0,066
1204,346	5,2	-0,047
1206,5	5,6	-0,024
1208,666	5,68	-0,014
1210,814	5,76	-0,009
1212,968	5,76	-0,005
1215,115	5,78	-0,004
1217,275	5,76	-0,002
1219,423	5,76	-0,001
1221,577	5,76	-0,001
1223,719	5,74	0
1225,879	5,72	-0,119
1228,039	5,5	-0,285
1230,193	4,88	-0,486
1232,358	3,66	-0,657
1234,506	3,06	-0,738
1236,66	2,42	-0,871
1238,802	1,64	-0,932
1240,956	0,26	-1,196
1243,104	-0,54	-1,346
1245,252	-1,06	-1,442
1247,394	-1,34	-1,455
1249,541	-1,4	-1,498
1251,689	-2,1	-1,617
1253,843	-2,68	-1,763
1255,997	-3,64	-1,954
1258,145	-4,3	-2,082
1260,299	-5,36	-2,278
1262,447	-7,2	-2,481
1264,601	-7,32	-2,607
1266,742	-8,08	-2,701
1268,89	-9,64	-2,904
1271,044	-10,48	-3,152
1273,186	-12,56	-3,258
1275,34	-13,74	-3,362
1277,488	-14,54	-3,394
1279,636	-15,02	-3,42
1281,784	-15,44	-3,453
1283,943	-15,9	-3,466
1286,097	-16,22	-3,479
1288,251	-16,28	-3,483
1290,393	-16,22	-3,485
1292,553	-16,36	-3,488
1294,707	-16,38	-3,492
1296,867	-16,4	-3,495
1299,015	-16,38	-3,496
1301,162	-16,36	-3,497
1303,322	-16,32	-3,498
1305,482	-16,3	-3,498
1307,63	-16,2	-3,499
1309,784	-16,14	-3,499
1311,926	-16,1	-3,499
1314,074	-16,06	-3,432
1316,222	-16,06	-3,234
1318,369	-15,4	-3,175
1320,529	-14,68	-3,034
1322,671	-13,68	-2,977
1324,831	-13,14	-2,874
1326,985	-10,9	-2,695
1329,133	-10,88	-2,608
1331,287	-9,22	-2,476
1333,429	-8,38	-2,389
1335,583	-7,78	-2,304
1337,73	-6,98	-2,186
1339,872	-7,36	-2,178
1342,02	-6,88	-2,114
1344,18	-6,12	-1,964
1346,34	-4,7	-1,779
1348,488	-3,96	-1,673
1350,636	-3,32	-1,56
1352,784	-2,64	-1,459
1354,937	-2	-1,31
1357,091	-0,94	-1,153
1359,239	-1,28	-1,141
1361,387	-0,02	-0,975
1363,535	0,16	-0,847
1365,689	1,26	-0,674
1367,837	1,66	-0,513
1369,985	2	-0,437
1372,126	2,46	-0,392
1374,268	2,74	-0,352
1376,416	2,98	-0,299
1378,57	3,08	-0,266
1380,718	3,92	-0,153
1382,878	4,58	-0,084
1385,032	5,08	-0,066
1387,186	5,14	-0,061
1389,327	5,4	-0,038
1391,487	5,48	-0,034
1393,635	5,52	-0,032
1395,789	5,68	-0,024
1397,943	5,76	-0,014
1400,085	5,78	-0,013
1402,245	5,8	-0,008
1404,393	5,82	-0,006
1406,534	5,82	-0,005
1408,7	5,82	-0,002
1410,848	5,8	-0,002
1413,008	5,8	-0,001
1415,174	5,78	0
1417,322	5,76	-0,003
1419,476	5,74	-0,097
1421,63	5,74	-0,28
1423,783	5,38	-0,364
1425,925	4,6	-0,463
1428,073	5,08	-0,458
1430,227	4,04	-0,596
1432,387	3,3	-0,716
1434,535	2,4	-0,801
1436,701	1,28	-0,999
1438,855	0,6	-1,093
1441,002	0,44	-1,141
1443,15	0,1	-1,27
1445,298	-0,86	-1,394
1447,446	-0,86	-1,472
1449,6	-1,6	-1,562
1451,754	-2,34	-1,726
1453,902	-2,86	-1,822
1456,062	-3,08	-1,932
1458,21	-3,56	-2,027
1460,363	-4,08	-2,07
1462,505	-4,06	-2,13
1464,659	-4,96	-2,236
1466,813	-5,42	-2,378
1468,967	-5,52	-2,403
1471,115	-5,08	-2,425
1473,269	-6,16	-2,541
1475,423	-6,84	-2,608
1477,57	-6,42	-2,651
1479,724	-7,5	-2,757
1481,878	-9,08	-2,943
1484,032	-10,6	-3,116
1486,18	-10,7	-3,217
1488,334	-12,26	-3,317
1490,488	-11,92	-3,352
1492,636	-13,5	-3,406
1494,795	-13,94	-3,44
1496,943	-14,26	-3,468
1499,091	-14,66	-3,475
1501,251	-14,58	-3,484
1503,405	-14,78	-3,488
1505,553	-14,82	-3,491
1507,707	-14,82	-3,494
1509,849	-14,8	-3,494
1512,002	-14,8	-3,495
1514,15	-14,8	-3,497
1516,292	-14,78	-3,496
1518,44	-14,78	-3,497
1520,594	-14,74	-3,498
1522,736	-14,72	-3,498
1524,884	-14,7	-3,499
1527,038	-14,68	-3,499
1529,191	-14,64	-3,499
1531,333	-14,62	-3,5
1533,481	-14,62	-3,438
1535,641	-14,56	-3,316
1537,783	-14,54	-3,317
1539,943	-14,54	-3,206
1542,103	-13,72	-2,989
1544,251	-12,62	-2,983
1546,399	-11,92	-2,878
1548,552	-9,8	-2,728
1550,706	-10,04	-2,644
1552,86	-10,08	-2,516
1555,02	-8,12	-2,414
1557,168	-7,88	-2,482
1559,322	-7,64	-2,403
1561,476	-6,98	-2,288
1563,623	-6,1	-2,149
1565,765	-5,24	-2,03
1567,925	-4,32	-1,884
1570,073	-3,4	-1,74
1572,221	-3,34	-1,717
1574,363	-3,16	-1,682
1576,517	-2,8	-1,599
1578,671	-1,86	-1,471
1580,812	-1,56	-1,353
1582,972	-1,22	-1,218
1585,12	-0,16	-1,067
1587,28	0,18	-0,932
1589,422	0,5	-0,876
1591,576	0,52	-0,861
1593,736	1,3	-0,702
1595,89	1,9	-0,621
1598,038	1,8	-0,562
1600,191	2,66	-0,425
1602,345	3,36	-0,309
1604,499	3,92	-0,15
1606,647	4,46	-0,132
1608,801	4,46	-0,094
1610,949	5,18	-0,067
1613,103	5,3	-0,037
1615,245	5,64	-0,027
1617,392	5,74	-0,017
1619,54	5,72	-0,014
1621,682	5,78	-0,011
1623,842	5,8	-0,006
1625,996	5,82	-0,005
1628,144	5,82	-0,003
1630,292	5,82	-0,002
1632,452	5,8	-0,002
1634,605	5,78	-0,001
1636,771	5,76	-0,002
1638,913	5,76	-0,126
1641,067	5,52	-0,27
1643,215	5,1	-0,454
1645,363	4,02	-0,556
1647,517	3,96	-0,682
1649,671	2,38	-0,872
1651,83	1,42	-0,992
1653,972	1,14	-1,116
1656,126	0,2	-1,227
1658,262	-0,22	-1,28
1660,416	-0,22	-1,374
1662,564	-1,02	-1,47
1664,724	-1,62	-1,563
1666,866	-1,66	-1,681
1669,013	-1,86	-1,714
1671,173	-2,82	-1,893
1673,327	-2,74	-1,892
1675,469	-2,7	-1,868
1677,623	-3,86	-2,08
1679,783	-4,28	-2,209
1681,937	-5,08	-2,345
1684,097	-5,66	-2,577
1686,25	-6,84	-2,737
1688,404	-7,46	-2,884
1690,546	-8,1	-2,94
1692,706	-7,98	-2,989
1694,86	-9,74	-3,117
1697,002	-9,78	-3,22
1699,156	-9,86	-3,299
1701,31	-11,28	-3,337
1703,457	-10,7	-3,34
1705,599	-11,62	-3,346
1707,759	-11,8	-3,377
1709,913	-12,48	-3,422
1712,067	-12,42	-3,43
1714,215	-12,86	-3,446
1716,363	-13,24	-3,448
1718,517	-13,02	-3,46
1720,659	-13,54	-3,465
1722,812	-13,06	-3,46
1724,96	-13,44	-3,465
1727,102	-13,52	-3,47
1729,268	-13,68	-3,478
1731,416	-13,6	-3,481
1733,57	-13,72	-3,485
1735,718	-13,8	-3,489
1737,878	-13,8	-3,493
1740,037	-13,8	-3,496
1742,191	-13,78	-3,496
1744,345	-13,78	-3,497
1746,499	-13,76	-3,498
1748,647	-13,74	-3,498
1750,801	-13,72	-3,498
1752,955	-13,68	-3,499
1755,109	-13,68	-3,499
1757,268	-13,66	-3,499
1759,41	-13,66	-3,499
1761,564	-13,62	-3,499
1763,718	-13,6	-3,5
1765,866	-13,62	-3,5
1768,02	-13,54	-3,323
1770,168	-13,56	-3,232
1772,316	-11,9	-3,074
1774,463	-12,14	-3,015
1776,617	-10,12	-2,872
1778,771	-10,12	-2,756
1780,919	-8,84	-2,685
1783,073	-7,56	-2,57
1785,227	-7,56	-2,449
1787,375	-6,1	-2,32
1789,517	-5,54	-2,238
1791,676	-4,98	-2,098
1793,83	-4,4	-1,965
1795,984	-3,7	-1,818
1798,138	-2,72	-1,696
1800,298	-1,88	-1,545
1802,446	-1,14	-1,354
1804,588	-1,44	-1,362
1806,742	-0,94	-1,309
1808,883	-1,08	-1,27
1811,031	-0,44	-1,215
1813,179	-0,16	-1,125
1815,339	0,3	-0,958
1817,487	0,46	-0,914
1819,641	0,9	-0,846
1821,789	0,76	-0,798
1823,949	1,36	-0,668
1826,096	1,68	-0,668
1828,256	2,2	-0,494
1830,416	2,92	-0,345
1832,564	2,84	-0,281
1834,718	3,4	-0,23
1836,872	4,32	-0,146
1839,02	5,02	-0,058
1841,168	5,18	-0,047
1843,328	5,52	-0,027
1845,475	5,66	-0,018
1847,623	5,72	-0,01
1849,765	5,76	-0,006
1851,913	5,76	-0,004
1854,061	5,76	-0,003
1856,215	5,74	-0,002
1858,363	5,74	-0,001
1860,517	5,74	-0,001
1862,658	5,74	-0,001
1864,812	5,74	-0,001
1866,966	5,72	-0,001
1869,114	5,72	-0,022
1871,274	5,68	-0,196
1873,428	5,02	-0,32
1875,582	4,98	-0,452
1877,736	4,3	-0,52
1879,889	2,76	-0,737
1882,037	2,66	-0,813
1884,185	2,96	-0,862
1886,333	1,86	-0,899
1888,481	1,3	-1,118
1890,629	0,3	-1,183
1892,783	0,76	-1,213
1894,931	0	-1,273
1897,072	-0,4	-1,35
1899,22	-0,26	-1,409
1901,368	-1,06	-1,586
1903,51	-1,66	-1,62
1905,664	-1,62	-1,762
1907,818	-2,64	-1,942
1909,966	-3,26	-2,086
1912,12	-3,88	-2,261
1914,267	-5,08	-2,436
1916,415	-5,74	-2,592
1918,563	-6,08	-2,752
1920,717	-7,3	-2,911
1922,859	-7,6	-3,024
1925,013	-8,68	-3,141
1927,167	-8,42	-3,241
1929,321	-10,3	-3,334
1931,468	-11,4	-3,398
1933,622	-11,78	-3,446
1935,77	-12,7	-3,459
1937,912	-12,84	-3,474
1940,066	-12,98	-3,477
1942,214	-13	-3,485
1944,362	-13,06	-3,489
1946,51	-13,14	-3,492
1948,669	-13,14	-3,496
1950,823	-13,14	-3,497
1952,971	-13,12	-3,497
1955,131	-13,1	-3,498
1957,279	-13,08	-3,499
1959,421	-13,06	-3,499
1961,569	-13,04	-3,5
1963,729	-13	-3,466
1965,882	-13,02	-3,284
1968,03	-12,64	-3,172
1970,19	-11,72	-3,063
1972,35	-10,34	-2,95
1974,492	-10,68	-2,925
1976,64	-11,54	-2,893
1978,794	-8,74	-2,729
1980,936	-8,98	-2,704
1983,09	-7,66	-2,558
1985,261	-5,84	-2,372
1987,409	-6,6	-2,286
1989,563	-5,06	-2,192
1991,717	-4,9	-2,124
1993,877	-4,04	-1,984
1996,019	-4,16	-1,948
1998,173	-3,58	-1,897
2000,333	-2,9	-1,714
2002,492	-2,08	-1,563
2004,646	-1,52	-1,494
2006,794	-1,82	-1,467
2008,954	-0,96	-1,29
2011,096	-0,16	-1,162
2013,25	-0,28	-1,108
2015,41	0,28	-0,976
2017,558	0,86	-0,924
2019,705	1	-0,775
2021,865	1,8	-0,591
2024,007	2,5	-0,435
2026,161	2,56	-0,394
2028,321	3,64	-0,204
2030,463	3,9	-0,181
2032,611	4	-0,131
2034,759	4,58	-0,106
2036,906	4,52	-0,082
2039,054	4,68	-0,07
2041,214	5,16	-0,045
2043,362	5,32	-0,038
2045,51	5,38	-0,031
2047,664	5,56	-0,021
2049,806	5,48	-0,023
2051,966	5,56	-0,017
2054,113	5,54	-0,015
2056,267	5,62	-0,011
2058,415	5,66	-0,006
2060,563	5,68	-0,005
2062,705	5,68	-0,004
2064,865	5,68	-0,004
2067,013	5,68	-0,003
2069,173	5,68	-0,002
2071,32	5,66	-0,002
2073,462	5,66	-0,002
2075,616	5,66	-0,002
2077,758	5,66	-0,001
2079,912	5,66	-0,001
2082,066	5,66	-0,001
2084,214	5,64	-0,001
2086,374	5,64	-0,001
2088,533	5,6	0
2090,675	5,6	0
2092,829	5,6	-0,026
2094,977	5,6	-0,012
2097,119	5,6	-0,009
2099,279	5,58	-0,203
2101,439	4,86	-0,364
2103,587	4,9	-0,435
2105,741	4,72	-0,48
2107,9	4,2	-0,541
2110,06	3,44	-0,666
2112,214	3,44	-0,638
2114,368	4,14	-0,68
2116,522	2,86	-0,7
2118,664	3,6	-0,692
2120,818	2,84	-0,707
2122,972	2,38	-0,775
2125,119	2,96	-0,738
2127,279	2,68	-0,793
2129,433	1,72	-0,888
2131,581	2,66	-0,87
2133,729	2,96	-0,804
2135,889	2,66	-0,796
2138,037	3,26	-0,751
2140,197	2,48	-0,778
2142,356	2,26	-0,807
2144,516	2,08	-0,856
2146,652	2,74	-0,75
2148,812	2,3	-0,783
2150,96	2,8	-0,78
2153,108	3,12	-0,769
2155,262	1,7	-0,965
2157,41	1,02	-1,019
2159,563	1,36	-1,06
2161,711	1,22	-1,002
2163,865	1,68	-1,007
2166,007	2,22	-0,913
2168,161	2,48	-0,78
2170,315	3,4	-0,651
2172,469	3,48	-0,608
2174,617	4,52	-0,48
2176,782	5,06	-0,421
2178,924	5,52	-0,268
2181,078	5,52	-0,257
2183,238	5,52	-0,222
2185,38	5,52	-0,158
2187,534	5,5	-0,047
2189,682	5,54	-0,003
2191,824	5,54	0
2193,977	5,52	0
2196,125	5,54	-0,001
2198,267	5,54	-0,001
2200,421	5,56	-0,001
2202,569	5,56	-0,002
2204,711	5,56	-0,002
2206,865	5,54	-0,004
2209,019	5,56	-0,004
2211,166	5,56	-0,005
2213,314	5,54	-0,008
2215,462	5,5	-0,011
2217,61	5,46	-0,014
2219,77	5,44	-0,017
2221,918	5,24	-0,034
2224,06	4,88	-0,05
2226,208	4,62	-0,085
2228,361	3,78	-0,141
2230,503	2,76	-0,236
2232,651	2,72	-0,317
2234,811	3,36	-0,214
2236,959	2,62	-0,342
2239,113	2,12	-0,454
2241,261	1,48	-0,624
2243,409	1,24	-0,708
2245,563	0,96	-0,746
2247,716	0,78	-0,853
2249,858	0,06	-1,01
2252,018	-0,26	-1,126
2254,166	-0,24	-1,208
2256,314	-0,6	-1,288
2258,468	-0,94	-1,364
2260,616	-1,72	-1,558
2262,758	-2,4	-1,743
2264,923	-2,14	-1,699
2267,071	-2,24	-1,715
2269,213	-2,54	-1,723
2271,367	-2,88	-1,863
2273,521	-3,32	-1,917
2275,663	-3,92	-2,084
2277,811	-4,28	-2,132
2279,971	-5,1	-2,219
2282,112	-5,54	-2,339
2284,266	-5,32	-2,362
2286,42	-5,96	-2,426
2288,568	-7,32	-2,513
2290,722	-6,82	-2,624
2292,882	-8,06	-2,637
2295,024	-7,28	-2,661
2297,19	-6,82	-2,581
2299,343	-6,3	-2,566
2301,491	-7,44	-2,645
2303,645	-7,34	-2,689
2305,805	-7,18	-2,688
2307,953	-7,52	-2,649
2310,107	-7,2	-2,656
2312,261	-7,36	-2,645
2314,403	-7,04	-2,628
2316,556	-6,3	-2,469
2318,716	-5,48	-2,361
2320,858	-6,26	-2,427
2323,012	-5,44	-2,343
2325,166	-4,52	-2,233
2327,321	-4,02	-2,17
2329,468	-3,96	-2,068
2331,634	-3,26	-1,919
2333,775	-2,62	-1,788
2335,923	-2,72	-1,804
2338,077	-2,78	-1,784
2340,225	-1,98	-1,676
2342,373	-2,16	-1,623
2344,533	-1,96	-1,599
2346,687	-1,38	-1,51
2348,841	-0,96	-1,368
2350,995	-1,14	-1,374
2353,142	-0,34	-1,235
2355,29	-0,64	-1,234
2357,444	-0,32	-1,194
2359,586	-0,52	-1,269
2361,74	-0,1	-1,122
2363,888	-0,08	-1,11
2366,03	-0,08	-1,129
2368,184	0,58	-0,955
2370,343	0,44	-0,948
2372,485	0,54	-0,94
2374,639	0,6	-0,962
2376,793	0,06	-1,014
2378,947	0,06	-1,065
2381,101	0,26	-1,06
2383,255	-0,32	-1,12
2385,403	-0,22	-1,173
2387,568	0,46	-0,949
2389,71	0,44	-0,888
2391,864	0,66	-0,868
2394,012	1,02	-0,74
2396,16	1,34	-0,713
2398,302	1,32	-0,651
2400,456	1,84	-0,54
2402,604	1,76	-0,55
2404,763	2,02	-0,426
2406,911	2,4	-0,304
2409,065	3,54	-0,148
2411,219	4,18	-0,104
2413,373	4,5	-0,053
2415,515	4,7	-0,061
2417,669	4,8	-0,043
2419,823	4,98	-0,036
2421,964	5	-0,028
2424,124	5,22	-0,014
2426,284	5,28	-0,008
2428,432	5,3	-0,006
2430,586	5,28	-0,005
2432,734	5,3	-0,004
2434,882	5,3	-0,004
2437,036	5,3	-0,003
2439,189	5,3	-0,002
2441,337	5,28	-0,002
2443,491	5,28	-0,001
2445,645	5,26	-0,001
2447,787	5,26	-0,001
2449,941	5,24	-0,084
2452,089	5,24	-0,203
2454,249	4,62	-0,465
2456,402	3,14	-0,629
2458,55	2,44	-0,767
2460,71	1,84	-0,866
2462,864	1,52	-0,977
2465,006	1,86	-0,91
2467,154	1,8	-0,922
2469,314	1,48	-0,961
2471,462	1,52	-0,946
2473,609	1,12	-0,985
2475,763	1,28	-1,042
2477,911	1,14	-1,032
2480,065	0,56	-1,221
2482,207	0,26	-1,262
2484,361	0,5	-1,25
2486,515	-0,06	-1,318
2488,657	-0,4	-1,406
2490,81	-0,64	-1,554
2492,964	-1,14	-1,728
2495,118	-1,76	-1,897
2497,278	-2,76	-2,175
2499,432	-3,1	-2,286
2501,58	-3,52	-2,414
2503,728	-4,36	-2,532
2505,876	-5,04	-2,778
2508,018	-5,4	-2,838
2510,177	-6,26	-3,101
2512,325	-7,26	-3,213
2514,473	-8,24	-3,324
2516,621	-8,8	-3,374
2518,769	-10,08	-3,428
2520,917	-10,06	-3,446
2523,065	-10,52	-3,472
2525,219	-10,58	-3,476
2527,378	-10,82	-3,486
2529,532	-10,9	-3,489
2531,68	-10,92	-3,491
2533,834	-10,94	-3,493
2536	-10,98	-3,496
2538,142	-10,96	-3,497
2540,296	-10,94	-3,498
2542,438	-10,92	-3,498
2544,591	-10,94	-3,498
2546,739	-10,92	-3,499
2548,881	-10,92	-3,499
2551,035	-10,9	-3,499
2553,177	-10,88	-3,499
2555,331	-10,86	-3,499
2557,491	-10,84	-3,5
2559,645	-10,84	-3,47
2561,786	-10,82	-3,486
2563,934	-10,82	-3,401
2566,088	-10,78	-3,29
2568,242	-10,78	-3,185
2570,39	-10,22	-3,178
2572,556	-9,12	-3,006
2574,704	-8,56	-2,958
2576,864	-7,84	-2,885
2579,012	-7,84	-2,875
2581,153	-7,88	-2,829
2583,307	-6,68	-2,698
2585,449	-5,84	-2,508
2587,609	-5,04	-2,432
2589,757	-4,74	-2,341
2591,905	-4,1	-2,208
2594,053	-3,52	-2,068
2596,206	-2,86	-1,963
2598,354	-2,86	-1,867
2600,508	-2,24	-1,767
2602,662	-1,46	-1,592
2604,804	-1,4	-1,589
2606,958	-1,1	-1,373
2609,106	-0,82	-1,371
2611,248	-0,7	-1,343
2613,396	-0,42	-1,166
2615,543	0,18	-1,034
2617,685	0,16	-1,058
2619,845	0,58	-0,939
2621,993	0,8	-0,778
2624,141	1,32	-0,681
2626,295	1,54	-0,56
2628,443	1,96	-0,421
2630,597	2,02	-0,354
2632,762	3,2	-0,185
2634,904	3,2	-0,192
2637,052	3,28	-0,135
2639,206	4,2	-0,077
2641,354	4,4	-0,06
2643,508	4,82	-0,034
2645,65	4,86	-0,025
2647,798	4,94	-0,019
2649,945	5,06	-0,013
2652,099	5,06	-0,012
2654,247	5,1	-0,008
2656,401	5,12	-0,004
2658,549	5,12	-0,003
2660,703	5,12	-0,002
2662,857	5,14	-0,002
2665,005	5,14	-0,002
2667,158	5,12	-0,002
2669,306	5,14	-0,002
2671,46	5,12	-0,001
2673,608	5,12	-0,001
2675,75	5,1	-0,001
2677,91	5,12	-0,001
2680,07	5,1	0
2682,212	5,1	0
2684,365	5,1	-0,047
2686,513	5,1	-0,019
2688,655	5,08	-0,108
2690,815	5,08	-0,259
2692,981	4,4	-0,416
2695,135	4,42	-0,463
2697,283	3,68	-0,501
2699,425	4,02	-0,472
2701,572	4,4	-0,473
2703,738	3,28	-0,575
2705,88	3,1	-0,63
2708,028	2,74	-0,679
2710,176	2,42	-0,669
2712,324	2,54	-0,776
2714,472	2,78	-0,756
2716,638	2,02	-0,809
2718,779	2,14	-0,77
2720,933	1,68	-0,896
2723,087	1,2	-1,012
2725,229	1,14	-1,067
2727,383	0,42	-1,231
2729,531	0,22	-1,388
2731,685	-0,12	-1,395
2733,839	-0,54	-1,49
2735,986	-0,78	-1,613
2738,14	-1,04	-1,74
2740,294	-1,4	-1,823
2742,442	-1,42	-1,845
2744,59	-1,44	-1,878
2746,732	-1,56	-1,951
2748,892	-1,42	-1,914
2751,046	-1,74	-1,996
2753,194	-2,04	-1,973
2755,347	-2,2	-2,157
2757,507	-2,7	-2,298
2759,649	-2,7	-2,28
2761,803	-3,2	-2,369
2763,963	-3,4	-2,419
2766,111	-3,7	-2,494
2768,259	-3,88	-2,555
2770,419	-4,16	-2,806
2772,572	-5,88	-3,028
2774,726	-6,56	-3,207
2776,874	-7,76	-3,309
2779,034	-7,52	-3,331
2781,188	-8,12	-3,358
2783,336	-7,96	-3,388
2785,484	-8,64	-3,402
2787,65	-9,08	-3,446
2789,791	-9,86	-3,452
2791,939	-10	-3,473
2794,093	-10,28	-3,487
2796,241	-10,28	-3,488
2798,407	-10,34	-3,492
2800,573	-10,36	-3,494
2802,715	-10,36	-3,495
2804,863	-10,36	-3,496
2807,016	-10,34	-3,498
2809,17	-10,34	-3,498
2811,324	-10,34	-3,498
2813,466	-10,34	-3,498
2815,62	-10,32	-3,499
2817,774	-10,32	-3,499
2819,922	-10,3	-3,499
2822,076	-10,3	-3,499
2824,229	-10,28	-3,497
2826,371	-10,26	-3,456
2828,525	-10,26	-3,295
2830,685	-9,98	-3,117
2832,833	-7,82	-2,92
2834,987	-6,36	-2,734
2837,147	-6,28	-2,546
2839,289	-4,36	-2,363
2841,442	-4,34	-2,23
2843,59	-3,6	-2,15
2845,744	-3,32	-2,029
2847,898	-2,6	-1,892
2850,04	-2,4	-1,83
2852,194	-2,08	-1,71
2854,354	-1,3	-1,5
2856,502	-1,12	-1,318
2858,655	-0,1	-1,128
2860,809	0,38	-0,986
2862,969	0,68	-0,814
2865,123	0,9	-0,688
2867,265	1,34	-0,642
2869,425	1,98	-0,454
2871,585	2,88	-0,236
2873,727	3,14	-0,151
2875,881	3,38	-0,115
2878,034	3,96	-0,083
2880,188	4,54	-0,05
2882,342	4,68	-0,03
2884,496	4,82	-0,019
2886,65	4,94	-0,013
2888,804	4,98	-0,01
2890,952	5,02	-0,007
2893,118	5,02	-0,003
2895,259	5,02	-0,002
2897,413	5,02	-0,002
2899,561	5,02	-0,001
2901,703	5,02	-0,001
2903,857	5	0
2906,011	5	-0,047
2908,159	4,98	-0,041
2910,313	5	-0,164
2912,466	4,28	-0,387
2914,608	4,28	-0,38
2916,762	3,18	-0,527
2918,916	3,32	-0,607
2921,058	3,56	-0,615
2923,213	2,62	-0,715
2925,354	2,26	-0,791
2927,508	1,18	-0,993
2929,649	1,3	-0,979
2931,809	0,52	-1,157
2933,963	0,12	-1,316
2936,105	0	-1,397
2938,265	-0,42	-1,49
2940,413	-0,56	-1,566
2942,567	-0,8	-1,696
2944,733	-1,22	-1,826
2946,88	-1,64	-1,89
2949,046	-2,1	-2,06
2951,188	-2,14	-2,084
2953,342	-2,72	-2,21
2955,496	-2,58	-2,311
2957,644	-3,4	-2,46
2959,798	-3,8	-2,618
2961,946	-4,34	-2,683
2964,093	-4,78	-2,821
2966,241	-5,18	-2,939
2968,395	-5,38	-3,023
2970,549	-6,28	-3,162
2972,703	-6,9	-3,304
2974,851	-7,72	-3,343
2977,005	-8,32	-3,4
2979,159	-9,26	-3,443
2981,3	-9,36	-3,446
2983,46	-9,6	-3,46
2985,602	-9,58	-3,47
2987,768	-9,88	-3,482
2989,916	-9,92	-3,489
2992,07	-10	-3,491
2994,224	-10,02	-3,494
2996,372	-10	-3,493
2998,525	-10,02	-3,495
3000,685	-10,02	-3,497
3002,827	-10,04	-3,498
3004,987	-10,02	-3,498
3007,147	-10	-3,499
3009,289	-10	-3,499
3011,455	-9,98	-3,5
3013,597	-9,96	-3,5
3015,751	-9,96	-3,388
3017,898	-9,96	-3,238
3020,046	-9,4	-3,103
3022,194	-9,2	-3,049
3024,354	-7,94	-2,902
3026,502	-6,44	-2,736
3028,656	-5,6	-2,626
3030,798	-5,48	-2,602
3032,958	-4,92	-2,494
3035,111	-4,82	-2,4
3037,265	-4,02	-2,262
3039,419	-3,54	-2,19
3041,561	-3,22	-2,101
3043,721	-2,74	-1,976
3045,869	-2,7	-1,929
3048,017	-2,14	-1,83
3050,171	-2,12	-1,758
3052,318	-1,58	-1,63
3054,472	-1,22	-1,476
3056,632	-1	-1,404
3058,774	-0,7	-1,397
3060,934	-0,3	-1,256
3063,082	-0,12	-1,085
3065,23	0,22	-0,909
3067,384	0,56	-0,82
3069,544	1,2	-0,589
3071,691	1,9	-0,419
3073,845	2,16	-0,282
3075,999	2,78	-0,184
3078,153	3,48	-0,122
3080,295	3,72	-0,099
3082,449	3,94	-0,067
3084,597	4,58	-0,036
3086,744	4,62	-0,03
3088,898	4,82	-0,017
3091,052	4,9	-0,01
3093,194	4,92	-0,007
3095,354	4,96	-0,004
3097,496	4,96	-0,002
3099,656	4,94	-0,002
3101,804	4,94	-0,001
3103,951	4,94	0
3106,099	4,92	-0,052
3108,253	4,54	-0,243
3110,401	4,2	-0,39
3112,555	3,14	-0,543
3114,697	3,02	-0,588
3116,857	1,82	-0,83
3119,011	1,28	-0,947
3121,164	1,36	-1,072
3123,324	0,06	-1,33
3125,466	-0,06	-1,397
3127,626	-0,26	-1,505
3129,774	-0,74	-1,58
3131,928	-1,36	-1,781
3134,076	-1,54	-1,956
3136,236	-1,76	-2,14
3138,377	-2	-2,222
3140,531	-2,8	-2,36
3142,673	-3,46	-2,554
3144,827	-4,14	-2,702
3146,981	-4,3	-2,812
3149,129	-5,14	-2,957
3151,283	-5,32	-3,066
3153,431	-6,2	-3,189
3155,591	-6,94	-3,295
3157,738	-7,6	-3,373
3159,88	-7,94	-3,398
3162,04	-8,42	-3,425
3164,188	-9,24	-3,461
3166,342	-9,46	-3,478
3168,496	-9,58	-3,486
3170,65	-9,7	-3,491
3172,81	-9,72	-3,494
3174,957	-9,72	-3,496
3177,117	-9,72	-3,498
3179,277	-9,7	-3,499
3181,419	-9,7	-3,499
3183,567	-9,66	-3,5
3185,715	-9,68	-3,42
3187,869	-9,36	-3,243
3190,023	-9,64	-3,029
3192,17	-6,92	-2,879
3194,33	-5,66	-2,669
3195,176	4,9	-0,001