File: Cycling_tests/_newS/_1G40/entrada/_2.txt
Time (s)	Load (N)	Displacement (mm)
0	-0,08	-0,027
2,151	0,68	-0,185
4,263	0,88	0
6,381	0,98	0
8,493	1,06	-0,001
10,611	1,14	-0,001
12,723	1,2	-0,002
14,835	1,24	-0,002
16,946	1,3	-0,004
19,058	1,3	-0,008
21,176	1,28	-0,013
23,288	1,16	-0,024
25,4	1,18	-0,026
27,512	0,76	-0,059
29,624	0,64	-0,09
31,736	-0,32	-0,153
33,847	-0,82	-0,216
35,959	-1,86	-0,396
38,077	-2,94	-0,568
40,189	-2,66	-0,609
42,307	-3,48	-0,748
44,419	-4,48	-0,83
46,537	-5,18	-0,916
48,649	-5,14	-1,032
50,766	-6	-1,138
52,878	-7,6	-1,376
54,996	-9	-1,552
57,108	-10,38	-1,742
59,22	-10,84	-1,825
61,332	-11,74	-1,958
63,444	-13,32	-2,147
65,556	-13,58	-2,182
67,673	-15,52	-2,38
69,785	-15	-2,437
71,897	-16,84	-2,557
74,009	-18,52	-2,725
76,121	-19,48	-2,953
78,233	-21,68	-3,107
80,345	-21,96	-3,159
82,457	-21,96	-3,283
84,568	-21,96	-3,473
86,686	-21,94	-3,464
88,798	-21,94	-3,5
90,916	-21,94	-3,499
93,028	-21,96	-3,498
95,14	-21,92	-3,498
97,252	-21,88	-3,498
99,37	-21,84	-3,497
101,482	-21,82	-3,495
103,593	-21,7	-3,49
105,705	-21,68	-3,486
107,823	-21,58	-3,484
109,935	-21,34	-3,478
112,047	-21,48	-3,479
114,159	-21,24	-3,466
116,271	-20,88	-3,461
118,383	-20,94	-3,456
120,494	-20,54	-3,452
122,618	-20,82	-3,451
124,736	-20	-3,436
126,854	-19,66	-3,432
128,972	-20,02	-3,43
131,084	-19,56	-3,411
133,196	-18,42	-3,364
135,314	-18,02	-3,354
137,425	-18,64	-3,38
139,537	-18,88	-3,358
141,649	-18,22	-3,361
143,767	-18,96	-3,405
145,879	-19,46	-3,397
147,991	-19,2	-3,413
150,103	-19,86	-3,42
152,215	-18,96	-3,406
154,327	-19,5	-3,428
156,444	-19,72	-3,423
158,562	-19,44	-3,418
160,68	-19,42	-3,428
162,792	-19,46	-3,428
164,904	-20,1	-3,439
167,016	-20,02	-3,433
169,134	-18,98	-3,421
171,245	-18,36	-3,402
173,357	-18,9	-3,393
175,481	-18,58	-3,404
177,593	-18,2	-3,382
179,711	-18,16	-3,401
181,823	-18,82	-3,391
183,941	-19,18	-3,413
186,053	-18,96	-3,41
188,17	-19,02	-3,42
190,282	-18,92	-3,392
192,394	-18,66	-3,382
194,512	-17,32	-3,377
196,63	-18,34	-3,394
198,748	-18,56	-3,408
200,86	-19,26	-3,414
202,978	-19,64	-3,436
205,09	-19,56	-3,438
207,208	-19,58	-3,442
209,319	-20,02	-3,458
211,431	-20,28	-3,461
213,549	-19,98	-3,463
215,661	-20,24	-3,465
217,785	-20,22	-3,469
219,897	-20,06	-3,468
222,015	-20,3	-3,469
224,144	-20,36	-3,478
226,262	-20,32	-3,48
228,374	-20,58	-3,486
230,504	-20,62	-3,49
232,616	-20,6	-3,488
234,728	-20,62	-3,492
236,846	-20,66	-3,493
238,964	-20,64	-3,494
241,081	-20,66	-3,494
243,211	-20,66	-3,496
245,329	-20,66	-3,497
247,453	-20,66	-3,497
249,565	-20,62	-3,496
251,683	-20,62	-3,497
253,795	-20,62	-3,496
255,913	-20,6	-3,497
258,037	-20,54	-3,498
260,154	-20,46	-3,498
262,272	-20,44	-3,498
264,39	-20,44	-3,499
266,526	-20,44	-3,499
268,638	-20,44	-3,499
270,762	-20,44	-3,499
272,874	-20,42	-3,499
274,986	-20,42	-3,499
277,097	-20,42	-3,499
279,221	-20,4	-3,499
281,333	-20,38	-3,499
283,451	-20,38	-3,5
285,581	-20,36	-3,494
287,699	-20,34	-3,475
289,817	-20,32	-3,46
291,935	-20,3	-3,376
294,052	-20,28	-3,354
296,182	-20,26	-3,22
298,294	-20,14	-3,213
300,412	-19,3	-3,131
302,536	-19,8	-3,156
304,654	-19,14	-3,049
306,772	-19,64	-3,07
308,896	-19,14	-3,03
311,013	-19,38	-3,02
313,137	-19,24	-3,049
315,255	-18,5	-3,018
317,379	-17,56	-2,898
319,491	-17,38	-2,96
321,615	-18,62	-3,02
323,733	-18,52	-3,048
325,857	-18,78	-3,033
327,975	-19,66	-3,088
330,098	-19,64	-3,138
332,216	-19,62	-3,101
334,34	-20,1	-3,076
336,452	-19,9	-3,182
338,576	-18,1	-2,98
340,7	-18,08	-2,93
342,818	-17,64	-2,952
344,942	-18,34	-2,948
347,059	-18,46	-3,013
349,177	-18,4	-2,986
351,295	-18,9	-3,035
353,413	-19,54	-3,074
355,531	-19,36	-3,121
357,655	-19,38	-3,06
359,773	-18,6	-3,055
361,897	-18,56	-2,982
364,014	-19,22	-3,116
366,138	-19,7	-3,141
368,25	-18,86	-3,106
370,362	-18,8	-3,099
372,486	-19,12	-3,155
374,616	-19,1	-3,052
376,74	-19,04	-2,964
378,87	-17,38	-2,92
380,994	-18,28	-3,008
383,117	-17,36	-2,935
385,247	-16,16	-2,823
387,365	-15,28	-2,722
389,495	-15,36	-2,63
391,607	-14,1	-2,597
393,725	-13,42	-2,57
395,855	-13,42	-2,49
397,972	-12,74	-2,394
400,09	-12,26	-2,39
402,208	-12,16	-2,337
404,326	-10,86	-2,23
406,45	-10,3	-2,104
408,574	-9,24	-1,98
410,692	-9,84	-2,008
412,816	-9,76	-2,026
414,94	-8,14	-1,917
417,063	-8,06	-1,86
419,187	-7,68	-1,75
421,323	-6,48	-1,64
423,435	-6,98	-1,618
425,553	-6,5	-1,596
427,677	-6,54	-1,555
429,807	-5,7	-1,406
431,931	-4,6	-1,259
434,048	-3,52	-1,105
436,172	-3,3	-1,001
438,29	-2,88	-0,948
440,414	-2,64	-0,849
442,544	-1,82	-0,684
444,674	-1,06	-0,497
446,792	-0,84	-0,418
448,916	-0,38	-0,332
451,033	-0,32	-0,289
453,151	0,16	-0,235
455,275	0,34	-0,175
457,407	1,16	-0,126
459,529	1,32	-0,094
461,653	1,52	-0,083
463,783	1,96	-0,055
465,913	2	-0,038
468,031	2,08	-0,043
470,154	1,74	-0,041
472,278	2,02	-0,056
474,42	2,06	-0,046
476,538	2,12	-0,049
478,662	1,98	-0,054
480,786	1,92	-0,062
482,916	2,08	-0,053
485,034	1,94	-0,053
487,157	2,18	-0,041
489,287	2,28	-0,03
491,405	2,26	-0,03
493,541	2,3	-0,026
495,665	2,28	-0,029
497,783	2,26	-0,03
499,907	2,24	-0,026
502,025	2,34	-0,024
504,136	2,28	-0,037
506,254	2,02	-0,058
508,378	1,76	-0,085
510,502	1,74	-0,074
512,626	0,94	-0,128
514,75	1,06	-0,125
516,868	0,86	-0,158
518,998	0,56	-0,208
521,121	-0,04	-0,27
523,239	0	-0,311
525,363	0,2	-0,222
527,487	0,46	-0,199
529,611	1,1	-0,122
531,735	1,8	-0,075
533,853	2,2	-0,05
535,977	2,18	-0,03
538,101	2,44	-0,02
540,224	2,5	-0,012
542,342	2,52	-0,01
544,46	2,56	-0,007
546,572	2,58	-0,005
548,69	2,58	-0,004
550,808	2,58	-0,003
552,932	2,58	-0,002
555,05	2,58	-0,002
557,179	2,58	-0,002
559,303	2,56	-0,001
561,415	2,56	-0,001
563,533	2,54	-0,001
565,663	2,54	-0,114
567,787	2,58	-0,319
569,923	0,74	-0,574
572,041	-0,3	-0,771
574,158	-1,22	-0,856
576,276	-1,2	-0,919
578,406	-1,88	-1,052
580,53	-2,5	-1,13
582,654	-2,28	-1,169
584,778	-2,68	-1,195
586,902	-2,9	-1,315
589,026	-3,48	-1,441
591,155	-3,68	-1,49
593,273	-3,84	-1,515
595,403	-4,14	-1,665
597,527	-4,82	-1,826
599,651	-5,4	-1,863
601,775	-6,22	-2,01
603,911	-6,74	-2,11
606,035	-6,86	-2,187
608,164	-7,1	-2,235
610,282	-7,3	-2,279
612,406	-7,38	-2,381
614,536	-9,26	-2,516
616,654	-9,64	-2,59
618,79	-9,82	-2,637
620,914	-9,82	-2,716
623,038	-10,4	-2,76
625,162	-10,14	-2,801
627,285	-10,7	-2,782
629,403	-10,02	-2,712
631,545	-10,92	-2,817
633,663	-10,42	-2,768
635,781	-9,32	-2,662
637,911	-10,12	-2,662
640,029	-9,8	-2,577
642,159	-9,18	-2,562
644,294	-9,04	-2,561
646,43	-8,66	-2,54
648,566	-9,48	-2,523
650,708	-9,38	-2,546
652,832	-8,72	-2,438
654,968	-9,64	-2,602
657,092	-10,22	-2,669
659,216	-9,62	-2,646
661,345	-10,8	-2,732
663,481	-10,16	-2,758
665,617	-10,6	-2,863
667,735	-11,9	-2,964
669,865	-13,64	-3,109
671,983	-13,7	-3,156
674,113	-13,42	-3,131
676,237	-12,86	-3,134
678,367	-12,24	-3,156
680,496	-13,12	-3,172
682,62	-13,12	-3,149
684,75	-12,98	-3,119
686,88	-12,56	-3,072
689,004	-12,62	-3,042
691,134	-12,7	-3,07
693,264	-12,46	-3,055
695,382	-13,08	-3,061
697,523	-13,7	-3,186
699,647	-13,68	-3,163
701,771	-13,38	-3,175
703,901	-13,34	-3,182
706,025	-13,86	-3,153
708,155	-13,52	-3,202
710,291	-15,1	-3,308
712,409	-15,62	-3,368
714,532	-16,3	-3,393
716,668	-16,8	-3,416
718,798	-17,3	-3,438
720,928	-17,8	-3,456
723,058	-18,28	-3,476
725,188	-18,5	-3,485
727,318	-18,48	-3,49
729,442	-18,62	-3,492
731,559	-18,66	-3,492
733,689	-18,64	-3,494
735,813	-18,66	-3,496
737,937	-18,62	-3,496
740,061	-18,66	-3,497
742,185	-18,66	-3,498
744,309	-18,64	-3,498
746,439	-18,62	-3,499
748,556	-18,62	-3,499
750,686	-18,62	-3,499
752,813	-18,62	-3,498
754,928	-18,62	-3,498
757,058	-18,62	-3,498
759,188	-18,6	-3,498
761,312	-18,6	-3,498
763,436	-18,58	-3,499
765,566	-18,6	-3,499
767,689	-18,58	-3,499
769,819	-18,56	-3,5
771,943	-18,54	-3,474
774,067	-18,54	-3,482
776,185	-18,56	-3,499
778,309	-18,56	-3,498
780,433	-18,54	-3,498
782,551	-18,54	-3,498
784,674	-18,54	-3,499
786,804	-18,54	-3,498
788,928	-18,54	-3,498
791,064	-18,52	-3,498
793,188	-18,5	-3,498
795,312	-18,5	-3,497
797,436	-18,5	-3,498
799,566	-18,48	-3,497
801,707	-18,5	-3,497
803,843	-18,48	-3,497
805,967	-18,46	-3,496
808,103	-18,48	-3,496
810,227	-18,46	-3,496
812,345	-18,34	-3,488
814,475	-18,18	-3,476
816,605	-18,22	-3,485
818,746	-18,22	-3,483
820,87	-17,92	-3,474
822,994	-18,04	-3,47
825,13	-17,88	-3,474
827,26	-17,9	-3,476
829,378	-18,16	-3,482
831,508	-18,22	-3,485
833,638	-18,28	-3,488
835,761	-18,26	-3,487
837,879	-18,2	-3,485
839,997	-18,24	-3,486
842,133	-18,28	-3,488
844,257	-18,24	-3,486
846,387	-18,26	-3,491
848,511	-18,32	-3,493
850,641	-18,32	-3,494
852,765	-18,2	-3,487
854,894	-18,28	-3,489
857,018	-18,28	-3,491
859,142	-18,32	-3,494
861,266	-18,32	-3,495
863,384	-18,3	-3,496
865,52	-18,34	-3,497
867,656	-18,32	-3,498
869,786	-18,32	-3,499
871,915	-18,32	-3,499
874,051	-18,3	-3,499
876,181	-18,28	-3,5
878,299	-18,28	-3,499
880,423	-18,28	-3,5
882,547	-18,28	-3,5
884,665	-18,26	-3,5
886,801	-18,24	-3,46
888,924	-18,26	-3,489
891,048	-18,26	-3,486
893,172	-18,24	-3,479
895,29	-18,22	-3,449
897,414	-18,24	-3,365
899,544	-18,22	-3,201
901,668	-17,62	-3,07
903,792	-16,58	-2,954
905,922	-15,2	-2,836
908,051	-12,96	-2,675
910,175	-13,02	-2,624
912,299	-11,32	-2,444
914,435	-10,18	-2,292
916,553	-10,06	-2,229
918,683	-9,2	-2,116
920,813	-7,48	-1,966
922,937	-7,46	-1,889
925,06	-7,22	-1,875
927,19	-6,2	-1,724
929,32	-4,78	-1,468
931,444	-4,88	-1,492
933,568	-4,92	-1,537
935,686	-5,42	-1,569
937,828	-5,12	-1,554
939,958	-5,66	-1,443
942,087	-3,82	-1,363
944,217	-3,74	-1,265
946,347	-3,22	-1,163
948,471	-2,84	-1,103
950,589	-2,64	-1,092
952,713	-2,78	-1,046
954,843	-2,32	-0,923
956,973	-1,92	-0,848
959,102	-1,62	-0,761
961,232	-1,46	-0,718
963,356	-1,6	-0,682
965,486	-1,14	-0,67
967,616	-1,04	-0,627
969,746	-0,72	-0,556
971,882	-0,56	-0,468
974	-0,52	-0,499
976,123	-0,92	-0,544
978,259	-0,18	-0,408
980,383	-0,68	-0,378
982,513	0,52	-0,259
984,637	0,42	-0,217
986,767	1,12	-0,174
988,891	1,16	-0,137
991,015	0,62	-0,215
993,139	0,6	-0,184
995,256	0,88	-0,175
997,386	1,34	-0,156
999,504	0,94	-0,192
1001,628	1,3	-0,156
1003,752	1,34	-0,122
1005,888	1,74	-0,105
1008,006	1,72	-0,1
1010,142	1,68	-0,074
1012,265	1,96	-0,085
1014,395	1,98	-0,064
1016,519	1,88	-0,074
1018,637	1,98	-0,06
1020,761	2,26	-0,062
1022,891	2,4	-0,046
1025,021	2,28	-0,042
1027,151	2,56	-0,032
1029,274	2,6	-0,023
1031,392	2,58	-0,022
1033,528	2,66	-0,022
1035,658	2,56	-0,028
1037,794	2,62	-0,023
1039,918	2,54	-0,029
1042,036	2,52	-0,03
1044,166	2,6	-0,025
1046,295	2,66	-0,02
1048,419	2,68	-0,021
1050,537	2,66	-0,02
1052,661	2,66	-0,022
1054,785	2,64	-0,023
1056,909	2,58	-0,024
1059,039	2,66	-0,026
1061,17	2,6	-0,024
1063,28	2,56	-0,034
1065,404	2,4	-0,04
1067,522	2,48	-0,041
1069,646	2,28	-0,05
1071,782	2,52	-0,039
1073,9	2,42	-0,045
1076,024	2,5	-0,039
1078,148	2,44	-0,036
1080,266	2,46	-0,04
1082,401	2,6	-0,028
1084,519	2,64	-0,028
1086,649	2,66	-0,019
1088,767	2,72	-0,016
1090,891	2,72	-0,014
1093,015	2,74	-0,013
1095,139	2,8	-0,012
1097,263	2,74	-0,014
1099,392	2,7	-0,015
1101,516	2,74	-0,019
1103,64	2,7	-0,018
1105,77	2,66	-0,021
1107,894	2,64	-0,023
1110,024	2,56	-0,02
1112,16	2,76	-0,014
1114,284	2,72	-0,012
1116,401	2,8	-0,012
1118,543	2,78	-0,01
1120,673	2,76	-0,012
1122,809	2,82	-0,009
1124,933	2,82	-0,008
1127,051	2,78	-0,009
1129,181	2,84	-0,008
1131,305	2,8	-0,01
1133,429	2,78	-0,013
1135,547	2,74	-0,014
1137,664	2,82	-0,011
1139,782	2,76	-0,018
1141,912	2,54	-0,029
1144,042	2,6	-0,032
1146,172	2,56	-0,028
1148,302	2,64	-0,03
1150,426	2,58	-0,029
1152,549	2,68	-0,022
1154,685	2,74	-0,016
1156,803	2,8	-0,012
1158,933	2,84	-0,01
1161,063	2,86	-0,007
1163,193	2,88	-0,005
1165,323	2,88	-0,004
1167,447	2,86	-0,002
1169,576	2,86	-0,002
1171,7	2,86	-0,002
1173,83	2,86	-0,001
1175,948	2,88	-0,001
1178,078	2,86	-0,001
1180,196	2,86	0
1182,32	2,88	0
1184,438	2,86	0
1186,573	2,84	-0,023
1188,703	2,86	-0,022
1190,821	2,86	-0,053
1192,951	2,84	-0,149
1195,081	2,84	-0,163
1197,199	2,88	-0,262
1199,329	2,64	-0,34
1201,465	2,12	-0,435
1203,583	2,3	-0,38
1205,724	2,18	-0,454
1207,848	1,98	-0,472
1209,984	1,8	-0,562
1212,108	0,98	-0,618
1214,25	0,08	-0,749
1216,38	-0,5	-0,836
1218,51	-1,04	-1,001
1220,628	-0,96	-0,98
1222,769	-1,74	-1,141
1224,887	-1,26	-1,13
1227,017	-1,7	-1,18
1229,147	-1,86	-1,266
1231,271	-1,94	-1,242
1233,401	-2,02	-1,259
1235,525	-1,56	-1,192
1237,655	-1,92	-1,205
1239,778	-1,68	-1,229
1241,908	-1,76	-1,226
1244,038	-1,82	-1,284
1246,174	-2,22	-1,337
1248,304	-2,28	-1,471
1250,428	-2,96	-1,527
1252,558	-3,12	-1,62
1254,706	-3,48	-1,817
1256,841	-4,28	-1,96
1258,977	-4,68	-2,091
1261,101	-4,72	-2,084
1263,231	-5,04	-2,17
1265,373	-6,02	-2,354
1267,497	-5,92	-2,346
1269,633	-6,02	-2,397
1271,751	-6,42	-2,425
1273,886	-6,24	-2,477
1276,016	-6,44	-2,515
1278,152	-7,16	-2,606
1280,276	-7,72	-2,709
1282,406	-8,16	-2,785
1284,53	-7,68	-2,787
1286,66	-7,98	-2,836
1288,778	-8,3	-2,851
1290,907	-8,5	-2,879
1293,037	-8,62	-2,933
1295,167	-8,7	-2,952
1297,291	-9,04	-2,976
1299,409	-8,84	-2,9
1301,539	-8,64	-2,966
1303,669	-9,52	-3,026
1305,799	-8,3	-3,063
1307,917	-8,84	-2,983
1310,046	-9,56	-3,016
1312,17	-8,98	-3,008
1314,306	-9,06	-2,97
1316,43	-9,08	-3,065
1318,548	-9,1	-3,015
1320,666	-9,2	-2,989
1322,796	-8,74	-3,01
1324,92	-9,28	-3,083
1327,049	-9,62	-3,058
1329,167	-9,68	-3,101
1331,291	-8,78	-3,151
1333,421	-9,82	-3,21
1335,545	-10,76	-3,237
1337,675	-10,62	-3,242
1339,811	-11	-3,299
1341,941	-10,68	-3,341
1344,07	-11,78	-3,364
1346,2	-11,22	-3,34
1348,318	-11,28	-3,325
1350,454	-11,7	-3,366
1352,578	-11,02	-3,362
1354,72	-12,8	-3,388
1356,838	-10,36	-3,289
1358,968	-11,22	-3,317
1361,109	-11,42	-3,37
1363,233	-11,98	-3,388
1365,357	-12,18	-3,395
1367,487	-12,2	-3,393
1369,617	-11,78	-3,412
1371,741	-12,72	-3,431
1373,871	-12,62	-3,421
1376,007	-13,06	-3,429
1378,131	-13,24	-3,441
1380,26	-13,42	-3,451
1382,39	-13,04	-3,453
1384,514	-13,12	-3,453
1386,656	-13,52	-3,468
1388,792	-13,48	-3,472
1390,916	-13,58	-3,475
1393,052	-13,66	-3,476
1395,182	-13,72	-3,48
1397,311	-13,66	-3,48
1399,435	-13,62	-3,484
1401,559	-13,72	-3,483
1403,683	-13,62	-3,478
1405,825	-13,68	-3,481
1407,943	-13,66	-3,481
1410,073	-13,54	-3,483
1412,197	-13,68	-3,484
1414,333	-13,58	-3,482
1416,453	-13,62	-3,482
1418,58	-13,64	-3,484
1420,704	-13,56	-3,486
1422,834	-13,6	-3,488
1424,952	-13,6	-3,487
1427,082	-13,64	-3,487
1429,206	-13,56	-3,485
1431,329	-13,58	-3,486
1433,453	-13,5	-3,487
1435,583	-13,58	-3,488
1437,707	-13,58	-3,488
1439,837	-13,58	-3,488
1441,955	-13,58	-3,487
1444,079	-13,56	-3,49
1446,203	-13,58	-3,491
1448,326	-13,6	-3,492
1450,456	-13,6	-3,493
1452,58	-13,58	-3,492
1454,71	-13,56	-3,494
1456,84	-13,56	-3,494
1458,97	-13,56	-3,495
1461,1	-13,56	-3,496
1463,224	-13,52	-3,495
1465,342	-13,5	-3,494
1467,471	-13,46	-3,494
1469,601	-13,46	-3,49
1471,731	-13,4	-3,49
1473,849	-13,4	-3,489
1475,973	-13,34	-3,49
1478,103	-13,4	-3,49
1480,227	-13,22	-3,489
1482,339	-13,32	-3,485
1484,48	-13,32	-3,487
1486,604	-13,24	-3,484
1488,74	-13,16	-3,483
1490,878	-13,24	-3,484
1493	-13,2	-3,48
1495,124	-13,12	-3,481
1497,254	-13,16	-3,479
1499,378	-12,96	-3,476
1501,501	-12,84	-3,471
1503,625	-12,68	-3,461
1505,761	-12,74	-3,458
1507,885	-12,44	-3,453
1510,003	-12,38	-3,443
1512,127	-12,28	-3,437
1514,263	-12,62	-3,46
1516,381	-12,54	-3,451
1518,516	-12,42	-3,454
1520,652	-12,54	-3,45
1522,776	-12,6	-3,453
1524,894	-12,08	-3,433
1527,012	-11,76	-3,408
1529,136	-11,62	-3,398
1531,266	-11,38	-3,416
1533,378	-11,18	-3,386
1535,502	-10,6	-3,389
1537,637	-11,62	-3,4
1539,767	-11,24	-3,412
1541,894	-12,02	-3,425
1544,015	-11,24	-3,41
1546,145	-11,1	-3,402
1548,269	-11,54	-3,393
1550,387	-11,02	-3,383
1552,517	-11,12	-3,391
1554,646	-9,7	-3,354
1556,77	-10	-3,328
1558,9	-9,4	-3,267
1561,036	-10,24	-3,32
1563,16	-9,12	-3,298
1565,278	-8,32	-3,147
1567,414	-8,34	-3,12
1569,55	-8,26	-3,066
1571,679	-7,78	-3,104
1573,797	-7,72	-3,061
1575,927	-7,48	-2,946
1578,051	-5,76	-2,597
1580,169	-4,82	-2,443
1582,305	-4,08	-2,298
1584,429	-3,72	-2,09
1586,547	-3,64	-2,106
1588,67	-3,24	-1,975
1590,8	-3,2	-1,986
1592,93	-3,4	-2,041
1595,048	-3,16	-1,94
1597,178	-2,82	-1,829
1599,302	-2,26	-1,736
1601,438	-2,28	-1,678
1603,55	-2,3	-1,604
1605,674	-2,16	-1,537
1607,797	-1,84	-1,466
1609,921	-1,66	-1,406
1612,045	-1,66	-1,336
1614,175	-1,54	-1,372
1616,293	-1,74	-1,446
1618,417	-1,76	-1,44
1620,547	-1,82	-1,488
1622,671	-1,88	-1,476
1624,794	-1,6	-1,393
1626,918	-1,38	-1,375
1629,042	-1,56	-1,399
1631,166	-1,5	-1,317
1633,284	-1,4	-1,264
1635,414	-1,2	-1,19
1637,544	-1,4	-1,23
1639,68	-0,84	-1,137
1641,797	-0,72	-1,084
1643,921	-0,96	-1,114
1646,051	-1	-1,174
1648,169	-1,18	-1,184
1650,311	-1,64	-1,372
1652,435	-1,82	-1,488
1654,559	-1,88	-1,548
1656,677	-2	-1,554
1658,794	-2,02	-1,569
1660,918	-1,78	-1,54
1663,054	-2,04	-1,598
1665,178	-2,04	-1,628
1667,308	-2,44	-1,693
1669,438	-2,26	-1,725
1671,562	-2,7	-1,813
1673,686	-2,8	-1,854
1675,815	-2,52	-1,85
1677,951	-2,92	-1,935
1680,075	-3,06	-1,98
1682,199	-3,48	-2,095
1684,323	-3,48	-2,092
1686,453	-3,32	-2,12
1688,571	-3,32	-2,098
1690,701	-3,76	-2,174
1692,825	-4,24	-2,309
1694,966	-4,38	-2,414
1697,09	-4,28	-2,386
1699,22	-5,04	-2,519
1701,362	-5,46	-2,686
1703,498	-6,02	-2,77
1705,622	-6,36	-2,848
1707,746	-6,14	-2,877
1709,882	-6,64	-2,951
1712,011	-5,74	-3
1714,129	-6,62	-2,962
1716,259	-6,62	-2,99
1718,401	-6,78	-3,015
1720,525	-6,28	-3,011
1722,649	-6,58	-2,989
1724,773	-6,18	-2,986
1726,909	-7,28	-3,172
1729,026	-6,92	-3,171
1731,15	-6,84	-3,174
1733,286	-8,04	-3,303
1735,404	-8,32	-3,316
1737,54	-8,32	-3,351
1739,664	-8,46	-3,35
1741,788	-8,5	-3,364
1743,924	-8,96	-3,374
1746,053	-8,62	-3,359
1748,189	-8,3	-3,354
1750,319	-8,48	-3,336
1752,437	-8,5	-3,327
1754,573	-8,54	-3,363
1756,703	-8,82	-3,358
1758,815	-8,48	-3,336
1760,951	-8,32	-3,352
1763,087	-9,32	-3,408
1765,216	-9,74	-3,435
1767,34	-9,98	-3,452
1769,47	-9,92	-3,455
1771,606	-10,18	-3,468
1773,724	-10,04	-3,469
1775,848	-10,24	-3,479
1777,978	-10,38	-3,485
1780,108	-10,38	-3,487
1782,231	-10,24	-3,492
1784,367	-10,22	-3,493
1786,497	-10,2	-3,495
1788,615	-10,2	-3,496
1790,751	-10,18	-3,497
1792,881	-10,16	-3,498
1795,011	-10,12	-3,498
1797,129	-10,12	-3,498
1799,258	-10,1	-3,498
1801,388	-10,08	-3,499
1803,512	-10,04	-3,499
1805,654	-10,04	-3,499
1807,784	-10,04	-3,499
1809,914	-10	-3,5
1812,038	-9,98	-3,445
1814,168	-9,96	-3,314
1816,291	-9,94	-3,294
1818,409	-9,94	-3,332
1820,539	-9,92	-3,282
1822,669	-9,62	-3,155
1824,793	-9,38	-3,201
1826,917	-9,9	-3,182
1829,053	-8,9	-3,128
1831,177	-8,88	-3,104
1833,307	-8,98	-2,974
1835,43	-7,18	-2,924
1837,566	-6,9	-2,807
1839,696	-6,08	-2,742
1841,832	-5,46	-2,658
1843,956	-5,28	-2,613
1846,098	-5,06	-2,472
1848,228	-4,54	-2,321
1850,352	-3,52	-2,292
1852,469	-3,74	-2,287
1854,605	-4,06	-2,277
1856,723	-3,9	-2,254
1858,853	-3,34	-2,186
1860,983	-3,58	-2,194
1863,125	-2,96	-2,033
1865,249	-2,5	-1,987
1867,379	-2,62	-1,976
1869,508	-2,3	-1,932
1871,638	-2,12	-1,834
1873,756	-2,08	-1,829
1875,88	-2,04	-1,805
1878,016	-1,68	-1,705
1880,134	-1,78	-1,753
1882,276	-1,4	-1,597
1884,406	-1,42	-1,558
1886,523	-1,62	-1,543
1888,641	-1,38	-1,57
1890,777	-1,12	-1,496
1892,902	-1,32	-1,558
1895,019	-1,2	-1,535
1897,149	-1,04	-1,504
1899,285	-1,02	-1,419
1901,427	-0,7	-1,374
1903,544	-0,76	-1,31
1905,668	-0,4	-1,212
1907,804	-0,38	-1,11
1909,928	-0,16	-1,022
1912,064	0	-0,902
1914,2	0,08	-0,876
1916,324	0	-0,904
1918,448	0,18	-0,874
1920,566	0,16	-0,897
1922,695	0,26	-0,8
1924,825	0,42	-0,756
1926,943	0,28	-0,757
1929,061	0,22	-0,788
1931,191	0,38	-0,756
1933,315	0,36	-0,737
1935,445	0,62	-0,588
1937,568	0,64	-0,558
1939,698	0,72	-0,465
1941,822	0,64	-0,49
1943,946	0,8	-0,487
1946,082	0,8	-0,403
1948,2	0,76	-0,445
1950,33	0,94	-0,407
1952,46	0,96	-0,336
1954,584	1,3	-0,276
1956,701	1,5	-0,222
1958,831	1,4	-0,214
1960,955	1,36	-0,212
1963,091	1,52	-0,187
1965,209	1,76	-0,143
1967,333	1,78	-0,135
1969,469	1,96	-0,113
1971,581	1,9	-0,102
1973,716	2,18	-0,074
1975,84	2,08	-0,078
1977,976	2,38	-0,055
1980,094	2,38	-0,057
1982,218	2,46	-0,045
1984,348	2,58	-0,043
1986,472	2,44	-0,054
1988,602	2,5	-0,055
1990,732	2,38	-0,059
1992,849	2,48	-0,057
1994,973	2,24	-0,074
1997,097	2,02	-0,092
1999,227	1,84	-0,108
2001,351	1,74	-0,12
2003,475	1,62	-0,13
2005,593	1,52	-0,153
2007,711	1,26	-0,217
2009,834	1	-0,312
2011,97	1,16	-0,26
2014,1	1,38	-0,221
2016,218	1,24	-0,286
2018,348	1,04	-0,338
2020,478	1,16	-0,32
2022,596	0,96	-0,331
2024,726	1,08	-0,329
2026,856	0,88	-0,272
2028,979	1,22	-0,3
2031,109	1,08	-0,308
2033,239	1,14	-0,338
2035,369	0,98	-0,37
2037,493	0,88	-0,399
2039,623	1	-0,388
2041,753	0,9	-0,396
2043,876	1	-0,43
2046,018	1,12	-0,359
2048,142	1,06	-0,367
2050,272	0,94	-0,376
2052,39	0,78	-0,473
2054,52	0,86	-0,482
2056,644	0,78	-0,511
2058,768	0,52	-0,64
2060,897	0,7	-0,576
2063,021	0,6	-0,614
2065,145	0,38	-0,718
2067,275	0,46	-0,728
2069,417	0,4	-0,758
2071,535	0,22	-0,88
2073,677	0,24	-0,856
2075,807	0,1	-0,893
2077,943	0,06	-0,945
2080,066	-0,1	-1,028
2082,196	-0,18	-1,064
2084,326	-0,36	-1,116
2086,444	-0,46	-1,124
2088,574	-0,46	-1,244
2090,698	-0,58	-1,298
2092,828	-0,6	-1,26
2094,946	-0,9	-1,43
2097,081	-0,8	-1,404
2099,211	-0,92	-1,414
2101,335	-0,76	-1,412
2103,465	-0,98	-1,485
2105,601	-0,92	-1,474
2107,725	-0,88	-1,445
2109,849	-1,04	-1,511
2111,979	-1	-1,537
2114,108	-1,08	-1,535
2116,232	-1,02	-1,586
2118,362	-1,06	-1,558
2120,492	-1,04	-1,604
2122,61	-1,56	-1,749
2124,734	-1,32	-1,735
2126,864	-1,26	-1,659
2128,982	-1,46	-1,736
2131,105	-1,52	-1,763
2133,229	-1,76	-1,844
2135,359	-1,6	-1,834
2137,489	-1,64	-1,8
2139,619	-1,66	-1,869
2141,749	-1,94	-1,93
2143,885	-2	-1,968
2146,003	-2,34	-2,097
2148,127	-2,82	-2,222
2150,256	-2,58	-2,214
2152,374	-2,9	-2,322
2154,504	-3,52	-2,33
2156,628	-3,52	-2,423
2158,752	-3,84	-2,574
2160,876	-5,28	-2,732
2163,006	-4,56	-2,655
2165,13	-4,32	-2,695
2167,259	-5,92	-2,843
2169,389	-5,56	-2,842
2171,507	-6,68	-2,917
2173,643	-6,38	-2,896
2175,773	-5,98	-2,9
2177,897	-6,04	-2,898
2180,015	-6,38	-2,956
2182,145	-6,68	-2,929
2184,268	-6,4	-2,99
2186,398	-6,14	-2,903
2188,522	-6,38	-2,927
2190,652	-5,76	-2,888
2192,77	-5,82	-2,905
2194,9	-7,14	-3,025
2197,03	-6,44	-3,004
2199,166	-7,04	-3,015
2201,29	-6,74	-3,029
2203,419	-7	-3,017
2205,543	-6,88	-3,028
2207,679	-7,52	-3,143
2209,815	-7,78	-3,202
2211,945	-8,04	-3,25
2214,063	-8,04	-3,212
2216,193	-8,06	-3,146
2218,316	-7,74	-3,187
2220,452	-7,16	-3,124
2222,576	-8,02	-3,249
2224,712	-8,02	-3,283
2226,848	-7,68	-3,234
2228,972	-8	-3,282
2231,102	-8	-3,406
2233,238	-8	-3,414
2235,362	-8,02	-3,499
2237,503	-8,02	-3,496
2239,633	-8	-3,482
2241,751	-7,98	-3,5
2243,875	-7,98	-3,5
2246,015	-7,98	-3,5
2248,129	-7,98	-3,499
2250,259	-8	-3,499
2252,383	-7,98	-3,499
2254,5	-7,98	-3,499
2256,636	-7,96	-3,499
2258,76	-7,96	-3,499
2260,89	-7,96	-3,499
2263,02	-7,98	-3,499
2265,144	-7,96	-3,499
2267,274	-7,96	-3,498
2269,398	-7,96	-3,498
2271,515	-7,96	-3,498
2273,639	-7,96	-3,498
2275,769	-7,94	-3,497
2277,893	-7,94	-3,496
2280,029	-7,94	-3,496
2282,159	-7,94	-3,496
2284,277	-7,92	-3,496
2286,407	-7,92	-3,495
2288,536	-7,92	-3,494
2290,66	-7,9	-3,495
2292,784	-7,9	-3,494
2294,914	-7,88	-3,492
2297,05	-7,88	-3,493
2299,18	-7,86	-3,492
2301,304	-7,88	-3,492
2303,434	-7,88	-3,494
2305,564	-7,88	-3,493
2307,693	-7,82	-3,493
2309,823	-7,84	-3,492
2311,941	-7,84	-3,491
2314,065	-7,82	-3,492
2316,201	-7,82	-3,494
2318,313	-7,8	-3,492
2320,437	-7,78	-3,491
2322,573	-7,8	-3,493
2324,696	-7,74	-3,491
2326,82	-7,78	-3,49
2328,956	-7,76	-3,491
2331,092	-7,74	-3,491
2333,21	-7,74	-3,488
2335,334	-7,7	-3,487
2337,464	-7,72	-3,488
2339,582	-7,74	-3,49
2341,717	-7,72	-3,491
2343,847	-7,68	-3,488
2345,977	-7,7	-3,49
2348,107	-7,68	-3,491
2350,231	-7,7	-3,493
2352,349	-7,68	-3,492
2354,485	-7,68	-3,492
2356,615	-7,66	-3,492
2358,744	-7,68	-3,493
2360,868	-7,64	-3,49
2362,998	-7,64	-3,489
2365,134	-7,58	-3,489
2367,252	-7,56	-3,486
2369,382	-7,56	-3,485
2371,512	-7,54	-3,486
2373,63	-7,46	-3,478
2375,753	-7,44	-3,479
2377,883	-7,52	-3,482
2380,007	-7,42	-3,477
2382,131	-7,34	-3,48
2384,255	-7,54	-3,484
2386,373	-7,36	-3,474
2388,503	-7,46	-3,478
2390,633	-7,4	-3,479
2392,763	-7,42	-3,476
2394,886	-7,3	-3,468
2397,01	-7,26	-3,467
2399,128	-6,84	-3,454
2401,27	-7,18	-3,464
2403,394	-7,02	-3,467
2405,512	-7,04	-3,468
2407,642	-7,28	-3,466
2409,772	-7,18	-3,465
2411,883	-7,1	-3,454
2414,013	-7,24	-3,459
2416,143	-6,98	-3,456
2418,261	-6,82	-3,444
2420,385	-6,66	-3,438
2422,509	-6,8	-3,449
2424,621	-6,64	-3,433
2426,751	-6,78	-3,449
2428,88	-6,9	-3,447
2430,998	-6,68	-3,434
2433,122	-6,32	-3,413
2435,258	-6,56	-3,424
2437,382	-6,64	-3,432
2439,512	-6,94	-3,444
2441,642	-7,06	-3,461
2443,766	-6,96	-3,457
2445,883	-6,86	-3,45
2448,013	-6,4	-3,429
2450,143	-6,08	-3,441
2452,261	-6,42	-3,414
2454,391	-6,74	-3,428
2456,509	-6,5	-3,43
2458,633	-6,16	-3,413
2460,769	-6,22	-3,412
2462,905	-6,5	-3,428
2465,034	-6,42	-3,434
2467,17	-6,92	-3,448
2469,3	-6,8	-3,447
2471,418	-6,68	-3,438
2473,542	-6,3	-3,437
2475,672	-6,78	-3,44
2477,79	-6,62	-3,427
2479,92	-6,34	-3,416
2482,043	-5,78	-3,408
2484,167	-5,84	-3,389
2486,297	-5,94	-3,38
2488,421	-5,24	-3,362
2490,539	-5,06	-3,335
2492,669	-5,38	-3,296
2494,787	-4,72	-3,246
2496,905	-4,54	-3,193
2499,028	-4,68	-3,147
2501,158	-4,84	-3,236
2503,276	-4,4	-3,112
2505,418	-4,58	-3,177
2507,548	-4,38	-3,152
2509,672	-4,8	-3,302
2511,808	-4,7	-3,232
2513,938	-4,34	-3,187
2516,068	-4,94	-3,279
2518,191	-4,86	-3,269
2520,321	-4,36	-3,204
2522,445	-4,74	-3,298
2524,569	-5,18	-3,315
2526,717	-5,84	-3,402
2528,847	-6,02	-3,402
2530,965	-5,64	-3,399
2533,095	-6	-3,413
2535,212	-5,58	-3,368
2537,342	-5,84	-3,41
2539,472	-6,22	-3,444
2541,602	-6,52	-3,455
2543,726	-6,68	-3,454
2545,862	-6,68	-3,465
2547,986	-6,88	-3,472
2550,116	-6,8	-3,471
2552,245	-6,82	-3,469
2554,369	-6,8	-3,468
2556,493	-6,78	-3,469
2558,623	-6,64	-3,464
2560,747	-6,02	-3,461
2562,871	-6,74	-3,465
2565,007	-6,88	-3,476
2567,125	-6,72	-3,481
2569,254	-6,9	-3,481
2571,384	-6,92	-3,481
2573,508	-6,88	-3,478
2575,638	-6,8	-3,475
2577,768	-6,8	-3,471
2579,886	-6,72	-3,464
2582,016	-6,68	-3,466
2584,14	-6,2	-3,452
2586,269	-6,32	-3,435
2588,387	-6,12	-3,415
2590,529	-6,34	-3,436
2592,653	-5,9	-3,432
2594,783	-6,32	-3,427
2596,913	-6,28	-3,435
2599,031	-6,06	-3,433
2601,167	-6,32	-3,447
2603,297	-6,36	-3,456
2605,42	-6,14	-3,445
2607,556	-6,12	-3,44
2609,692	-6,5	-3,462
2611,81	-6,56	-3,465
2613,94	-6,74	-3,48
2616,076	-6,82	-3,486
2618,194	-6,84	-3,488
2620,318	-6,86	-3,489
2622,453	-6,86	-3,493
2624,577	-6,88	-3,493
2626,707	-6,9	-3,495
2628,849	-6,9	-3,497
2630,973	-6,9	-3,498
2633,103	-6,88	-3,499
2635,233	-6,88	-3,499
2637,357	-6,88	-3,499
2639,486	-6,86	-3,499
2641,628	-6,84	-3,5
2643,752	-6,84	-3,444
2645,888	-6,82	-3,412
2648,018	-6,82	-3,444
2650,142	-6,84	-3,5
2652,278	-6,8	-3,486
2654,414	-6,82	-3,5
2656,531	-6,8	-3,5
2658,673	-6,8	-3,494
2660,803	-6,78	-3,431
2662,921	-6,78	-3,431
2665,045	-6,76	-3,443
2667,163	-6,76	-3,486
2669,287	-6,76	-3,499
2671,423	-6,76	-3,499
2673,546	-6,78	-3,499
2675,676	-6,76	-3,499
2677,812	-6,76	-3,499
2679,936	-6,74	-3,499
2682,06	-6,74	-3,499
2684,184	-6,74	-3,499
2686,308	-6,72	-3,499
2688,426	-6,72	-3,499
2690,568	-6,74	-3,498
2692,685	-6,72	-3,497
2694,827	-6,72	-3,498
2696,957	-6,72	-3,498
2699,075	-6,7	-3,498
2701,205	-6,7	-3,498
2703,329	-6,7	-3,499
2705,453	-6,7	-3,499
2707,577	-6,66	-3,499
2709,7	-6,66	-3,499
2711,818	-6,66	-3,499
2713,948	-6,66	-3,499
2716,066	-6,66	-3,499
2718,196	-6,64	-3,499
2720,332	-6,62	-3,499
2722,45	-6,62	-3,499
2724,574	-6,62	-3,5
2726,697	-6,6	-3,5
2728,815	-6,6	-3,5
2730,945	-6,6	-3,393
2733,069	-6,58	-3,348
2735,193	-6,58	-3,321
2737,323	-6,58	-3,28
2739,447	-6,56	-3,256
2741,565	-6,56	-3,251
2743,694	-6,28	-3,261
2745,818	-6,56	-3,314
2747,948	-6,52	-3,222
2750,072	-6,22	-3,181
2752,19	-6,54	-3,21
2754,314	-5,96	-3,19
2756,444	-6,54	-3,195
2758,568	-6,54	-3,234
2760,692	-6,54	-3,264
2762,827	-6,54	-3,238
2764,945	-6,52	-3,332
2767,075	-6,52	-3,412
2769,193	-6,52	-3,285
2771,323	-6,52	-3,286
2773,447	-6,5	-3,316
2775,571	-6,38	-3,252
2777,701	-6,5	-3,239
2779,836	-6,32	-3,225
2781,954	-6,48	-3,349
2784,084	-6,48	-3,325
2786,208	-6,48	-3,326
2788,326	-6,48	-3,282
2790,456	-5,68	-3,106
2792,574	-5,94	-3,187
2794,698	-6,18	-3,222
2796,833	-5,68	-3,142
2798,951	-5,7	-3,159
2801,081	-6,42	-3,151
2803,217	-5,58	-3,099
2805,347	-5,62	-3,065
2807,477	-6,14	-3,113
2809,613	-4,82	-2,996
2811,731	-4,48	-2,97
2813,854	-4,06	-2,865
2815,972	-3,82	-2,828
2818,108	-2,86	-2,627
2820,232	-2,7	-2,55
2822,362	-2,88	-2,569
2824,492	-2,54	-2,52
2826,628	-2,42	-2,494
2828,746	-2,7	-2,495
2830,875	-2,36	-2,446
2833,005	-2,36	-2,398
2835,123	-2,52	-2,456
2837,259	-2,42	-2,441
2839,389	-2,56	-2,54
2841,513	-2,66	-2,559
2843,643	-2,8	-2,542
2845,761	-3,68	-2,703
2847,885	-4,4	-2,832
2850,02	-4,22	-2,816
2852,138	-4,42	-2,865
2854,268	-4,24	-2,88
2856,404	-4,4	-2,818
2858,534	-3,88	-2,784
2860,658	-4,16	-2,823
2862,782	-4,38	-2,842
2864,906	-3,84	-2,818
2867,047	-3,44	-2,729
2869,177	-2,78	-2,47
2871,301	-3,02	-2,555
2873,425	-3,2	-2,69
2875,543	-3,7	-2,707
2877,667	-3,84	-2,81
2879,797	-4,48	-2,899
2881,927	-4,34	-2,909
2884,056	-4,72	-2,924
2886,174	-5,24	-3,01
2888,298	-5,48	-3,049
2890,44	-5,48	-3,058
2892,558	-5,58	-3,084
2894,694	-5,28	-3,026
2896,818	-5,08	-2,992
2898,936	-5,48	-3,077
2901,059	-6,26	-3,106
2903,189	-5,68	-3,073
2905,319	-6,24	-3,094
2907,443	-4,74	-3,026
2909,573	-5,2	-3,03
2911,703	-5,34	-3,008
2913,839	-5,26	-3,04
2915,957	-5,68	-3,109
2918,087	-5,9	-3,145
2920,204	-6,2	-3,194
2922,346	-5,6	-3,155
2924,476	-6,2	-3,262
2926,606	-6,2	-3,364
2928,73	-6,2	-3,432
2930,86	-6,2	-3,45
2932,978	-6,22	-3,5
2935,108	-6,22	-3,482
2937,243	-6,2	-3,455
2939,361	-6,2	-3,5
2941,491	-6,2	-3,5
2943,627	-6,2	-3,499
2945,745	-6,2	-3,499
2947,869	-6,2	-3,499
2949,987	-6,2	-3,499
2952,117	-6,2	-3,499
2954,246	-6,2	-3,498
2956,37	-6,2	-3,498
2958,5	-6,2	-3,499
2960,636	-6,2	-3,499
2962,754	-6,2	-3,499
2964,884	-6,18	-3,499
2967,002	-6,18	-3,498
2969,132	-6,18	-3,498
2971,255	-6,18	-3,497
2973,379	-6,18	-3,496
2975,521	-6,16	-3,497
2977,651	-6,18	-3,498
2979,769	-6,16	-3,497
2981,899	-6,16	-3,496
2984,023	-6,14	-3,495
2986,141	-6,16	-3,495
2988,27	-6,14	-3,494
2990,4	-6,12	-3,492
2992,53	-6,06	-3,487
2994,654	-6,04	-3,487
2996,772	-5,94	-3,479
2998,902	-6,02	-3,482
3001,038	-6,02	-3,481
3003,156	-6,06	-3,484
3005,286	-6	-3,481
3007,415	-6	-3,48
3009,551	-5,98	-3,483
3011,681	-6,04	-3,486
3013,805	-6,04	-3,485
3015,941	-6,06	-3,488
3018,065	-6,04	-3,488
3020,183	-6,04	-3,488
3022,313	-5,98	-3,484
3024,436	-6	-3,483
3026,56	-6,04	-3,486
3028,684	-5,96	-3,481
3030,808	-5,86	-3,475
3032,938	-5,84	-3,469
3035,056	-5,78	-3,463
3037,186	-5,76	-3,466
3039,31	-5,7	-3,464
3041,433	-5,6	-3,444
3043,557	-5,46	-3,435
3045,687	-5,28	-3,43
3047,811	-4,84	-3,425
3049,935	-5,26	-3,412
3052,071	-5,22	-3,43
3054,195	-4,94	-3,436
3056,325	-5,44	-3,44
3058,448	-5,2	-3,427
3060,578	-5,14	-3,412
3062,708	-4,88	-3,427
3064,826	-5	-3,41
3066,956	-5,2	-3,412
3069,08	-5	-3,402
3071,204	-4,36	-3,368
3073,334	-4,52	-3,361
3075,458	-4,4	-3,356
3077,581	-4,5	-3,373
3079,699	-3,92	-3,283
3081,835	-3,84	-3,255
3083,959	-3,6	-3,213
3086,083	-3,5	-3,206
3088,219	-3,22	-3,19
3090,343	-3,42	-3,176
3092,461	-3,24	-3,102
3094,596	-3,3	-3,112
3096,714	-3,16	-3,047
3098,844	-2,9	-3,006
3100,98	-2,84	-2,958
3103,098	-2,6	-2,862
3105,216	-2,4	-2,77
3107,346	-2,28	-2,756
3109,47	-2,62	-2,824
3111,593	-2,42	-2,757
3113,717	-2,32	-2,745
3115,853	-2,32	-2,722
3117,983	-2,18	-2,697
3120,101	-1,92	-2,563
3122,243	-2,12	-2,672
3124,367	-1,94	-2,595
3126,485	-1,8	-2,515
3128,614	-2,06	-2,585
3130,732	-1,82	-2,431
3132,868	-1,8	-2,42
3134,998	-1,72	-2,415
3137,116	-1,72	-2,405
3139,246	-1,78	-2,516
3141,376	-1,78	-2,46
3143,494	-1,74	-2,417
3145,624	-1,84	-2,519
3147,747	-2	-2,532
3149,871	-1,98	-2,52
3152,001	-1,9	-2,548
3154,119	-1,96	-2,552
3156,243	-1,76	-2,497
3158,391	-1,98	-2,524
3160,509	-1,76	-2,497
3162,639	-1,92	-2,611
3164,762	-1,78	-2,545
3166,886	-1,94	-2,557
3169,016	-1,92	-2,628
3171,14	-2,04	-2,675
3173,264	-1,82	-2,582
3175,388	-1,76	-2,478
3177,512	-1,5	-2,343
3179,642	-1,36	-2,307
3181,765	-1,32	-2,176
3183,895	-1,2	-2,092
3185,587	2,46	0