File: Cycling_tests/_newS/_1G40/entrada/_3.txt
Time (s)	Load (N)	Displacement (mm)
0	-0,08	-0,031
2,214	0,38	-0,355
4,374	0,54	-0,396
6,534	0,72	-0,301
8,693	0,88	-0,341
10,853	0,8	-0,403
13,013	0,82	-0,411
15,173	0,44	-0,504
17,333	0,06	-0,526
19,505	1,06	-0,499
21,665	0,84	-0,506
23,825	1,22	-0,509
25,984	1,32	-0,516
28,144	0,58	-0,546
30,31	-0,38	-0,663
32,476	-0,04	-0,706
34,642	-0,54	-0,738
36,814	-1,58	-0,896
38,974	-1,2	-0,871
41,14	-1,84	-0,952
43,306	-2,1	-1,075
45,471	-3,44	-1,166
47,631	-3,36	-1,206
49,803	-3,28	-1,256
51,975	-3,96	-1,378
54,141	-4,44	-1,414
56,301	-4,18	-1,428
58,46	-4,46	-1,403
60,626	-5,04	-1,478
62,786	-5,32	-1,486
64,946	-5,26	-1,494
67,112	-5,52	-1,59
69,272	-5,2	-1,581
71,438	-5,44	-1,588
73,604	-5,42	-1,641
75,77	-5,96	-1,689
77,936	-5,86	-1,764
80,101	-6,34	-1,807
82,267	-6,38	-1,808
84,427	-6,7	-1,783
86,587	-6,5	-1,775
88,747	-6,62	-1,755
90,907	-6,46	-1,763
93,079	-6,72	-1,895
95,238	-7,08	-1,923
97,41	-7,62	-1,98
99,582	-7,12	-2,032
101,754	-8,44	-2,116
103,932	-8,58	-2,154
106,104	-8,56	-2,158
108,276	-9,48	-2,28
110,436	-9,8	-2,355
112,608	-11,02	-2,45
114,773	-10,84	-2,488
116,939	-11,52	-2,578
119,105	-13,18	-2,748
121,271	-12,88	-2,813
123,443	-14,82	-2,94
125,603	-13,9	-2,872
127,769	-14,32	-2,904
129,935	-15,08	-3,07
132,094	-15,32	-3,045
134,266	-16,14	-3,14
136,438	-16,54	-3,221
138,604	-17,56	-3,279
140,776	-16,86	-3,296
142,948	-18,64	-3,351
145,114	-18,38	-3,365
147,273	-18,4	-3,38
149,439	-17,8	-3,385
151,605	-20	-3,429
153,783	-20,96	-3,462
155,943	-20,9	-3,463
158,115	-21,02	-3,478
160,287	-21,2	-3,485
162,447	-21,26	-3,486
164,618	-21,24	-3,49
166,784	-21,36	-3,492
168,944	-21,34	-3,493
171,122	-21,38	-3,496
173,288	-21,34	-3,497
175,454	-21,36	-3,498
177,614	-21,34	-3,498
179,786	-21,32	-3,498
181,951	-21,3	-3,498
184,117	-21,3	-3,498
186,289	-21,26	-3,498
188,449	-21,26	-3,498
190,621	-21,24	-3,499
192,787	-21,26	-3,499
194,953	-21,22	-3,499
197,119	-21,18	-3,499
199,291	-21,16	-3,5
201,456	-21,12	-3,451
203,616	-21,08	-3,343
205,794	-21,04	-3,241
207,954	-20,96	-3,196
210,114	-20,38	-3,111
212,292	-19,44	-2,981
214,464	-17,62	-2,903
216,623	-17,34	-2,853
218,783	-16,4	-2,792
220,955	-18,1	-2,681
223,127	-15,08	-2,566
225,293	-14,52	-2,524
227,459	-13,18	-2,41
229,619	-12,6	-2,382
231,785	-12,24	-2,281
233,956	-10,6	-2,16
236,116	-10,7	-2,148
238,276	-11,02	-2,151
240,454	-9,62	-2,037
242,62	-9,42	-1,935
244,78	-8,48	-1,859
246,946	-8,64	-1,81
249,118	-7,66	-1,764
251,29	-8,12	-1,718
253,449	-7,36	-1,657
255,621	-6,44	-1,541
257,799	-6,18	-1,46
259,959	-5,66	-1,458
262,125	-5,52	-1,356
264,303	-4,5	-1,264
266,469	-4,62	-1,227
268,628	-4,08	-1,182
270,8	-3,3	-1,05
272,972	-2,4	-0,988
275,144	-2,18	-0,862
277,316	-1,5	-0,758
279,482	-1,16	-0,709
281,654	-0,42	-0,583
283,82	0	-0,525
285,979	-0,22	-0,533
288,151	-0,12	-0,529
290,323	0,74	-0,36
292,501	1,34	-0,236
294,661	1,62	-0,232
296,833	2,28	-0,159
299,005	2,7	-0,118
301,177	3,12	-0,09
303,354	3,68	-0,062
305,514	3,58	-0,065
307,68	3,58	-0,055
309,852	3,8	-0,054
312,024	3,7	-0,046
314,202	4	-0,032
316,368	3,98	-0,028
318,54	4,06	-0,023
320,717	4,18	-0,016
322,883	4,22	-0,012
325,05	4,28	-0,009
327,221	4,28	-0,008
329,393	4,28	-0,006
331,559	4,3	-0,007
333,725	4,3	-0,007
335,885	4,3	-0,007
338,057	4,26	-0,008
340,228	4,32	-0,005
342,4	4,32	-0,004
344,572	4,34	-0,003
346,744	4,34	-0,003
348,904	4,34	-0,002
351,076	4,34	-0,001
353,248	4,32	-0,001
355,42	4,34	-0,001
357,591	4,32	-0,001
359,757	4,32	0
361,929	4,3	0
364,101	4,32	0
366,273	4,3	-0,09
368,433	4,3	-0,084
370,611	3,78	-0,288
372,783	3,92	-0,399
374,954	2,4	-0,558
377,126	2,18	-0,609
379,298	2,18	-0,677
381,47	1,34	-0,728
383,63	1,26	-0,768
385,802	0,82	-0,873
387,98	0,5	-0,938
390,152	-0,44	-1,075
392,323	-1,66	-1,205
394,501	-2,06	-1,379
396,661	-2,52	-1,418
398,833	-3,36	-1,555
400,993	-3,66	-1,578
403,171	-4,8	-1,787
405,343	-5	-1,844
407,521	-5,48	-1,953
409,692	-6	-2,062
411,864	-7,34	-2,173
414,042	-8,08	-2,33
416,214	-8,66	-2,402
418,386	-9,74	-2,475
420,552	-9,4	-2,496
422,718	-9,72	-2,598
424,89	-11,3	-2,724
427,061	-11,42	-2,834
429,233	-12,84	-2,928
431,405	-13,78	-3,032
433,577	-13,8	-3,133
435,749	-15,96	-3,276
437,921	-15,54	-3,306
440,093	-16,48	-3,323
442,265	-17,7	-3,382
444,43	-17,74	-3,403
446,602	-18,78	-3,422
448,78	-17,98	-3,444
450,946	-19,42	-3,457
453,118	-19,34	-3,467
455,296	-19,8	-3,48
457,468	-19,9	-3,484
459,64	-19,92	-3,49
461,811	-20,02	-3,492
463,977	-20,02	-3,494
466,155	-20,04	-3,495
468,339	-20,04	-3,497
470,517	-20,04	-3,498
472,689	-20,02	-3,498
474,861	-20	-3,498
477,033	-19,98	-3,499
479,205	-19,96	-3,499
481,37	-19,94	-3,499
483,548	-19,92	-3,498
485,726	-19,9	-3,388
487,898	-19,88	-3,29
490,07	-19,7	-3,182
492,242	-19,14	-3,098
494,414	-18,58	-3,04
496,585	-17,46	-2,951
498,751	-17,56	-2,871
500,923	-16,02	-2,83
503,101	-14,08	-2,679
505,273	-13,9	-2,564
507,439	-12,96	-2,494
509,623	-11,3	-2,335
511,789	-11,48	-2,292
513,972	-10,54	-2,206
516,144	-9,5	-2,075
518,31	-8,68	-1,99
520,476	-8,34	-1,883
522,648	-7,8	-1,826
524,82	-6,56	-1,738
526,986	-6,5	-1,668
529,158	-5,02	-1,531
531,335	-4,06	-1,339
533,507	-3,8	-1,281
535,679	-3,04	-1,165
537,857	-2,12	-1,052
540,035	-2,12	-0,929
542,207	-1,38	-0,796
544,379	-0,3	-0,691
546,551	0,1	-0,571
548,722	0,42	-0,53
550,9	0,92	-0,48
553,072	0,76	-0,413
555,244	1,56	-0,273
557,422	2,9	-0,152
559,594	3,44	-0,096
561,766	3,84	-0,073
563,938	4,3	-0,052
566,11	4,2	-0,046
568,287	4,38	-0,031
570,465	4,56	-0,025
572,637	4,64	-0,019
574,809	4,72	-0,013
576,987	4,74	-0,009
579,171	4,78	-0,004
581,343	4,78	-0,003
583,514	4,78	-0,002
585,686	4,78	-0,002
587,864	4,76	-0,001
590,036	4,74	-0,001
592,214	4,74	0
594,38	4,72	-0,031
596,552	4,72	-0,137
598,724	4,68	-0,259
600,895	4,32	-0,307
603,067	4,34	-0,37
605,245	3,62	-0,527
607,417	1,94	-0,675
609,595	1,22	-0,836
611,767	1,44	-0,893
613,939	0,36	-0,961
616,105	0,56	-0,998
618,27	0	-0,998
620,448	0,3	-1,096
622,614	-0,92	-1,16
624,786	-0,92	-1,181
626,958	-1,38	-1,268
629,13	-2,34	-1,363
631,302	-2,28	-1,485
633,474	-2,9	-1,508
635,646	-2,86	-1,608
637,817	-4,44	-1,788
639,995	-4,98	-1,938
642,167	-4,92	-1,947
644,333	-5,16	-1,953
646,511	-5,76	-1,998
648,701	-5,82	-2,112
650,879	-6,76	-2,205
653,051	-6,74	-2,204
655,216	-6,4	-2,135
657,394	-6,04	-2,111
659,572	-7	-2,197
661,75	-7,26	-2,278
663,928	-8,6	-2,419
666,106	-8,58	-2,548
668,278	-7,96	-2,578
670,456	-9,68	-2,65
672,627	-10,42	-2,665
674,805	-10,24	-2,762
676,977	-11,84	-2,903
679,155	-12,08	-2,953
681,339	-12,94	-3,038
683,511	-14,18	-3,186
685,677	-14,46	-3,212
687,849	-14,82	-3,243
690,026	-15,72	-3,328
692,192	-13,24	-3,326
694,37	-15,6	-3,344
696,542	-16,08	-3,362
698,726	-16,74	-3,373
700,904	-15,8	-3,39
703,076	-16,86	-3,398
705,254	-16,78	-3,409
707,419	-16,92	-3,402
709,591	-16,96	-3,411
711,763	-16,16	-3,387
713,935	-15,72	-3,331
716,107	-16,5	-3,372
718,273	-16,2	-3,354
720,445	-16,92	-3,389
722,623	-16,96	-3,406
724,794	-17,64	-3,428
726,966	-18,52	-3,449
729,138	-18,28	-3,457
731,31	-18,56	-3,455
733,488	-18,9	-3,473
735,654	-19,02	-3,477
737,826	-19,16	-3,484
740,004	-19,14	-3,486
742,175	-19,18	-3,488
744,359	-19,12	-3,489
746,531	-19,26	-3,491
748,709	-19,24	-3,492
750,881	-19,22	-3,494
753,053	-19,26	-3,494
755,219	-19,28	-3,495
757,391	-19,28	-3,495
759,568	-19,26	-3,494
761,74	-19,22	-3,493
763,918	-19,28	-3,496
766,102	-19,3	-3,497
768,274	-19,28	-3,496
770,452	-19,26	-3,496
772,624	-19,28	-3,496
774,796	-19,24	-3,495
776,973	-19,22	-3,495
779,145	-19,24	-3,495
781,323	-19,24	-3,496
783,495	-19,24	-3,497
785,673	-19,24	-3,497
787,851	-19,24	-3,497
790,035	-19,22	-3,498
792,207	-19,22	-3,498
794,379	-19,22	-3,498
796,55	-19,2	-3,498
798,722	-19,18	-3,498
800,9	-19,2	-3,498
803,078	-19,18	-3,499
805,256	-19,16	-3,498
807,434	-19,16	-3,499
809,606	-19,14	-3,499
811,783	-19,12	-3,5
813,961	-19,12	-3,499
816,139	-19,12	-3,5
818,323	-19,1	-3,5
820,489	-19,1	-3,5
822,667	-19,06	-3,408
824,839	-19,04	-3,332
827,023	-19,04	-3,193
829,2	-17,9	-3,084
831,372	-17,54	-3,026
833,55	-16,78	-2,917
835,722	-14,68	-2,802
837,9	-13,6	-2,656
840,072	-13,8	-2,563
842,244	-12,04	-2,469
844,422	-10,78	-2,376
846,599	-10,14	-2,274
848,771	-10,96	-2,349
850,931	-10,72	-2,278
853,109	-10,24	-2,283
855,281	-9,8	-2,235
857,447	-10,54	-2,255
859,619	-8,98	-2,146
861,791	-9,42	-2,073
863,968	-7,36	-1,88
866,152	-6,7	-1,741
868,33	-7,54	-1,606
870,508	-4,72	-1,466
872,686	-3,32	-1,284
874,87	-3,04	-1,178
877,054	-1,76	-0,974
879,22	-1,48	-0,949
881,403	-0,98	-0,88
883,581	-0,62	-0,84
885,759	-0,62	-0,817
887,937	-0,36	-0,751
890,115	0,46	-0,649
892,293	-0,1	-0,63
894,465	0,24	-0,643
896,637	-0,02	-0,691
898,814	0,62	-0,615
900,992	0,14	-0,576
903,158	0,9	-0,549
905,33	0,62	-0,556
907,514	1,2	-0,493
909,698	1,32	-0,407
911,882	2,44	-0,238
914,066	2,28	-0,219
916,243	3	-0,175
918,421	3,36	-0,127
920,599	3,92	-0,1
922,771	4,26	-0,078
924,949	4,56	-0,049
927,115	4,72	-0,042
929,287	4,72	-0,04
931,459	4,88	-0,033
933,649	4,84	-0,021
935,82	5,02	-0,016
937,998	5,12	-0,012
940,17	5,14	-0,01
942,348	5,14	-0,006
944,52	5,14	-0,004
946,698	5,14	-0,002
948,882	5,14	-0,002
951,053	5,14	-0,001
953,231	5,14	-0,001
955,403	5,14	-0,001
957,587	5,12	-0,001
959,765	5,1	0
961,943	5,1	-0,022
964,127	5,1	-0,152
966,299	5,08	-0,238
968,471	4,86	-0,254
970,642	4,88	-0,355
972,814	4,42	-0,417
974,986	4,56	-0,4
977,164	4,42	-0,466
979,342	3,6	-0,601
981,52	2,62	-0,667
983,692	2,44	-0,697
985,864	2,96	-0,728
988,035	2,26	-0,742
990,201	2,66	-0,798
992,373	1,88	-0,789
994,551	1,28	-0,833
996,723	2,22	-0,805
998,895	1,78	-0,799
1001,073	1,96	-0,79
1003,257	1,3	-0,88
1005,434	1	-0,967
1007,612	0,48	-0,991
1009,79	0,92	-1,057
1011,956	0,06	-1,072
1014,134	0,1	-1,085
1016,306	-0,7	-1,157
1018,472	-0,18	-1,163
1020,649	-0,98	-1,272
1022,827	-1,48	-1,311
1025,005	-1,76	-1,382
1027,177	-2,24	-1,507
1029,349	-2,32	-1,532
1031,527	-2,52	-1,582
1033,699	-2,84	-1,672
1035,871	-3,12	-1,717
1038,042	-3,08	-1,711
1040,22	-3,6	-1,841
1042,398	-4,18	-1,895
1044,57	-4,22	-1,894
1046,742	-4,4	-1,936
1048,92	-5,1	-2,128
1051,098	-5,68	-2,167
1053,276	-5,96	-2,249
1055,448	-6,6	-2,263
1057,619	-5,94	-2,257
1059,797	-6,58	-2,312
1061,969	-6,3	-2,262
1064,153	-7,02	-2,364
1066,325	-7,38	-2,41
1068,491	-7,76	-2,458
1070,663	-8,04	-2,498
1072,829	-8,22	-2,522
1075	-7,82	-2,567
1077,172	-8	-2,512
1079,35	-8,28	-2,577
1081,516	-7,82	-2,493
1083,688	-8,34	-2,576
1085,866	-7,96	-2,573
1088,038	-8,5	-2,651
1090,204	-8,1	-2,583
1092,369	-7,8	-2,504
1094,553	-8,38	-2,572
1096,725	-8,66	-2,608
1098,885	-8,38	-2,536
1101,063	-8,62	-2,596
1103,241	-7,7	-2,62
1105,419	-8,76	-2,722
1107,603	-10,2	-2,807
1109,786	-10,16	-2,867
1111,952	-9,88	-2,819
1114,13	-10,2	-2,89
1116,302	-9,18	-2,877
1118,474	-9,46	-2,828
1120,646	-9,98	-2,837
1122,818	-9,76	-2,836
1124,989	-9,44	-2,797
1127,161	-9,78	-2,87
1129,339	-10,72	-2,934
1131,511	-10,16	-2,896
1133,683	-10,56	-2,948
1135,861	-11,02	-2,961
1138,039	-10,72	-2,962
1140,211	-9,46	-2,913
1142,389	-10,06	-2,947
1144,566	-10,18	-2,922
1146,744	-10,08	-2,972
1148,928	-10,42	-2,978
1151,112	-10,6	-3,062
1153,284	-11,3	-3,108
1155,462	-11,04	-3,073
1157,652	-12,1	-3,229
1159,824	-11,68	-3,208
1162,001	-12,62	-3,255
1164,179	-12,86	-3,294
1166,363	-14,28	-3,374
1168,535	-13,54	-3,378
1170,719	-14,9	-3,401
1172,897	-15,32	-3,414
1175,075	-14,52	-3,415
1177,241	-14,64	-3,389
1179,412	-13,84	-3,383
1181,59	-13,3	-3,382
1183,768	-14,2	-3,4
1185,94	-14,82	-3,407
1188,124	-14,98	-3,43
1190,296	-15,06	-3,416
1192,474	-14,64	-3,43
1194,64	-15,04	-3,445
1196,817	-15,3	-3,444
1198,989	-14,78	-3,446
1201,167	-15,26	-3,452
1203,339	-15,76	-3,466
1205,505	-15,54	-3,465
1207,677	-15,4	-3,463
1209,849	-15,36	-3,466
1212,033	-15,82	-3,475
1214,21	-15,8	-3,48
1216,388	-15,76	-3,482
1218,56	-15,84	-3,483
1220,738	-15,74	-3,481
1222,91	-15,78	-3,486
1225,094	-15,86	-3,49
1227,266	-15,8	-3,493
1229,45	-15,78	-3,495
1231,627	-15,76	-3,496
1233,799	-15,7	-3,496
1235,977	-15,7	-3,497
1238,143	-15,66	-3,498
1240,315	-15,6	-3,498
1242,493	-15,54	-3,499
1244,665	-15,5	-3,499
1246,837	-15,46	-3,499
1249,02	-15,42	-3,5
1251,186	-15,4	-3,457
1253,358	-15,34	-3,295
1255,53	-14,92	-3,232
1257,696	-14,82	-3,155
1259,868	-14,32	-3,06
1262,046	-12,52	-2,904
1264,218	-11,54	-2,793
1266,395	-10,68	-2,744
1268,567	-11,56	-2,734
1270,739	-10,04	-2,629
1272,911	-9,76	-2,573
1275,083	-8,68	-2,435
1277,255	-7,42	-2,336
1279,427	-7,58	-2,253
1281,605	-7,38	-2,17
1283,782	-5,9	-2,02
1285,954	-5,02	-1,963
1288,132	-4,22	-1,86
1290,304	-4,38	-1,792
1292,482	-3,34	-1,653
1294,66	-2,96	-1,55
1296,838	-2,48	-1,509
1299,01	-1,82	-1,368
1301,182	-1,22	-1,21
1303,353	-0,6	-1,058
1305,525	-0,26	-0,948
1307,703	0,32	-0,776
1309,875	0,94	-0,698
1312,053	2,06	-0,468
1314,225	2,4	-0,285
1316,391	3,18	-0,228
1318,568	3,34	-0,188
1320,752	4,28	-0,096
1322,924	4,44	-0,058
1325,102	4,88	-0,038
1327,274	5,16	-0,021
1329,44	5,14	-0,016
1331,612	5,24	-0,013
1333,784	5,24	-0,01
1335,961	5,26	-0,006
1338,133	5,26	-0,003
1340,305	5,26	-0,002
1342,477	5,24	-0,001
1344,649	5,22	0
1346,821	5,22	-0,026
1348,993	5,2	-0,132
1351,159	5,2	-0,194
1353,336	4,86	-0,308
1355,514	4,5	-0,438
1357,692	3,74	-0,573
1359,864	2,48	-0,684
1362,036	2,1	-0,794
1364,214	0,94	-1,008
1366,386	-0,5	-1,214
1368,558	-0,58	-1,356
1370,724	-1,52	-1,473
1372,901	-1,98	-1,613
1375,073	-2,78	-1,75
1377,251	-3,28	-1,922
1379,435	-3,66	-2,082
1381,601	-4,1	-2,162
1383,779	-4,56	-2,222
1385,957	-4,56	-2,252
1388,135	-5,5	-2,412
1390,318	-6,22	-2,54
1392,49	-6,5	-2,596
1394,668	-6,96	-2,637
1396,858	-7,78	-2,883
1399,036	-7,78	-2,939
1401,208	-9,1	-3,066
1403,374	-9,88	-3,187
1405,557	-10,46	-3,323
1407,729	-12,34	-3,397
1409,907	-13,42	-3,44
1412,079	-13,24	-3,453
1414,257	-13,62	-3,464
1416,423	-13,94	-3,471
1418,595	-13,82	-3,478
1420,779	-14,08	-3,487
1422,95	-14,14	-3,49
1425,128	-14,12	-3,492
1427,306	-14,12	-3,493
1429,484	-14,14	-3,496
1431,668	-14,14	-3,497
1433,846	-14,12	-3,498
1436,012	-14,02	-3,498
1438,196	-13,98	-3,498
1440,368	-13,96	-3,499
1442,545	-13,9	-3,499
1444,723	-13,86	-3,5
1446,889	-13,86	-3,451
1449,073	-13,8	-3,275
1451,245	-12,72	-3,125
1453,417	-12,98	-3,041
1455,595	-12,32	-3,001
1457,761	-12,14	-3,007
1459,938	-10,6	-2,894
1462,116	-9,98	-2,749
1464,3	-8,38	-2,588
1466,478	-6,82	-2,405
1468,65	-6,92	-2,28
1470,828	-5,22	-2,08
1473,006	-4,14	-1,935
1475,178	-3,66	-1,825
1477,349	-3,38	-1,736
1479,527	-2,68	-1,639
1481,705	-2,04	-1,462
1483,883	-1,4	-1,348
1486,061	-0,9	-1,266
1488,227	-0,9	-1,191
1490,405	-0,38	-1,105
1492,583	-0,7	-1,156
1494,76	-0,16	-1,054
1496,938	-0,04	-0,987
1499,104	0,12	-0,95
1501,288	0,52	-0,844
1503,46	0,82	-0,743
1505,65	1,52	-0,544
1507,822	1,98	-0,465
1510	2,3	-0,384
1512,177	3,12	-0,238
1514,361	3,38	-0,159
1516,533	3,66	-0,121
1518,699	4,2	-0,103
1520,871	3,66	-0,118
1523,049	4,26	-0,083
1525,221	4,34	-0,078
1527,399	4,72	-0,058
1529,582	4,8	-0,049
1531,748	4,82	-0,037
1533,932	5,06	-0,021
1536,116	5,16	-0,015
1538,3	5,18	-0,012
1540,466	5,18	-0,014
1542,638	5,18	-0,012
1544,816	5,22	-0,009
1546,993	5,22	-0,007
1549,177	5,24	-0,004
1551,343	5,24	-0,003
1553,515	5,24	-0,003
1555,693	5,22	-0,002
1557,883	5,22	-0,003
1560,049	5,24	-0,002
1562,227	5,24	-0,002
1564,398	5,22	-0,002
1566,57	5,22	-0,002
1568,742	5,22	-0,001
1570,92	5,22	-0,001
1573,092	5,22	-0,001
1575,276	5,2	-0,001
1577,454	5,2	-0,001
1579,62	5,22	-0,001
1581,797	5,18	-0,001
1583,969	5,2	-0,001
1586,141	5,18	0
1588,319	5,16	0
1590,491	5,16	0
1592,669	5,16	0
1594,847	5,16	-0,113
1597,037	5,14	-0,237
1599,202	5,14	-0,205
1601,38	4,74	-0,278
1603,552	5,14	-0,216
1605,724	4,92	-0,329
1607,896	4,48	-0,447
1610,062	4,44	-0,425
1612,234	4,12	-0,465
1614,406	4,5	-0,458
1616,577	4,04	-0,494
1618,755	2,72	-0,656
1620,933	2,9	-0,7
1623,105	2,76	-0,726
1625,283	2,52	-0,738
1627,449	2,18	-0,76
1629,627	1,54	-0,831
1631,799	1,74	-0,851
1633,97	1,82	-0,843
1636,148	1,82	-0,797
1638,32	1,62	-0,871
1640,498	1,52	-0,916
1642,67	1,02	-0,961
1644,848	0,46	-1,017
1647,014	0,5	-1,085
1649,186	0,2	-1,074
1651,363	0,24	-1,161
1653,547	-0,42	-1,267
1655,713	-0,28	-1,246
1657,897	-0,18	-1,321
1660,075	-0,4	-1,317
1662,253	-1	-1,43
1664,425	-1,22	-1,424
1666,597	-0,82	-1,444
1668,774	-1,2	-1,493
1670,946	-1,6	-1,546
1673,118	-1,38	-1,591
1675,29	-1,58	-1,579
1677,468	-1,76	-1,64
1679,64	-1,56	-1,643
1681,818	-1,92	-1,709
1683,99	-2,12	-1,744
1686,167	-2,74	-1,885
1688,345	-2,8	-1,94
1690,511	-2,82	-1,946
1692,677	-2,84	-1,962
1694,861	-2,64	-1,988
1697,033	-3,36	-2,094
1699,217	-3,9	-2,221
1701,395	-3,94	-2,276
1703,56	-4,64	-2,405
1705,738	-4,38	-2,363
1707,91	-4,76	-2,448
1710,094	-5,2	-2,537
1712,26	-4,88	-2,585
1714,432	-5,02	-2,53
1716,61	-5,46	-2,586
1718,782	-5,96	-2,622
1720,959	-5,3	-2,634
1723,131	-5,46	-2,601
1725,315	-5,3	-2,654
1727,487	-5,62	-2,632
1729,665	-6,02	-2,681
1731,837	-5,34	-2,642
1734,015	-5,6	-2,659
1736,187	-6,28	-2,732
1738,359	-5,76	-2,726
1740,536	-6,1	-2,76
1742,708	-6,66	-2,806
1744,88	-6,42	-2,766
1747,052	-6,64	-2,846
1749,224	-6,84	-2,886
1751,396	-6,9	-2,938
1753,574	-7,64	-3,03
1755,734	-7,06	-2,98
1757,905	-7,66	-3,026
1760,083	-8,28	-3,092
1762,261	-8,3	-3,141
1764,433	-8,44	-3,198
1766,611	-8,3	-3,234
1768,789	-9,64	-3,305
1770,967	-9,94	-3,348
1773,138	-9,68	-3,288
1775,31	-9,16	-3,26
1777,482	-9,48	-3,293
1779,66	-8,14	-3,257
1781,832	-9	-3,296
1784,01	-9,4	-3,31
1786,182	-8,98	-3,29
1788,366	-10,08	-3,333
1790,538	-10,24	-3,351
1792,721	-10,06	-3,378
1794,893	-9,66	-3,362
1797,071	-9,6	-3,338
1799,237	-9,66	-3,343
1801,409	-8,96	-3,288
1803,581	-8,98	-3,24
1805,765	-9,04	-3,314
1807,931	-8,86	-3,284
1810,102	-9,38	-3,29
1812,28	-9,38	-3,314
1814,458	-10,04	-3,343
1816,624	-10,06	-3,346
1818,802	-9,56	-3,354
1820,986	-10,56	-3,402
1823,164	-11,14	-3,42
1825,342	-11,74	-3,444
1827,519	-12	-3,464
1829,691	-11,92	-3,473
1831,875	-12,36	-3,48
1834,047	-12,3	-3,484
1836,231	-12,38	-3,488
1838,421	-12,44	-3,491
1840,581	-12,44	-3,492
1842,765	-12,46	-3,494
1844,936	-12,46	-3,495
1847,102	-12,46	-3,495
1849,28	-12,44	-3,496
1851,458	-12,46	-3,496
1853,636	-12,44	-3,497
1855,82	-12,44	-3,497
1857,986	-12,44	-3,498
1860,164	-12,46	-3,497
1862,353	-12,42	-3,498
1864,531	-12,42	-3,498
1866,703	-12,4	-3,499
1868,887	-12,4	-3,499
1871,053	-12,38	-3,499
1873,231	-12,36	-3,499
1875,409	-12,36	-3,499
1877,581	-12,34	-3,499
1879,752	-12,32	-3,499
1881,924	-12,32	-3,5
1884,108	-12,32	-3,498
1886,292	-12,3	-3,483
1888,458	-12,28	-3,296
1890,642	-12,18	-3,186
1892,826	-11,84	-3,132
1895,004	-10,6	-3,007
1897,187	-9,86	-2,916
1899,359	-10,04	-2,929
1901,543	-7,9	-2,663
1903,721	-7,3	-2,612
1905,893	-7,7	-2,646
1908,065	-8	-2,664
1910,249	-7,64	-2,519
1912,421	-6,86	-2,499
1914,586	-6,54	-2,446
1916,77	-6,78	-2,398
1918,948	-5,64	-2,376
1921,126	-5,72	-2,335
1923,298	-4,8	-2,186
1925,476	-4,66	-2,165
1927,648	-4,26	-2,157
1929,826	-4,32	-2,096
1931,997	-4,12	-2,05
1934,175	-3,74	-2,016
1936,353	-3,16	-1,924
1938,525	-3,4	-1,857
1940,703	-2,6	-1,711
1942,881	-2,18	-1,65
1945,053	-1,94	-1,573
1947,225	-1,66	-1,463
1949,39	-1,18	-1,425
1951,574	-1,1	-1,286
1953,752	-1,2	-1,274
1955,924	-0,42	-1,11
1958,096	0,38	-0,91
1960,268	0,26	-0,827
1962,44	0,48	-0,834
1964,606	0,22	-0,904
1966,783	0,4	-0,81
1968,961	0,72	-0,745
1971,133	1,42	-0,597
1973,305	1,68	-0,509
1975,471	1,48	-0,466
1977,655	2,32	-0,339
1979,827	2,46	-0,287
1982,005	2,92	-0,225
1984,182	2,74	-0,209
1986,348	3,14	-0,196
1988,52	2,96	-0,156
1990,692	3,6	-0,12
1992,864	3,7	-0,135
1995,036	3,38	-0,124
1997,214	4	-0,083
1999,386	4,36	-0,073
2001,563	4,38	-0,06
2003,735	4,54	-0,042
2005,907	4,76	-0,033
2008,079	4,84	-0,023
2010,257	4,92	-0,014
2012,435	4,98	-0,01
2014,613	5,02	-0,006
2016,785	5,04	-0,005
2018,95	5,04	-0,004
2021,128	5,04	-0,003
2023,3	5,02	-0,002
2025,472	5,02	-0,002
2027,656	5,02	-0,001
2029,834	5,02	-0,001
2032,012	5	-0,001
2034,184	4,98	0
2036,355	4,98	0
2038,533	4,96	-0,005
2040,699	4,98	-0,052
2042,865	4,96	-0,147
2045,037	4,96	-0,175
2047,215	4,94	-0,232
2049,387	4,42	-0,355
2051,559	4,1	-0,481
2053,743	3	-0,556
2055,92	2,56	-0,676
2058,092	1,94	-0,802
2060,264	0,7	-0,986
2062,436	0,68	-1,102
2064,608	0,22	-1,143
2066,78	-0,42	-1,262
2068,952	-0,1	-1,315
2071,123	-0,52	-1,351
2073,289	-0,6	-1,398
2075,467	-0,94	-1,443
2077,651	-0,92	-1,533
2079,817	-1,1	-1,571
2081,995	-1,56	-1,691
2084,173	-1,62	-1,761
2086,351	-1,86	-1,816
2088,516	-1,96	-1,849
2090,694	-2,42	-2,037
2092,872	-2,72	-2,102
2095,038	-3,46	-2,229
2097,222	-3,6	-2,325
2099,4	-3,74	-2,332
2101,566	-4,2	-2,455
2103,738	-4,3	-2,491
2105,909	-4,36	-2,543
2108,081	-5,04	-2,642
2110,253	-4,82	-2,721
2112,431	-5,18	-2,759
2114,603	-5,6	-2,78
2116,775	-5,22	-2,826
2118,953	-5,62	-2,87
2121,137	-6,9	-3,024
2123,314	-6,8	-3,079
2125,486	-7,5	-3,215
2127,664	-8,08	-3,269
2129,842	-8,48	-3,295
2132,014	-7,52	-3,272
2134,192	-8,14	-3,318
2136,37	-8,9	-3,362
2138,536	-9,38	-3,357
2140,708	-8,68	-3,359
2142,879	-9,74	-3,401
2145,051	-9,86	-3,417
2147,235	-10,22	-3,432
2149,407	-10,16	-3,435
2151,579	-10,68	-3,451
2153,751	-10,36	-3,457
2155,935	-10,88	-3,466
2158,112	-10,68	-3,472
2160,29	-10,9	-3,478
2162,456	-11,06	-3,479
2164,628	-11,08	-3,483
2166,806	-11,04	-3,485
2168,978	-11,14	-3,487
2171,156	-11,24	-3,494
2173,328	-11,22	-3,496
2175,5	-11,22	-3,497
2177,665	-11,22	-3,498
2179,837	-11,2	-3,498
2182,009	-11,2	-3,498
2184,187	-11,16	-3,499
2186,359	-11,16	-3,499
2188,537	-11,12	-3,5
2190,715	-11,1	-3,494
2192,887	-11,08	-3,414
2195,052	-11,06	-3,371
2197,224	-11,04	-3,218
2199,408	-10,68	-3,046
2201,574	-10,18	-2,966
2203,758	-8,52	-2,897
2205,936	-6,98	-2,709
2208,102	-6,3	-2,602
2210,28	-5,26	-2,445
2212,451	-4,44	-2,272
2214,635	-3,66	-2,108
2216,801	-3,28	-2,022
2218,979	-2,92	-1,882
2221,163	-2,02	-1,643
2223,341	-1,4	-1,503
2225,513	-0,92	-1,409
2227,685	-0,92	-1,299
2229,868	-0,18	-1,048
2232,034	0,56	-0,867
2234,218	0,72	-0,692
2236,39	1,36	-0,576
2238,562	1,62	-0,447
2240,74	2,26	-0,29
2242,918	2,38	-0,222
2245,102	2,96	-0,148
2247,267	3,48	-0,131
2249,439	3,98	-0,075
2251,623	4,26	-0,042
2253,795	4,6	-0,026
2255,967	4,7	-0,021
2258,151	4,76	-0,013
2260,329	4,8	-0,007
2262,495	4,82	-0,006
2264,678	4,82	-0,004
2266,85	4,84	-0,002
2269,022	4,84	-0,001
2271,194	4,82	-0,001
2273,378	4,82	-0,001
2275,55	4,8	0
2277,74	4,78	-0,082
2279,924	4,76	-0,25
2282,095	4,54	-0,341
2284,267	3,48	-0,495
2286,445	3,02	-0,545
2288,617	2,7	-0,724
2290,789	1,68	-0,812
2292,961	1,36	-0,938
2295,139	0,3	-1,127
2297,311	0	-1,269
2299,494	-1,02	-1,604
2301,678	-1,32	-1,72
2303,85	-1,86	-1,857
2306,016	-1,86	-1,916
2308,188	-2,22	-1,989
2310,366	-2,58	-2,086
2312,532	-2,44	-2,108
2314,704	-2,9	-2,213
2316,882	-2,9	-2,268
2319,053	-3,4	-2,368
2321,231	-3,74	-2,508
2323,415	-4,18	-2,614
2325,599	-4,28	-2,736
2327,765	-5,02	-2,737
2329,949	-5,28	-2,87
2332,133	-6,34	-3,087
2334,31	-6,66	-3,226
2336,482	-7,16	-3,234
2338,66	-7,56	-3,328
2340,838	-8,28	-3,384
2343,01	-8,92	-3,392
2345,182	-9,24	-3,417
2347,354	-9,38	-3,436
2349,52	-9,24	-3,449
2351,703	-10,08	-3,466
2353,881	-10,26	-3,48
2356,053	-10,28	-3,485
2358,231	-10,36	-3,491
2360,409	-10,38	-3,493
2362,587	-10,42	-3,495
2364,759	-10,4	-3,496
2366,937	-10,4	-3,496
2369,114	-10,38	-3,497
2371,286	-10,38	-3,498
2373,464	-10,34	-3,498
2375,648	-10,32	-3,498
2377,82	-10,3	-3,499
2379,992	-10,3	-3,499
2382,164	-10,28	-3,499
2384,342	-10,28	-3,499
2386,519	-10,24	-3,5
2388,697	-10,24	-3,489
2390,863	-10,24	-3,406
2393,041	-10,22	-3,388
2395,219	-10,18	-3,321
2397,403	-10,16	-3,171
2399,575	-10,16	-3,13
2401,747	-8,96	-3,014
2403,924	-8,12	-2,948
2406,096	-8,22	-2,916
2408,268	-7,44	-2,881
2410,44	-7,2	-2,894
2412,612	-7,32	-2,794
2414,79	-6,48	-2,696
2416,962	-5,76	-2,634
2419,128	-5,82	-2,639
2421,299	-5,74	-2,604
2423,471	-5,92	-2,604
2425,637	-5,24	-2,567
2427,815	-5,28	-2,501
2429,993	-5,24	-2,44
2432,159	-4,58	-2,393
2434,337	-4,06	-2,321
2436,509	-4,16	-2,302
2438,698	-3,44	-2,192
2440,87	-3,64	-2,124
2443,042	-3,26	-2,095
2445,22	-2,94	-2,039
2447,386	-2,94	-2,028
2449,558	-2,5	-1,956
2451,736	-2,32	-1,921
2453,902	-2,74	-1,937
2456,085	-2,08	-1,729
2458,269	-1,66	-1,592
2460,435	-1,42	-1,596
2462,619	-1,16	-1,496
2464,797	-1,04	-1,467
2466,975	-0,9	-1,434
2469,141	-1,16	-1,491
2471,319	-0,76	-1,368
2473,502	-0,6	-1,288
2475,668	-0,7	-1,304
2477,846	-0,22	-1,142
2480,024	0	-1,06
2482,196	0,28	-0,992
2484,38	0,62	-0,839
2486,558	0,72	-0,816
2488,73	0,72	-0,759
2490,902	0,9	-0,723
2493,085	1,06	-0,643
2495,263	1,44	-0,519
2497,429	1,28	-0,544
2499,607	1,42	-0,5
2501,779	1,4	-0,474
2503,951	1,3	-0,466
2506,123	1,46	-0,441
2508,307	1,7	-0,34
2510,472	1,8	-0,388
2512,644	1,74	-0,34
2514,81	1,8	-0,304
2516,988	2,06	-0,242
2519,166	2,36	-0,193
2521,344	2,82	-0,139
2523,528	3,36	-0,087
2525,706	2,94	-0,068
2527,877	3,9	-0,063
2530,061	4,06	-0,048
2532,239	4,16	-0,044
2534,411	4,2	-0,044
2536,595	4,3	-0,035
2538,773	4,24	-0,03
2540,939	4,34	-0,029
2543,116	4,44	-0,022
2545,294	4,5	-0,018
2547,472	4,54	-0,014
2549,644	4,54	-0,012
2551,822	4,58	-0,01
2553,988	4,62	-0,005
2556,172	4,62	-0,003
2558,35	4,62	-0,003
2560,516	4,62	-0,003
2562,693	4,62	-0,002
2564,865	4,62	-0,002
2567,031	4,62	-0,002
2569,203	4,6	-0,001
2571,375	4,6	-0,001
2573,541	4,6	-0,001
2575,713	4,6	-0,001
2577,897	4,6	-0,001
2580,068	4,6	-0,001
2582,246	4,58	-0,001
2584,418	4,58	-0,001
2586,602	4,58	0
2588,774	4,58	0
2590,946	4,56	-0,006
2593,112	4,56	0
2595,29	4,56	-0,004
2597,473	4,56	-0,125
2599,645	4,22	-0,217
2601,823	4,54	-0,3
2604,001	4,3	-0,334
2606,173	4,22	-0,335
2608,345	3,88	-0,32
2610,535	3,46	-0,468
2612,719	3,12	-0,537
2614,884	2,82	-0,532
2617,062	3,18	-0,551
2619,234	3,46	-0,469
2621,4	3,86	-0,41
2623,578	3,46	-0,481
2625,756	3,14	-0,532
2627,928	2,52	-0,594
2630,1	2,52	-0,666
2632,277	2,14	-0,711
2634,449	2,46	-0,672
2636,633	1,9	-0,79
2638,811	1,46	-0,897
2640,983	0,82	-0,987
2643,167	0,9	-1,013
2645,351	0,66	-1,072
2647,523	0,68	-1,038
2649,694	0,66	-1,106
2651,872	0,34	-1,154
2654,044	0,38	-1,143
2656,216	0,32	-1,185
2658,388	0,08	-1,252
2660,56	0,08	-1,309
2662,732	-0,3	-1,409
2664,904	-0,94	-1,599
2667,069	-0,88	-1,652
2669,265	-1,58	-1,887
2671,443	-1,54	-1,847
2673,615	-1,44	-1,888
2675,793	-1,56	-1,922
2677,965	-1,78	-1,947
2680,131	-1,66	-1,926
2682,309	-1,62	-2,008
2684,48	-2,06	-2,038
2686,661	-2,18	-2,172
2688,83	-2,6	-2,262
2691,002	-2,8	-2,297
2693,18	-3,02	-2,352
2695,358	-3,04	-2,447
2697,53	-3,26	-2,481
2699,696	-3,26	-2,508
2701,873	-3,48	-2,557
2704,045	-4,14	-2,699
2706,217	-3,44	-2,745
2708,389	-4,28	-2,83
2710,573	-4,48	-2,897
2712,745	-5,06	-2,992
2714,911	-5,32	-3,083
2717,095	-5,56	-3,158
2719,26	-6,48	-3,264
2721,438	-7,14	-3,329
2723,616	-6,74	-3,338
2725,782	-7,32	-3,353
2727,966	-6,96	-3,376
2730,15	-8,5	-3,441
2732,316	-8,94	-3,463
2734,506	-9,14	-3,472
2736,683	-9,2	-3,475
2738,849	-9,12	-3,473
2741,027	-9,24	-3,478
2743,199	-9,3	-3,482
2745,371	-9,32	-3,486
2747,543	-9,38	-3,489
2749,721	-9,38	-3,492
2751,887	-9,4	-3,493
2754,058	-9,4	-3,493
2756,224	-9,4	-3,492
2758,402	-9,4	-3,495
2760,568	-9,42	-3,496
2762,74	-9,42	-3,496
2764,906	-9,42	-3,496
2767,084	-9,42	-3,497
2769,25	-9,4	-3,497
2771,433	-9,4	-3,498
2773,611	-9,38	-3,498
2775,789	-9,38	-3,499
2777,955	-9,38	-3,499
2780,133	-9,38	-3,499
2782,311	-9,36	-3,499
2784,483	-9,34	-3,5
2786,661	-9,34	-3,445
2788,826	-9,32	-3,35
2791,004	-9,32	-3,221
2793,182	-9	-3,171
2795,354	-8,18	-3,054
2797,538	-7,4	-2,962
2799,716	-6,38	-2,822
2801,882	-6,56	-2,814
2804,06	-6,04	-2,746
2806,237	-5,9	-2,642
2808,409	-5,46	-2,596
2810,587	-4,86	-2,493
2812,759	-4,32	-2,42
2814,931	-4	-2,289
2817,109	-2,88	-2,02
2819,281	-2,42	-1,927
2821,459	-2,08	-1,834
2823,636	-1,72	-1,742
2825,802	-1,5	-1,63
2827,974	-1,16	-1,553
2830,152	-0,7	-1,384
2832,324	-0,96	-1,43
2834,49	-0,7	-1,404
2836,674	-0,46	-1,296
2838,846	-0,54	-1,231
2841,023	-0,52	-1,269
2843,195	-0,26	-1,207
2845,367	-0,3	-1,161
2847,551	0,42	-0,932
2849,735	0,66	-0,81
2851,901	0,72	-0,75
2854,079	0,94	-0,659
2856,251	1,24	-0,585
2858,416	1	-0,625
2860,588	1,34	-0,554
2862,76	1,34	-0,493
2864,938	1,8	-0,348
2867,104	1,92	-0,275
2869,276	2,38	-0,208
2871,442	2,46	-0,162
2873,62	2,62	-0,163
2875,798	2,86	-0,109
2877,969	3,26	-0,092
2880,141	3,4	-0,068
2882,319	3,4	-0,072
2884,491	3,74	-0,058
2886,663	3,58	-0,057
2888,835	3,88	-0,044
2891,001	3,94	-0,038
2893,191	4,26	-0,02
2895,362	4,22	-0,018
2897,528	4,32	-0,015
2899,712	4,34	-0,013
2901,902	4,36	-0,009
2904,068	4,38	-0,008
2906,246	4,4	-0,005
2908,43	4,42	-0,004
2910,596	4,42	-0,004
2912,779	4,44	-0,002
2914,963	4,44	-0,002
2917,135	4,44	-0,001
2919,325	4,42	-0,001
2921,497	4,42	-0,001
2923,669	4,4	-0,001
2925,859	4,4	0
2928,025	4,38	-0,128
2930,202	4,38	-0,215
2932,38	4,36	-0,211
2934,546	4,36	-0,211
2936,724	3,9	-0,285
2938,896	3,68	-0,391
2941,068	3,26	-0,464
2943,24	3,9	-0,36
2945,418	3,32	-0,496
2947,583	2,96	-0,491
2949,761	2,64	-0,632
2951,939	2,08	-0,719
2954,111	1,74	-0,738
2956,283	0,98	-0,854
2958,461	0,98	-0,983
2960,627	0,46	-1,048
2962,805	0,08	-1,182
2964,976	0,22	-1,191
2967,154	0,08	-1,247
2969,332	0,06	-1,317
2971,498	-0,12	-1,397
2973,682	-0,6	-1,515
2975,854	-0,54	-1,694
2978,032	-1,02	-1,792
2980,198	-1,1	-1,834
2982,375	-1,32	-1,921
2984,541	-1,74	-2,018
2986,713	-1,82	-2,143
2988,897	-2,32	-2,324
2991,063	-2,64	-2,368
2993,241	-2,88	-2,438
2995,407	-2,8	-2,438
2997,585	-2,96	-2,472
2999,762	-3,4	-2,596
3001,928	-3,6	-2,688
3004,1	-3,94	-2,739
3006,29	-4,14	-2,843
3008,462	-4,4	-2,868
3010,634	-4,32	-2,904
3012,812	-4,78	-3,007
3014,984	-5,52	-3,133
3017,155	-5,56	-3,196
3019,321	-6,56	-3,301
3021,487	-5,2	-3,175
3023,659	-6,22	-3,243
3025,831	-6,08	-3,262
3028,003	-6,08	-3,301
3030,181	-7,2	-3,358
3032,347	-7,36	-3,386
3034,53	-7,96	-3,43
3036,702	-7,88	-3,438
3038,88	-7,34	-3,43
3041,052	-8,4	-3,458
3043,23	-8,54	-3,465
3045,396	-8,38	-3,47
3047,568	-8,72	-3,476
3049,746	-8,78	-3,481
3051,911	-8,8	-3,488
3054,083	-8,86	-3,49
3056,249	-8,88	-3,492
3058,421	-8,9	-3,493
3060,599	-8,92	-3,494
3062,765	-8,92	-3,495
3064,937	-8,92	-3,496
3067,115	-8,92	-3,497
3069,292	-8,92	-3,498
3071,47	-8,9	-3,498
3073,642	-8,9	-3,499
3075,82	-8,88	-3,499
3078,004	-8,88	-3,499
3080,17	-8,86	-3,499
3082,354	-8,86	-3,5
3084,526	-8,84	-3,496
3086,697	-8,82	-3,414
3088,869	-8,82	-3,339
3091,053	-8,68	-3,188
3093,231	-8,8	-3,127
3095,403	-8,52	-3,102
3097,575	-7,32	-3,06
3099,747	-7,7	-3,067
3101,931	-7,3	-2,881
3104,102	-6,7	-2,856
3106,274	-5,82	-2,852
3108,452	-5,74	-2,744
3110,618	-6,46	-2,638
3112,808	-4,42	-2,5
3114,968	-4,22	-2,456
3117,146	-3,62	-2,332
3119,33	-3,36	-2,242
3121,501	-3,16	-2,234
3123,679	-3,04	-2,21
3125,857	-2,64	-2,112
3128,023	-3,02	-2,116
3130,201	-2,96	-2,11
3132,379	-2,8	-2,08
3134,551	-3,14	-2,115
3136,729	-2,96	-2,075
3138,894	-2,78	-2,102
3141,078	-2,66	-1,948
3143,256	-2,18	-1,909
3145,422	-2,28	-1,919
3147,594	-2,28	-1,958
3149,76	-2,32	-1,952
3151,944	-2,26	-1,915
3154,116	-2,06	-1,889
3156,287	-1,78	-1,814
3158,465	-2,06	-1,846
3160,643	-2,06	-1,86
3162,809	-2,22	-1,882
3164,993	-1,5	-1,722
3167,159	-1,74	-1,775
3169,337	-1,58	-1,729
3171,509	-1,92	-1,796
3173,674	-1,82	-1,838
3175,846	-1,66	-1,717
3178,036	-1,12	-1,574
3180,202	-1,18	-1,57
3182,38	-1,08	-1,536
3184,546	-1,18	-1,552
3186,724	-1,02	-1,501
3188,902	-0,68	-1,367
3191,079	-0,52	-1,317
3193,263	-0,26	-1,179
3195,429	-0,28	-1,259
3197,601	-0,04	-1,1
3199,767	0,02	-1,035
3201,933	0,2	-1,019
3204,111	0,32	-0,97
3206,277	0,22	-0,99
3208,449	0,32	-0,987
3210,632	0,56	-0,854
3212,798	0,38	-0,839
3214,976	0,66	-0,714
3217,148	0,68	-0,646
3219,32	0,84	-0,626
3221,498	1,02	-0,55
3223,676	1,16	-0,495
3225,848	1,48	-0,406
3228,025	1,56	-0,394
3230,203	1,66	-0,267
3232,369	2,3	-0,185
3234,541	1,82	-0,248
3236,713	2,14	-0,206
3238,885	2,32	-0,201
3239,269	4,28	0