File: Cycling_tests/_newS/_1G40/entrada/_4.txt
Time (s)	Load (N)	Displacement (mm)
0	-0,1	-0,036
2,153	0,86	-0,217
4,361	-1,62	-0,65
6,503	-1,9	-0,764
8,639	-2,66	-0,87
10,775	-2,62	-0,896
12,911	-2,92	-0,98
15,046	-2,26	-0,9
17,188	-2,8	-0,956
19,33	-2,72	-0,978
21,472	-2,64	-1,014
23,608	-2,68	-1,034
25,744	-3,24	-1,055
27,886	-3,14	-1,1
30,04	-4,16	-1,173
32,181	-3,78	-1,176
34,318	-4,22	-1,17
36,454	-4,74	-1,281
38,595	-4,9	-1,357
40,749	-5,34	-1,468
42,885	-5,34	-1,478
45,027	-5,32	-1,539
47,163	-6,3	-1,64
49,305	-6,84	-1,775
51,447	-7,98	-1,927
53,588	-7,5	-1,902
55,736	-7,92	-1,946
57,878	-8,48	-1,997
60,02	-8	-1,988
62,162	-8,06	-2,061
64,31	-8,06	-2,035
66,457	-8,8	-2,12
68,611	-9,34	-2,226
70,747	-9,18	-2,242
72,889	-9,2	-2,212
75,032	-9,54	-2,299
77,167	-9,1	-2,246
79,303	-9,62	-2,255
81,451	-10,18	-2,313
83,587	-9,28	-2,324
85,74	-10,9	-2,456
87,876	-10,9	-2,465
90,024	-10,66	-2,531
92,16	-11,26	-2,528
94,302	-9,94	-2,49
96,45	-10,42	-2,554
98,592	-11,72	-2,589
100,734	-11,98	-2,607
102,869	-11,2	-2,511
105,017	-10,68	-2,543
107,159	-11,66	-2,616
109,301	-12,6	-2,724
111,443	-11,24	-2,678
113,591	-13,58	-2,861
115,739	-13,78	-2,962
117,892	-15,54	-3,099
120,034	-15,62	-3,155
122,176	-16,32	-3,214
124,318	-16,32	-3,253
126,466	-16,96	-3,34
128,62	-18,38	-3,381
130,762	-19	-3,42
132,91	-20,24	-3,454
135,045	-20,44	-3,47
137,181	-20,42	-3,479
139,317	-20,36	-3,479
141,471	-20,62	-3,488
143,613	-20,62	-3,492
145,773	-20,66	-3,494
147,909	-20,64	-3,495
150,069	-20,62	-3,497
152,223	-20,56	-3,498
154,358	-20,54	-3,499
156,506	-20,5	-3,499
158,654	-20,46	-3,499
160,802	-20,42	-3,486
162,944	-20,36	-3,338
165,086	-19,86	-3,196
167,228	-18,76	-3,08
169,376	-17,26	-2,872
171,517	-15,78	-2,741
173,665	-14,24	-2,603
175,807	-14,88	-2,536
177,967	-12,08	-2,369
180,109	-10,96	-2,202
182,263	-10,12	-2,001
184,399	-8,46	-1,853
186,553	-7,58	-1,737
188,694	-6,42	-1,602
190,848	-6,7	-1,528
193,008	-4,72	-1,382
195,15	-4,6	-1,321
197,304	-4,04	-1,199
199,452	-3,62	-1,157
201,6	-3,08	-1,065
203,748	-2,88	-1,064
205,901	-3,18	-1,018
208,049	-2,18	-0,933
210,191	-2,18	-0,882
212,333	-1,9	-0,867
214,487	-1,74	-0,838
216,635	-1,72	-0,836
218,783	-1,56	-0,82
220,937	-1	-0,678
223,09	0	-0,46
225,251	1,52	-0,221
227,392	1,38	-0,158
229,54	2,78	-0,096
231,682	3,18	-0,076
233,824	3,24	-0,061
235,966	3,46	-0,051
238,12	3,68	-0,031
240,261	3,84	-0,024
242,415	3,88	-0,014
244,569	3,94	-0,007
246,723	3,94	-0,003
248,871	3,94	-0,002
251,019	3,94	-0,001
253,173	3,96	-0,001
255,315	3,96	-0,001
257,462	3,96	-0,001
259,604	3,96	-0,001
261,752	3,98	-0,001
263,894	3,98	-0,001
266,054	3,98	-0,001
268,208	3,94	0
270,356	3,96	-0,06
272,51	3,58	-0,354
274,657	2,3	-0,489
276,799	2,44	-0,518
278,941	2,36	-0,51
281,095	1,94	-0,653
283,249	0,58	-0,79
285,397	-0,54	-0,924
287,539	-1,34	-1,017
289,687	-1,58	-1,129
291,829	-1,68	-1,185
293,97	-2,2	-1,256
296,118	-2,9	-1,38
298,266	-3,36	-1,512
300,414	-3,22	-1,547
302,556	-4,02	-1,581
304,704	-4,28	-1,732
306,858	-5,04	-1,803
309,017	-5,82	-1,928
311,171	-5,86	-2,044
313,325	-7,48	-2,245
315,473	-7,64	-2,352
317,627	-8,82	-2,527
319,775	-9,94	-2,582
321,929	-10,3	-2,743
324,077	-11,46	-2,802
326,231	-12,36	-3,02
328,378	-14,04	-3,132
330,526	-14,74	-3,276
332,669	-16,18	-3,358
334,816	-17,82	-3,427
336,964	-18,36	-3,455
339,112	-18,44	-3,469
341,266	-18,5	-3,472
343,426	-18,84	-3,484
345,579	-18,92	-3,492
347,727	-18,94	-3,493
349,881	-18,96	-3,496
352,023	-18,94	-3,496
354,165	-18,92	-3,498
356,313	-18,9	-3,498
358,467	-18,88	-3,499
360,615	-18,86	-3,499
362,757	-18,84	-3,499
364,904	-18,82	-3,499
367,07	-18,8	-3,5
369,23	-18,76	-3,5
371,39	-18,74	-3,399
373,538	-18,7	-3,26
375,686	-18,46	-3,096
377,852	-15,26	-2,893
379,993	-14,1	-2,72
382,141	-13,2	-2,623
384,295	-10,8	-2,343
386,443	-9,98	-2,14
388,591	-8,48	-2,076
390,733	-9,24	-1,984
392,893	-6,46	-1,804
395,035	-6,06	-1,771
397,176	-5,44	-1,624
399,324	-5	-1,563
401,472	-3,76	-1,358
403,626	-3,02	-1,199
405,78	-2,38	-1,067
407,922	-1,92	-1,012
410,076	-1,38	-0,895
412,224	-0,74	-0,757
414,371	-0,46	-0,702
416,531	0,56	-0,52
418,679	0,78	-0,392
420,827	1,52	-0,259
422,975	2,56	-0,154
425,111	2,18	-0,167
427,259	2,92	-0,105
429,413	3,62	-0,078
431,56	3,92	-0,04
433,708	4,34	-0,022
435,856	4,34	-0,017
438,01	4,42	-0,013
440,164	4,42	-0,009
442,324	4,42	-0,007
444,478	4,46	-0,004
446,626	4,44	-0,003
448,774	4,44	-0,002
450,921	4,46	-0,002
453,081	4,44	-0,001
455,229	4,42	-0,001
457,383	4,42	0
459,531	4,42	-0,003
461,685	4,4	-0,161
463,833	4,04	-0,29
465,993	2,86	-0,49
468,14	2,54	-0,613
470,294	1,3	-0,736
472,442	0,96	-0,868
474,596	-0,86	-1,075
476,75	-1,34	-1,175
478,904	-1,72	-1,296
481,052	-2,34	-1,414
483,2	-3,14	-1,59
485,341	-3,16	-1,642
487,495	-3,86	-1,799
489,661	-4,56	-1,927
491,809	-4,68	-1,965
493,957	-4,88	-1,981
496,105	-5,32	-2,036
498,259	-5,62	-2,124
500,401	-5,62	-2,165
502,554	-6,38	-2,222
504,702	-6,74	-2,361
506,844	-8,78	-2,549
508,986	-9,8	-2,738
511,152	-11,32	-2,935
513,3	-10,58	-3,026
515,454	-12,44	-3,1
517,608	-13,72	-3,254
519,749	-11,62	-3,261
521,891	-14,82	-3,349
524,051	-15,16	-3,36
526,205	-16,48	-3,402
528,359	-16,74	-3,441
530,513	-16,88	-3,434
532,673	-17,38	-3,461
534,827	-17,86	-3,478
536,992	-17,9	-3,485
539,146	-17,96	-3,487
541,306	-18,02	-3,494
543,454	-18,02	-3,497
545,602	-18	-3,498
547,75	-17,98	-3,499
549,904	-17,94	-3,499
552,058	-17,92	-3,5
554,211	-17,9	-3,382
556,359	-17,84	-3,3
558,519	-17,1	-3,094
560,679	-13,94	-2,832
562,833	-14,6	-2,668
564,999	-10,16	-2,407
567,153	-10,38	-2,302
569,307	-9,2	-2,259
571,472	-8,94	-2,052
573,632	-6,6	-1,884
575,786	-5,44	-1,705
577,94	-3,66	-1,483
580,094	-2,78	-1,261
582,254	-1,82	-1,025
584,402	-0,42	-0,812
586,55	0	-0,64
588,71	1,14	-0,426
590,857	2,4	-0,252
593,011	2,96	-0,129
595,159	4,02	-0,075
597,307	4,12	-0,054
599,461	4,42	-0,039
601,615	4,18	-0,044
603,757	4,46	-0,038
605,899	4,46	-0,033
608,052	4,5	-0,027
610,206	4,52	-0,025
612,354	4,62	-0,016
614,502	4,68	-0,012
616,656	4,72	-0,009
618,804	4,74	-0,006
620,952	4,72	-0,004
623,106	4,72	-0,004
625,259	4,74	-0,004
627,407	4,74	-0,003
629,567	4,74	-0,003
631,721	4,74	-0,002
633,869	4,74	-0,002
636,029	4,74	-0,002
638,177	4,74	-0,002
640,349	4,72	-0,001
642,502	4,72	-0,001
644,668	4,7	-0,001
646,828	4,68	-0,009
648,976	4,66	-0,078
651,124	4,64	-0,262
653,272	4,64	-0,264
655,426	3,74	-0,44
657,586	3,52	-0,543
659,733	2,74	-0,517
661,887	2,68	-0,665
664,035	1,48	-0,714
666,195	1,28	-0,769
668,343	2	-0,681
670,497	2,02	-0,667
672,657	0,72	-0,824
674,811	0,92	-0,919
676,964	0,04	-1,002
679,118	-0,6	-1,135
681,272	-1,44	-1,24
683,42	-1,64	-1,304
685,568	-1,38	-1,332
687,722	-1,86	-1,374
689,882	-2,32	-1,509
692,03	-2,2	-1,493
694,195	-2,72	-1,595
696,355	-3,3	-1,677
698,503	-3,36	-1,788
700,651	-4,1	-1,832
702,805	-3,98	-1,912
704,965	-4,16	-1,913
707,113	-4,42	-1,947
709,267	-4,12	-2,024
711,415	-4,56	-1,946
713,562	-4,7	-2,048
715,71	-5,88	-2,165
717,87	-6,18	-2,248
720,024	-5,98	-2,326
722,178	-7,2	-2,452
724,332	-7,64	-2,531
726,486	-8,16	-2,646
728,64	-7,98	-2,646
730,781	-7,96	-2,596
732,929	-8,92	-2,639
735,083	-8,04	-2,621
737,231	-7,88	-2,505
739,385	-6,92	-2,562
741,539	-8,96	-2,71
743,693	-9,32	-2,767
745,853	-9,8	-2,797
748,012	-9,04	-2,735
750,16	-7,68	-2,634
752,308	-7,52	-2,508
754,456	-7,64	-2,53
756,61	-7,14	-2,46
758,764	-7,16	-2,491
760,918	-7,76	-2,532
763,066	-7,86	-2,644
765,219	-7,86	-2,578
767,367	-8,76	-2,633
769,527	-9,64	-2,794
771,675	-10,32	-2,892
773,823	-10,26	-2,966
775,971	-10,5	-2,903
778,125	-10,44	-2,955
780,273	-10,32	-2,918
782,426	-10,6	-2,887
784,574	-10,5	-2,956
786,722	-10,48	-2,956
788,876	-10	-2,907
791,03	-10,74	-2,943
793,184	-10,26	-2,99
795,338	-9,92	-2,978
797,486	-11,42	-3,064
799,639	-10,86	-3,12
801,787	-12,92	-3,257
803,941	-13,86	-3,349
806,095	-13,66	-3,333
808,243	-15	-3,404
810,403	-15,84	-3,423
812,557	-16,48	-3,457
814,711	-16,62	-3,466
816,858	-16,74	-3,47
819,006	-16,9	-3,477
821,16	-16,94	-3,486
823,308	-17,14	-3,492
825,462	-17,16	-3,495
827,616	-17,18	-3,497
829,764	-17,18	-3,498
831,906	-17,16	-3,497
834,06	-17,14	-3,498
836,207	-17,14	-3,498
838,361	-17,12	-3,499
840,509	-17,1	-3,5
842,663	-17,04	-3,496
844,823	-17	-3,462
846,977	-17,02	-3,471
849,125	-17	-3,395
851,291	-16,84	-3,208
853,444	-14,78	-3,014
855,598	-15,22	-2,938
857,746	-14,22	-2,952
859,894	-15,68	-3,01
862,06	-13,08	-2,86
864,22	-13,1	-2,815
866,374	-12,42	-2,714
868,522	-13,72	-2,73
870,675	-13,28	-2,785
872,823	-11,38	-2,657
874,977	-12,16	-2,642
877,131	-12,62	-2,765
879,291	-11,82	-2,634
881,439	-10,1	-2,539
883,593	-10,84	-2,524
885,747	-11,06	-2,52
887,894	-10,54	-2,482
890,048	-9,54	-2,413
892,196	-10,38	-2,435
894,338	-11,06	-2,443
896,486	-11,18	-2,574
898,64	-12,36	-2,773
900,794	-13,32	-2,719
902,942	-11,5	-2,644
905,089	-11,88	-2,586
907,237	-10,76	-2,58
909,385	-10,52	-2,548
911,533	-10,92	-2,509
913,681	-10,04	-2,513
915,829	-16,14	-3,094
917,977	-16,8	-3,3
920,131	-16,84	-3,318
922,272	-16,84	-3,232
924,426	-16,38	-3,179
926,574	-16,84	-3,294
928,722	-16,82	-3,372
930,876	-16,84	-3,5
933,048	-16,84	-3,482
935,202	-16,82	-3,432
937,35	-16,84	-3,5
939,51	-16,86	-3,5
941,675	-16,84	-3,5
943,829	-16,84	-3,499
945,983	-16,84	-3,5
948,131	-16,88	-3,499
950,297	-16,86	-3,499
952,445	-16,84	-3,499
954,593	-16,84	-3,499
956,752	-16,84	-3,499
958,912	-16,82	-3,5
961,06	-16,78	-3,5
963,214	-16,8	-3,486
965,374	-16,72	-3,268
967,522	-16,16	-3,17
969,67	-16,68	-3,126
971,812	-16,72	-3,237
973,966	-16,72	-3,233
976,119	-16	-3,146
978,273	-14,56	-3,046
980,428	-13,16	-2,853
982,587	-11,9	-2,684
984,729	-12,36	-2,663
986,883	-10,52	-2,533
989,037	-9,98	-2,428
991,185	-10,56	-2,518
993,339	-11,26	-2,555
995,498	-9,58	-2,431
997,664	-8,24	-2,27
999,812	-8,82	-2,355
1001,96	-8,94	-2,37
1004,111	-9,86	-2,39
1006,25	-10,12	-2,453
1008,41	-10,42	-2,44
1010,563	-8,64	-2,297
1012,717	-7,84	-2,26
1014,877	-6,66	-2,067
1017,031	-5,84	-2,01
1019,179	-5,94	-1,944
1021,333	-4,5	-1,776
1023,475	-5,1	-1,838
1025,623	-5,12	-1,837
1027,764	-5,56	-1,861
1029,918	-11,34	-2,58
1032,072	-9,68	-2,483
1034,232	-8,12	-2,323
1036,392	-7,98	-2,273
1038,534	-7,94	-2,224
1040,688	-7,72	-2,17
1042,836	-6,86	-2,138
1044,989	-5,46	-1,925
1047,143	-5,5	-1,894
1049,297	-5,46	-1,876
1051,457	-4,82	-1,809
1053,605	-5,78	-1,825
1055,759	-4,82	-1,763
1057,907	-5,14	-1,814
1060,061	-4,86	-1,758
1062,22	-4,14	-1,663
1064,368	-3,6	-1,542
1066,51	-3,84	-1,621
1068,664	-4,18	-1,668
1070,818	-4,36	-1,584
1072,978	-3,44	-1,566
1075,126	-4,02	-1,597
1077,274	-3,56	-1,611
1079,421	-3,64	-1,525
1081,569	-2,98	-1,503
1083,723	-3,16	-1,5
1085,871	-2,62	-1,42
1088,025	-2,22	-1,299
1090,179	-1,96	-1,224
1092,327	-1,6	-1,25
1094,481	-2,1	-1,258
1096,628	-1,24	-1,155
1098,782	-0,82	-0,944
1100,936	-0,7	-0,983
1103,09	0,02	-0,861
1105,232	-0,48	-0,923
1107,38	-0,52	-0,934
1109,54	0,06	-0,803
1111,688	0,26	-0,78
1113,835	0,44	-0,737
1115,989	0,8	-0,637
1118,143	0,88	-0,58
1120,297	0,94	-0,56
1122,457	0,76	-0,531
1124,611	1,48	-0,453
1126,753	1,5	-0,476
1128,907	1,88	-0,446
1131,061	1,74	-0,368
1133,22	2,98	-0,178
1135,38	3,24	-0,134
1137,534	3,9	-0,105
1139,694	4,62	-0,047
1141,848	4,96	-0,031
1143,996	5,04	-0,019
1146,144	5,06	-0,024
1148,292	5,08	-0,022
1150,445	5,16	-0,012
1152,587	5,2	-0,006
1154,741	5,2	-0,003
1156,889	5,18	-0,002
1159,037	5,18	-0,002
1161,203	5,16	-0,001
1163,351	5,18	-0,002
1165,505	5,16	-0,001
1167,646	5,14	-0,001
1169,806	5,12	-0,042
1171,966	4,82	-0,292
1174,132	5,1	-0,277
1176,28	4,8	-0,331
1178,44	5,16	-0,001
1180,582	5,14	0
1182,724	5,12	0
1184,883	5,14	0
1187,037	5,16	-0,001
1189,191	5,14	-0,001
1191,345	5,14	0
1193,487	5,12	-0,006
1195,641	5,14	-0,001
1197,789	5,12	0
1199,943	5,1	-0,053
1202,096	5,1	-0,132
1204,25	4,7	-0,272
1206,398	5,1	-0,108
1208,552	5,12	-0,119
1210,712	5,08	-0,224
1212,872	3,94	-0,511
1215,02	2,44	-0,621
1217,168	3,1	-0,636
1219,31	2,28	-0,723
1221,457	1,7	-0,788
1223,605	1,42	-0,848
1225,765	0,54	-0,987
1227,919	-0,14	-1,114
1230,073	-0,56	-1,257
1232,221	-0,68	-1,278
1234,381	-1,22	-1,372
1236,535	-0,78	-1,381
1238,688	-1,98	-1,592
1240,836	-2,96	-1,752
1242,978	-2,96	-1,803
1245,138	-2,22	-1,603
1247,292	-1,58	-1,539
1249,446	-2,34	-1,67
1251,594	-1,28	-1,511
1253,736	-0,74	-1,232
1255,895	-0,08	-1,128
1258,043	1,2	-0,891
1260,197	1,92	-0,713
1262,351	3,14	-0,642
1264,505	3,56	-0,536
1266,659	4,38	-0,406
1268,807	5,14	-0,278
1270,955	5,14	-0,057
1273,108	5,16	0
1275,262	5,18	-0,001
1277,41	5,18	-0,001
1279,558	5,22	-0,002
1281,712	5,22	-0,006
1283,854	5,18	-0,016
1286,014	5,14	-0,023
1288,168	4,82	-0,038
1290,327	4,52	-0,066
1292,487	3,66	-0,118
1294,635	2,62	-0,322
1296,789	1,44	-0,461
1298,943	0,92	-0,659
1301,097	0,54	-0,808
1303,239	-0,42	-1,014
1305,393	-1,04	-1,248
1307,54	-1,98	-1,381
1309,7	-2,16	-1,458
1311,86	-3,32	-1,652
1314,008	-3,58	-1,7
1316,156	-3,38	-1,751
1318,31	-4,12	-1,775
1320,458	-4,06	-1,865
1322,606	-5,54	-1,993
1324,753	-5,7	-2,144
1326,901	-7,22	-2,356
1329,055	-8,1	-2,459
1331,203	-9,96	-2,585
1333,351	-9,68	-2,716
1335,499	-11,18	-2,801
1337,653	-11,12	-2,861
1339,807	-12,7	-2,91
1341,949	-13,46	-3,014
1344,096	-14,28	-3,125
1346,256	-14,6	-3,226
1348,404	-14,3	-3,26
1350,57	-14,4	-3,235
1352,736	-14,08	-3,176
1354,884	-14,54	-3,169
1357,038	-14,04	-3,16
1359,186	-13,78	-3,1
1361,333	-13,12	-3,077
1363,481	-13,34	-3,024
1365,629	-13,32	-3,125
1367,783	-14,46	-3,217
1369,931	-14,44	-3,433
1372,079	-14,42	-3,427
1374,233	-14,34	-3,427
1376,392	-14,3	-3,326
1378,534	-14,3	-3,393
1380,682	-14,28	-3,361
1382,83	-14,24	-3,394
1384,978	-14,24	-3,458
1387,126	-14,22	-3,414
1389,28	-14,2	-3,492
1391,434	-14,18	-3,489
1393,594	-14,16	-3,44
1395,747	-14,12	-3,471
1397,889	-14,12	-3,492
1400,037	-14,12	-3,5
1402,197	-14,1	-3,414
1404,351	-14,06	-3,471
1406,499	-14,06	-3,335
1408,647	-14,02	-3,332
1410,806	-13,76	-3,268
1412,96	-13,98	-3,28
1415,108	-13,96	-3,29
1417,274	-13,94	-3,207
1419,422	-13,94	-3,196
1421,57	-13,66	-3,238
1423,724	-13,9	-3,174
1425,884	-13,28	-3,086
1428,026	-13,2	-3,186
1430,185	-13,36	-3,06
1432,333	-12,5	-3,026
1434,487	-11,36	-2,974
1436,653	-11,74	-2,93
1438,801	-12,38	-2,984
1440,949	-11,16	-2,875
1443,103	-11,4	-2,878
1445,263	-10,86	-2,849
1447,416	-10,96	-2,845
1449,564	-11,18	-2,855
1451,718	-10,32	-2,814
1453,872	-10,58	-2,835
1456,026	-11,14	-2,858
1458,174	-11,5	-2,9
1460,328	-11	-2,912
1462,476	-11,5	-2,965
1464,629	-11,98	-2,981
1466,771	-12,36	-3,054
1468,931	-11,02	-2,949
1471,079	-11,88	-2,944
1473,233	-10,44	-2,87
1475,393	-10,32	-2,804
1477,547	-9,64	-2,794
1479,695	-9,96	-2,815
1481,837	-10,64	-2,833
1483,984	-9,42	-2,791
1486,138	-10,08	-2,744
1488,286	-8,66	-2,684
1490,452	-8,58	-2,678
1492,606	-10,18	-2,659
1494,76	-9,2	-2,708
1496,908	-9,06	-2,776
1499,056	-9,72	-2,823
1501,215	-10,02	-2,815
1503,369	-10,62	-2,814
1505,517	-11,76	-2,949
1507,665	-10,48	-2,932
1509,825	-9,92	-2,909
1511,967	-10,84	-3,012
1514,121	-11,56	-3,061
1516,275	-11,8	-3,063
1518,422	-12,46	-3,153
1520,57	-12,42	-3,157
1522,718	-12,7	-3,254
1524,866	-12,68	-3,367
1527,02	-12,64	-3,339
1529,162	-12,64	-3,483
1531,316	-12,64	-3,467
1533,464	-12,6	-3,483
1535,617	-12,58	-3,5
1537,777	-12,58	-3,5
1539,919	-12,56	-3,5
1542,073	-12,56	-3,5
1544,227	-12,54	-3,499
1546,369	-12,54	-3,499
1548,523	-12,54	-3,499
1550,677	-12,5	-3,499
1552,824	-12,52	-3,499
1554,972	-12,52	-3,498
1557,126	-12,5	-3,498
1559,28	-12,48	-3,498
1561,422	-12,46	-3,498
1563,582	-12,46	-3,498
1565,73	-12,44	-3,498
1567,878	-12,42	-3,498
1570,037	-12,4	-3,498
1572,191	-12,38	-3,498
1574,339	-12,36	-3,498
1576,493	-12,36	-3,498
1578,641	-12,32	-3,498
1580,795	-12,28	-3,498
1582,943	-12,32	-3,498
1585,097	-12,28	-3,498
1587,262	-12,24	-3,499
1589,41	-12,26	-3,498
1591,558	-12,22	-3,498
1593,712	-12,22	-3,499
1595,866	-12,2	-3,499
1598,02	-12,18	-3,499
1600,168	-12,18	-3,499
1602,316	-12,16	-3,499
1604,469	-12,14	-3,499
1606,623	-12,12	-3,499
1608,777	-12,1	-3,498
1610,925	-12,1	-3,498
1613,073	-12,08	-3,498
1615,227	-12,1	-3,498
1617,387	-12,08	-3,499
1619,529	-12,06	-3,498
1621,682	-12	-3,499
1623,836	-11,98	-3,499
1625,978	-12	-3,499
1628,138	-11,94	-3,499
1630,292	-11,92	-3,499
1632,446	-11,92	-3,499
1634,594	-11,9	-3,499
1636,742	-11,88	-3,499
1638,896	-11,92	-3,499
1641,055	-11,86	-3,499
1643,209	-11,84	-3,5
1645,351	-11,82	-3,499
1647,511	-11,82	-3,5
1649,659	-11,8	-3,499
1651,819	-11,8	-3,5
1653,961	-11,78	-3,499
1656,115	-11,76	-3,499
1658,268	-11,78	-3,499
1660,428	-11,76	-3,5
1662,57	-11,74	-3,499
1664,736	-11,74	-3,499
1666,89	-11,74	-3,499
1669,05	-11,72	-3,499
1671,204	-11,7	-3,5
1673,358	-11,68	-3,456
1675,511	-11,64	-3,389
1677,665	-11,64	-3,372
1679,813	-11,62	-3,235
1681,979	-10,94	-3,116
1684,133	-9,84	-3,026
1686,293	-7,36	-2,688
1688,435	-7,66	-2,75
1690,589	-7,4	-2,778
1692,736	-8,26	-2,788
1694,878	-8,44	-2,818
1697,038	-7,38	-2,724
1699,192	-7,44	-2,714
1701,34	-7,64	-2,73
1703,494	-7,22	-2,731
1705,648	-6,48	-2,668
1707,796	-6,88	-2,636
1709,943	-7,32	-2,684
1712,103	-7,08	-2,6
1714,269	-6,14	-2,574
1716,429	-6,86	-2,503
1718,577	-5,94	-2,555
1720,731	-6,08	-2,545
1722,885	-5,94	-2,483
1725,027	-6,92	-2,544
1727,174	-6,36	-2,58
1729,328	-5,8	-2,545
1731,47	-6,76	-2,599
1733,618	-6,62	-2,589
1735,772	-6,34	-2,611
1737,92	-5,76	-2,55
1740,08	-6,42	-2,555
1742,234	-6,32	-2,599
1744,387	-7,16	-2,568
1746,535	-5,4	-2,459
1748,695	-5,14	-2,41
1750,849	-4,58	-2,374
1753,003	-5	-2,328
1755,151	-4,72	-2,364
1757,299	-5,3	-2,439
1759,453	-5,4	-2,439
1761,613	-5,68	-2,416
1763,754	-5,08	-2,429
1765,896	-5,12	-2,442
1768,044	-5	-2,441
1770,198	-4,94	-2,384
1772,352	-4,64	-2,386
1774,506	-4,1	-2,323
1776,654	-3,88	-2,235
1778,814	-3,52	-2,15
1780,967	-3,32	-2,155
1783,121	-3,8	-2,125
1785,275	-3,48	-2,114
1787,417	-3,72	-2,177
1789,571	-3,96	-2,199
1791,731	-3,7	-2,181
1793,873	-3,76	-2,205
1796,021	-3,66	-2,173
1798,174	-3,64	-2,147
1800,322	-3,24	-2,151
1802,47	-3,4	-2,166
1804,624	-3	-2,124
1806,772	-3,48	-2,134
1808,914	-3,84	-2,217
1811,062	-3,88	-2,211
1813,21	-3,9	-2,22
1815,357	-4,1	-2,24
1817,517	-3,7	-2,196
1819,671	-4,1	-2,255
1821,837	-3,74	-2,176
1823,979	-3,62	-2,274
1826,139	-3,74	-2,25
1828,293	-4,06	-2,258
1830,441	-3,78	-2,289
1832,588	-4,16	-2,272
1834,742	-3,74	-2,252
1836,896	-3,8	-2,215
1839,044	-3,94	-2,241
1841,192	-4,6	-2,353
1843,352	-4,22	-2,313
1845,506	-4,3	-2,373
1847,66	-4,54	-2,395
1849,813	-5,02	-2,434
1851,967	-4,2	-2,339
1854,115	-4,68	-2,3
1856,269	-3,9	-2,228
1858,423	-3,92	-2,287
1860,583	-3,38	-2,205
1862,725	-3,08	-2,078
1864,885	-2,74	-2,035
1867,038	-2,62	-2,053
1869,186	-2,2	-1,924
1871,334	-2,5	-1,908
1873,488	-1,4	-1,679
1875,636	-0,8	-1,579
1877,79	-1,08	-1,542
1879,938	-0,68	-1,494
1882,096	-0,1	-1,239
1884,239	0,08	-1,244
1886,387	-0,36	-1,324
1888,541	0,52	-1,036
1890,683	0,9	-0,885
1892,837	1,14	-0,845
1894,991	0,86	-0,846
1897,145	1,04	-0,819
1899,287	0,8	-0,93
1901,446	1,26	-0,682
1903,594	2,08	-0,469
1905,742	2,28	-0,393
1907,896	2,22	-0,358
1910,056	2,7	-0,272
1912,198	2,18	-0,337
1914,358	2,86	-0,26
1916,524	2,86	-0,198
1918,678	3,32	-0,166
1920,831	3,38	-0,137
1922,979	3,52	-0,156
1925,133	3,56	-0,139
1927,275	3,58	-0,143
1929,423	3,54	-0,14
1931,577	3,44	-0,134
1933,719	3,44	-0,141
1935,873	3,9	-0,111
1938,032	4,18	-0,09
1940,174	3,82	-0,106
1942,334	4,14	-0,086
1944,488	4,02	-0,082
1946,636	4,2	-0,086
1948,79	4,02	-0,066
1950,944	4,32	-0,057
1953,086	4,18	-0,069
1955,239	4,44	-0,061
1957,399	4,36	-0,054
1959,559	4,54	-0,046
1961,701	4,42	-0,055
1963,861	4,54	-0,049
1966,015	4,52	-0,046
1968,157	4,52	-0,048
1970,311	4,68	-0,04
1972,47	4,76	-0,035
1974,618	4,64	-0,035
1976,772	4,78	-0,03
1978,926	4,76	-0,025
1981,068	4,8	-0,025
1983,222	4,84	-0,018
1985,382	4,86	-0,017
1987,53	4,92	-0,016
1989,689	4,94	-0,015
1991,837	4,9	-0,013
1993,997	4,96	-0,008
1996,139	4,96	-0,008
1998,311	4,98	-0,005
2000,459	4,98	-0,005
2002,607	4,96	-0,005
2004,761	4,98	-0,004
2006,908	4,98	-0,004
2009,056	4,98	-0,003
2011,21	4,96	-0,003
2013,364	4,96	-0,003
2015,512	4,96	-0,004
2017,66	4,96	-0,004
2019,814	4,96	-0,003
2021,962	4,96	-0,003
2024,116	4,96	-0,004
2026,263	4,96	-0,003
2028,417	4,96	-0,003
2030,565	4,96	-0,003
2032,737	4,96	-0,002
2034,885	4,96	-0,002
2037,033	4,96	-0,002
2039,187	4,94	-0,002
2041,353	4,96	-0,002
2043,5	4,94	-0,002
2045,648	4,94	-0,002
2047,802	4,94	-0,002
2049,956	4,94	-0,002
2052,116	4,94	-0,002
2054,276	4,94	-0,001
2056,418	4,94	-0,002
2058,566	4,94	-0,002
2060,713	4,92	-0,001
2062,861	4,94	-0,002
2065,015	4,92	-0,002
2067,175	4,92	-0,001
2069,329	4,9	-0,001
2071,483	4,9	-0,001
2073,631	4,9	-0,001
2075,785	4,9	-0,001
2077,932	4,9	-0,001
2080,086	4,88	-0,001
2082,24	4,88	0
2084,388	4,88	-0,001
2086,542	4,88	0
2088,696	4,88	-0,003
2090,838	4,88	0
2092,992	4,88	-0,009
2095,139	4,86	-0,071
2097,281	4,86	-0,004
2099,435	4,86	-0,036
2101,589	4,86	-0,015
2103,731	4,86	-0,006
2105,885	4,86	-0,015
2108,033	4,86	0
2110,175	4,86	0
2112,322	4,86	0
2114,476	4,84	-0,001
2116,63	4,84	-0,001
2118,778	4,84	0
2120,926	4,84	0
2123,068	4,86	0
2125,222	4,84	0
2127,382	4,84	0
2129,524	4,84	0
2131,683	4,84	0
2133,837	4,84	0
2135,979	4,82	0
2138,139	4,82	-0,036
2140,287	4,82	-0,125
2142,441	4,8	-0,096
2144,619	4,8	-0,244
2146,772	4,54	-0,358
2148,914	4,72	-0,339
2151,074	4,18	-0,438
2153,228	4,18	-0,511
2155,382	2,9	-0,591
2157,53	2,62	-0,681
2159,69	1,88	-0,769
2161,838	2,08	-0,786
2163,979	1,02	-0,889
2166,139	0,62	-0,961
2168,287	1,04	-0,924
2170,435	0,98	-0,967
2172,595	0,86	-0,976
2174,743	0,64	-1,037
2176,897	0,06	-1,076
2179,051	0,3	-1,086
2181,199	0,14	-1,075
2183,346	0,46	-1,045
2185,5	0,26	-1,048
2187,654	0,46	-1,052
2189,802	0,22	-1,063
2191,962	0,64	-1,061
2194,122	-0,26	-1,185
2196,264	-0,32	-1,236
2198,43	-0,66	-1,369
2200,571	-0,78	-1,436
2202,731	-1,16	-1,624
2204,885	-1,34	-1,676
2207,027	-1,24	-1,646
2209,181	-1,44	-1,704
2211,329	-1,38	-1,716
2213,477	-1,56	-1,737
2215,631	-1,46	-1,742
2217,784	-1,6	-1,788
2219,932	-1,36	-1,725
2222,08	-1,42	-1,758
2224,234	-1,6	-1,816
2226,388	-1,54	-1,856
2228,53	-1,6	-1,892
2230,69	-1,64	-1,915
2232,856	-1,98	-2,007
2234,997	-2,04	-2,05
2237,151	-1,92	-2,045
2239,293	-2,04	-2,015
2241,447	-2,04	-2,062
2243,595	-2,18	-2,073
2245,749	-2,14	-2,125
2247,897	-2,18	-2,089
2250,051	-2,14	-2,147
2252,192	-2,26	-2,096
2254,34	-2,14	-2,07
2256,494	-2,38	-2,164
2258,648	-2,36	-2,222
2260,802	-2,46	-2,241
2262,956	-2,62	-2,263
2265,104	-2,52	-2,267
2267,264	-2,56	-2,26
2269,411	-2,62	-2,34
2271,559	-2,78	-2,336
2273,713	-2,92	-2,35
2275,861	-2,7	-2,309
2278,015	-2,82	-2,324
2280,163	-2,84	-2,377
2282,311	-2,94	-2,35
2284,453	-2,66	-2,253
2286,6	-2,56	-2,265
2288,76	-2,54	-2,256
2290,914	-2,58	-2,25
2293,062	-2,44	-2,218
2295,216	-2,44	-2,196
2297,37	-2,52	-2,195
2299,518	-2,3	-2,153
2301,666	-2,18	-2,142
2303,82	-2,38	-2,191
2305,967	-2,18	-2,164
2308,121	-1,96	-2,088
2310,269	-2,2	-2,158
2312,411	-2,18	-2,151
2314,565	-2,08	-2,16
2316,707	-1,94	-2,126
2318,861	-2	-2,113
2321,015	-1,96	-2,059
2323,156	-1,96	-2,078
2325,322	-2,06	-2,131
2327,47	-2,2	-2,148
2329,618	-2,08	-2,139
2331,772	-1,92	-2,142
2333,932	-2,34	-2,208
2336,074	-2,36	-2,233
2338,234	-2,82	-2,416
2340,387	-3,04	-2,472
2342,535	-2,92	-2,463
2344,689	-3,16	-2,515
2346,843	-3,02	-2,541
2348,991	-3,3	-2,573
2351,145	-3,12	-2,573
2353,299	-3,18	-2,572
2355,447	-3,26	-2,529
2357,6	-3,46	-2,667
2359,754	-3,66	-2,698
2361,914	-3,86	-2,758
2364,068	-3,84	-2,719
2366,222	-3,98	-2,831
2368,37	-4,16	-2,824
2370,518	-4	-2,816
2372,678	-4,24	-2,898
2374,825	-4,72	-2,952
2376,979	-4,42	-2,946
2379,133	-4,84	-3,028
2381,281	-4,38	-2,945
2383,441	-4,22	-2,904
2385,601	-4,3	-2,918
2387,743	-3,94	-2,829
2389,903	-3,7	-2,762
2392,056	-3,58	-2,767
2394,204	-3,82	-2,782
2396,364	-3,76	-2,764
2398,518	-3,42	-2,721
2400,672	-3,54	-2,736
2402,826	-3,62	-2,723
2404,986	-3,82	-2,784
2407,134	-3,36	-2,678
2409,287	-3,22	-2,598
2411,441	-2,86	-2,548
2413,595	-3,04	-2,563
2415,743	-3	-2,501
2417,897	-2,42	-2,34
2420,039	-2,22	-2,268
2422,199	-2,18	-2,254
2424,347	-2,48	-2,338
2426,501	-2,22	-2,28
2428,654	-2,1	-2,184
2430,802	-2,22	-2,19
2432,95	-1,94	-2,096
2435,098	-1,82	-2,08
2437,246	-1,88	-2,049
2439,4	-1,72	-2,027
2441,56	-1,8	-2,065
2443,708	-1,8	-2,023
2445,867	-1,8	-2,021
2448,015	-1,58	-1,936
2450,157	-1,32	-1,806
2452,317	-1,32	-1,819
2454,465	-1,3	-1,756
2456,607	-1,06	-1,6
2458,761	-0,94	-1,539
2460,909	-0,7	-1,44
2463,05	-0,64	-1,406
2465,198	-0,58	-1,437
2467,346	-0,66	-1,39
2469,5	-0,5	-1,293
2471,648	-0,18	-1,194
2473,796	0,18	-1,109
2475,944	0,5	-1,014
2478,104	0,36	-1,075
2480,245	0,52	-1,01
2482,405	0,36	-1,053
2484,559	0,5	-0,977
2486,701	0,96	-0,902
2488,861	1,12	-0,866
2491,003	1,4	-0,816
2493,163	1,38	-0,791
2495,323	1,68	-0,74
2497,47	2,96	-0,602
2499,624	3,02	-0,558
2501,784	2,94	-0,572
2503,926	3,78	-0,409
2506,086	4,22	-0,32
2508,24	4,5	-0,21
2510,388	4,52	-0,096
2512,542	4,52	-0,018
2514,695	4,52	0
2516,843	4,52	-0,001
2518,991	4,52	-0,001
2521,133	4,54	-0,002
2523,281	4,54	-0,002
2525,435	4,54	-0,002
2527,583	4,52	-0,003
2529,731	4,52	-0,004
2531,89	4,52	-0,004
2534,032	4,48	-0,007
2536,192	4,5	-0,007
2538,34	4,48	-0,008
2540,5	4,48	-0,011
2542,648	4,44	-0,013
2544,796	4,4	-0,018
2546,95	4,3	-0,021
2549,097	4,32	-0,024
2551,239	4,16	-0,037
2553,387	3,96	-0,046
2555,541	3,9	-0,056
2557,683	3,42	-0,09
2559,843	3,3	-0,099
2561,985	2,56	-0,176
2564,139	2,82	-0,157
2566,299	2,44	-0,164
2568,446	2,36	-0,158
2570,594	2,32	-0,198
2572,748	1,98	-0,221
2574,896	2,04	-0,252
2577,056	2,06	-0,247
2579,21	1,5	-0,366
2581,352	1,4	-0,501
2583,506	1,12	-0,556
2585,647	0,86	-0,714
2587,801	0,84	-0,741
2589,955	0,64	-0,875
2592,103	0,34	-1,018
2594,257	0,12	-1,174
2596,405	-0,04	-1,241
2598,559	-0,06	-1,274
2600,707	-0,22	-1,326
2602,86	-0,26	-1,375
2605,008	-0,42	-1,423
2607,162	-0,1	-1,296
2609,304	-0,44	-1,459
2611,452	-0,64	-1,52
2613,606	-0,56	-1,518
2615,754	-0,66	-1,623
2617,914	-0,74	-1,659
2620,073	-0,78	-1,688
2622,215	-1,04	-1,802
2624,363	-1,22	-1,833
2626,505	-1,62	-1,969
2628,665	-1,66	-1,993
2630,813	-1,74	-2,077
2632,967	-2,3	-2,19
2635,115	-2,06	-2,169
2637,269	-2,06	-2,206
2639,41	-2,36	-2,284
2641,564	-2,38	-2,226
2643,712	-2,18	-2,229
2645,866	-2,22	-2,168
2648,02	-2,22	-2,2
2650,168	-2,12	-2,238
2652,316	-2,28	-2,248
2654,475	-2,32	-2,26
2656,623	-2,24	-2,196
2658,777	-2,26	-2,24
2660,931	-2,28	-2,278
2663,091	-2,12	-2,228
2665,257	-2,16	-2,133
2667,399	-2,72	-2,284
2669,553	-2,78	-2,344
2671,707	-2,78	-2,375
2673,854	-3,12	-2,413
2676,008	-3,22	-2,473
2678,162	-3,9	-2,524
2680,31	-3,7	-2,574
2682,47	-3,8	-2,588
2684,618	-4,46	-2,678
2686,766	-5,02	-2,841
2688,92	-5,56	-2,843
2691,061	-6,6	-2,951
2693,209	-7,06	-3,08
2695,351	-7,9	-3,2
2697,517	-8,2	-3,205
2699,677	-7,74	-3,138
2701,819	-8,2	-3,201
2703,967	-8,18	-3,259
2706,115	-8,18	-3,316
2708,262	-8,2	-3,42
2710,41	-8,18	-3,389
2712,552	-8,2	-3,486
2714,7	-8,2	-3,5
2716,848	-8,2	-3,5
2718,996	-8,2	-3,499
2721,15	-8,22	-3,499
2723,304	-8,2	-3,499
2725,445	-8,22	-3,498
2727,593	-8,22	-3,498
2729,741	-8,22	-3,497
2731,895	-8,22	-3,497
2734,055	-8,2	-3,496
2736,197	-8,2	-3,495
2738,351	-8,16	-3,494
2740,499	-8,18	-3,494
2742,646	-8,14	-3,492
2744,794	-8,14	-3,492
2746,936	-8,06	-3,491
2749,096	-8,12	-3,492
2751,238	-8,06	-3,492
2753,386	-8,12	-3,49
2755,534	-8,04	-3,49
2757,676	-8,04	-3,488
2759,829	-8	-3,487
2761,977	-8,04	-3,488
2764,137	-8	-3,489
2766,297	-8,1	-3,492
2768,439	-8	-3,49
2770,587	-8,04	-3,489
2772,753	-7,98	-3,489
2774,901	-8,02	-3,487
2777,054	-7,98	-3,488
2779,196	-7,88	-3,483
2781,344	-7,9	-3,48
2783,498	-7,76	-3,477
2785,646	-7,7	-3,47
2787,794	-7,64	-3,472
2789,942	-7,68	-3,468
2792,096	-7,54	-3,467
2794,255	-7,62	-3,472
2796,403	-7,68	-3,469
2798,563	-7,82	-3,476
2800,711	-7,66	-3,471
2802,853	-7,52	-3,466
2805,013	-7,56	-3,468
2807,161	-7,54	-3,459
2809,315	-7,4	-3,46
2811,463	-7,46	-3,457
2813,604	-7,48	-3,458
2815,758	-7,5	-3,455
2817,906	-7,08	-3,438
2820,06	-7,02	-3,427
2822,226	-6,92	-3,428
2824,374	-5,6	-3,423
2826,522	-6,94	-3,424
2828,676	-6,94	-3,419
2830,829	-6,46	-3,408
2833,001	-7,02	-3,43
2835,143	-6,94	-3,426
2837,297	-6,82	-3,413
2839,451	-6,44	-3,41
2841,599	-6,74	-3,409
2843,753	-6,44	-3,411
2845,907	-6,64	-3,414
2848,06	-6,34	-3,415
2850,226	-7,16	-3,442
2852,38	-7,46	-3,456
2854,534	-7,54	-3,459
2856,676	-7,38	-3,449
2858,83	-7,32	-3,455
2860,978	-7,1	-3,446
2863,126	-6,88	-3,441
2865,279	-6,9	-3,436
2867,421	-6,68	-3,428
2869,575	-6,56	-3,415
2871,723	-6,26	-3,408
2873,865	-6	-3,396
2876,025	-6,2	-3,406
2878,179	-6,64	-3,422
2880,327	-6,32	-3,415
2882,486	-6,58	-3,427
2884,64	-6,84	-3,434
2886,788	-6,8	-3,438
2888,942	-7,1	-3,449
2891,09	-7,14	-3,455
2893,244	-7,26	-3,458
2895,386	-6,98	-3,444
2897,54	-6,82	-3,43
2899,681	-6,12	-3,393
2901,829	-5,82	-3,388
2903,977	-6,02	-3,38
2906,125	-5,22	-3,328
2908,273	-5,16	-3,29
2910,427	-5,06	-3,319
2912,575	-5,16	-3,29
2914,723	-4,72	-3,261
2916,888	-4,72	-3,277
2919,03	-4,96	-3,251
2921,178	-5	-3,283
2923,326	-4,92	-3,298
2925,486	-4,98	-3,309
2927,628	-4,96	-3,313
2929,782	-5,14	-3,316
2931,942	-5,7	-3,366
2934,083	-4,88	-3,346
2936,243	-5,68	-3,364
2938,385	-5,38	-3,348
2940,539	-5,44	-3,34
2942,699	-6,3	-3,405
2944,853	-6,7	-3,419
2947,013	-6,98	-3,438
2949,167	-7,06	-3,454
2951,309	-7,28	-3,456
2953,474	-7,22	-3,468
2955,622	-7,42	-3,472
2957,77	-7,46	-3,478
2959,924	-7,48	-3,481
2962,072	-7,48	-3,478
2964,226	-7,36	-3,477
2966,374	-7,38	-3,474
2968,522	-7,38	-3,477
2970,675	-7,56	-3,485
2972,817	-7,58	-3,488
2974,965	-7,56	-3,488
2977,113	-7,58	-3,489
2979,273	-7,64	-3,491
2981,433	-7,66	-3,492
2983,575	-7,64	-3,492
2985,729	-7,68	-3,495
2987,87	-7,7	-3,495
2990,03	-7,7	-3,496
2992,178	-7,68	-3,497
2994,32	-7,68	-3,497
2996,48	-7,68	-3,498
2998,628	-7,66	-3,498
3000,782	-7,66	-3,498
3002,942	-7,66	-3,498
3005,084	-7,66	-3,498
3007,243	-7,64	-3,498
3009,385	-7,64	-3,498
3011,533	-7,64	-3,498
3013,687	-7,64	-3,498
3015,829	-7,64	-3,498
3017,983	-7,62	-3,498
3020,125	-7,64	-3,497
3022,284	-7,62	-3,497
3024,432	-7,6	-3,498
3026,58	-7,6	-3,498
3028,734	-7,62	-3,497
3030,888	-7,62	-3,498
3033,042	-7,6	-3,498
3035,19	-7,6	-3,498
3037,338	-7,6	-3,498
3039,491	-7,58	-3,498
3041,633	-7,58	-3,498
3043,787	-7,56	-3,499
3045,941	-7,56	-3,499
3048,083	-7,54	-3,499
3050,237	-7,54	-3,499
3052,391	-7,52	-3,499
3054,533	-7,52	-3,499
3056,693	-7,52	-3,499
3058,84	-7,5	-3,5
3060,994	-7,5	-3,446
3063,154	-7,48	-3,389
3065,296	-7,48	-3,327
3067,45	-7,46	-3,244
3069,598	-7,48	-3,259
3071,752	-7,46	-3,238
3073,912	-6,58	-3,107
3076,053	-6,8	-3,11
3078,207	-5,3	-2,977
3080,355	-5,84	-2,993
3082,503	-5,14	-2,975
3084,663	-4,32	-2,861
3086,811	-6,22	-2,86
3088,959	-4,48	-2,802
3091,1	-3,7	-2,757
3093,254	-3,66	-2,678
3095,414	-3,28	-2,505
3097,562	-2,46	-2,457
3099,716	-2,32	-2,347
3101,858	-2,42	-2,36
3104,006	-2,24	-2,364
3106,16	-2,14	-2,365
3108,308	-2,32	-2,38
3110,467	-2,14	-2,336
3112,609	-2,4	-2,402
3114,763	-2,32	-2,414
3116,911	-2,58	-2,444
3119,059	-2,16	-2,385
3121,213	-2,5	-2,419
3123,361	-2,28	-2,413
3125,515	-2,36	-2,371
3127,656	-2,46	-2,368
3129,81	-2,56	-2,38
3131,958	-2,08	-2,29
3134,106	-2,2	-2,295
3136,254	-2,24	-2,266
3138,402	-1,96	-2,234
3140,562	-1,7	-2,147
3142,722	-1,56	-2,091
3144,863	-1,54	-2,068
3147,023	-1,48	-2,055
3149,171	-1,58	-2,058
3151,325	-1,46	-2,039
3153,479	-1,34	-2,029
3155,633	-1,34	-1,961
3157,793	-1,2	-1,89
3159,941	-0,96	-1,836
3162,088	-1,04	-1,846
3164,242	-0,74	-1,714
3166,39	-0,68	-1,634
3168,55	-0,58	-1,584
3170,692	-0,6	-1,575
3172,846	-0,48	-1,534
3174,988	-0,52	-1,553
3177,148	-0,5	-1,551
3179,295	-0,44	-1,571
3181,449	-0,36	-1,45
3183,603	-0,22	-1,404
3185,751	-0,34	-1,44
3187,899	-0,16	-1,37
3190,065	0	-1,215
3192,207	-0,04	-1,244
3194,361	0,1	-1,15
3196,515	0,26	-1,088
3198,656	0,2	-1,115
3200,816	0,26	-1,077
3202,958	0,18	-1,112
3205,106	0,24	-1,042
3207,248	0,1	-1,029
3209,402	0,3	-1,009
3211,55	0,32	-0,96
3213,704	0,38	-0,94
3215,857	0,46	-0,904
3218,005	0,24	-0,95
3218,545	3,86	0