File: ensaios_Ciclicos/_40perc/_3gap/entrada/_2.txt
Time (s)	Load (N)	Displacement (mm)
0	0	-0,036
2,129	0	-0,13
4,307	0	-0,454
6,425	-0,5	-0,538
8,537	0	-0,507
10,655	0	-0,555
12,767	0	-0,519
14,878	0	-0,489
16,99	0	-0,442
19,102	0	-0,412
21,214	0	-0,425
23,332	0	-0,525
25,444	0	-0,473
27,556	0,5	-0,39
29,668	0,5	-0,33
31,791	0,5	-0,351
33,909	1	-0,248
36,021	1	-0,238
38,133	1	-0,234
40,245	1	-0,136
42,357	1,5	-0,058
44,469	1,5	-0,016
46,581	1,5	0
48,692	1,5	0
50,81	1,5	0
52,922	1,5	0
55,04	1,5	-0,001
57,158	1,5	-0,001
59,276	1,5	-0,001
61,388	1,5	-0,001
63,506	1,5	-0,001
65,623	1,5	-0,001
67,735	1	-0,001
69,847	1,5	-0,001
71,971	1,5	-0,001
74,083	1,5	-0,001
76,195	1,5	-0,001
78,313	1,5	-0,001
80,431	1,5	-0,001
82,543	1,5	-0,001
84,66	1,5	-0,001
86,784	1,5	-0,002
88,896	1,5	-0,003
91,008	1,5	-0,003
93,126	1,5	-0,004
95,244	1,5	-0,004
97,356	1,5	-0,006
99,468	1,5	-0,008
101,579	2	-0,006
103,697	1,5	-0,007
105,809	1,5	-0,007
107,933	1,5	-0,007
110,045	1,5	-0,008
112,157	1,5	-0,008
114,281	1,5	-0,008
116,393	1,5	-0,009
118,516	2	-0,01
120,634	1,5	-0,012
122,752	1,5	-0,017
124,864	1,5	-0,019
126,976	1,5	-0,027
129,088	1,5	-0,032
131,212	1,5	-0,046
133,33	1	-0,068
135,453	1	-0,071
137,571	1	-0,072
139,683	1	-0,082
141,813	1	-0,077
143,931	1	-0,102
146,061	1	-0,076
148,185	1	-0,084
150,297	1	-0,095
152,415	1	-0,094
154,526	1	-0,103
156,644	1	-0,095
158,768	1	-0,075
160,88	1,5	-0,066
163,004	1	-0,072
165,128	1	-0,09
167,246	1	-0,079
169,357	1	-0,099
171,469	1	-0,094
173,581	0,5	-0,1
175,693	1	-0,111
177,817	1	-0,114
179,935	1	-0,129
182,059	1	-0,119
184,177	1	-0,086
186,294	1,5	-0,076
188,418	1,5	-0,075
190,548	1,5	-0,054
192,667	1,5	-0,047
194,796	1,5	-0,05
196,914	1,5	-0,081
199,032	1,5	-0,081
201,144	1	-0,088
203,261	1,5	-0,067
205,379	1	-0,103
207,497	1	-0,08
209,615	1,5	-0,081
211,739	1,5	-0,075
213,851	1,5	-0,072
215,975	1,5	-0,052
218,093	1,5	-0,052
220,205	1,5	-0,038
222,334	2	-0,033
224,464	2	-0,022
226,594	2	-0,014
228,718	2	-0,009
230,83	2	-0,009
232,954	2	-0,007
235,072	2	-0,007
237,202	2	-0,004
239,319	2	-0,004
241,449	2	-0,003
243,567	1,5	-0,002
245,691	2	-0,002
247,809	2	-0,002
249,939	2	-0,001
252,057	1,5	-0,001
254,175	2	-0,001
256,304	2	-0,001
258,434	2	-0,001
260,558	2	-0,001
262,682	2	-0,001
264,8	2	-0,001
266,918	1,5	0
269,042	2	-0,005
271,166	2	-0,136
273,284	2	-0,175
275,401	1,5	-0,306
277,519	1,5	-0,434
279,637	0,5	-0,492
281,755	0	-0,626
283,879	-0,5	-0,75
286,015	-2	-0,925
288,139	-2	-0,955
290,263	-3	-1,106
292,386	-3,5	-1,264
294,504	-3,5	-1,253
296,628	-4	-1,384
298,752	-3,5	-1,349
300,87	-4,5	-1,492
302,988	-3,5	-1,434
305,112	-4	-1,48
307,23	-4	-1,57
309,353	-4,5	-1,62
311,477	-4	-1,6
313,601	-4	-1,578
315,725	-4,5	-1,688
317,849	-5	-1,817
319,967	-5	-1,839
322,085	-5,5	-1,962
324,197	-5	-1,915
326,314	-5,5	-2,003
328,433	-5,5	-1,987
330,556	-5,5	-1,996
332,692	-6,5	-2,192
334,822	-7,5	-2,342
336,952	-8	-2,397
339,076	-7,5	-2,395
341,194	-7,5	-2,394
343,323	-9	-2,555
345,447	-9	-2,552
347,571	-9,5	-2,672
349,695	-9	-2,58
351,813	-9,5	-2,654
353,931	-9,5	-2,701
356,061	-11,5	-2,905
358,191	-12	-3,027
360,315	-12,5	-3,084
362,444	-13,5	-3,181
364,568	-14	-3,255
366,692	-15	-3,323
368,822	-16	-3,388
370,946	-17	-3,434
373,064	-17,5	-3,443
375,188	-18	-3,463
377,306	-17	-3,442
379,429	-16,5	-3,418
381,547	-17	-3,446
383,671	-17	-3,441
385,801	-17	-3,437
387,919	-16,5	-3,408
390,043	-15	-3,338
392,161	-15	-3,302
394,285	-14	-3,242
396,408	-13	-3,145
398,526	-11	-2,92
400,644	-12	-3,006
402,762	-10	-2,756
404,88	-9	-2,576
406,998	-8	-2,419
409,116	-7,5	-2,398
411,24	-7,5	-2,347
413,37	-7,5	-2,402
415,493	-7,5	-2,39
417,617	-8,5	-2,477
419,747	-9	-2,6
421,871	-8	-2,46
423,989	-7	-2,32
426,113	-7,5	-2,399
428,231	-7	-2,436
430,361	-8	-2,431
432,478	-8,5	-2,506
434,596	-8,5	-2,5
436,72	-8,5	-2,514
438,85	-9	-2,648
440,98	-10,5	-2,786
443,104	-10,5	-2,822
445,222	-10	-2,721
447,352	-10	-2,796
449,475	-11,5	-2,89
451,593	-10,5	-2,9
453,717	-11,5	-2,951
455,841	-12	-3,056
457,959	-13,5	-3,161
460,077	-14,5	-3,292
462,201	-15	-3,359
464,319	-16,5	-3,418
466,449	-17	-3,446
468,573	-17,5	-3,466
470,69	-18	-3,473
472,814	-18	-3,482
474,932	-17,5	-3,478
477,056	-18	-3,481
479,174	-18	-3,486
481,298	-18	-3,488
483,416	-18	-3,492
485,539	-18	-3,492
487,663	-18	-3,493
489,787	-18	-3,495
491,911	-18	-3,496
494,035	-18	-3,497
496,159	-18	-3,498
498,277	-18	-3,498
500,407	-18	-3,498
502,53	-18	-3,499
504,654	-18	-3,5
506,784	-18	-3,495
508,908	-18	-3,374
511,032	-18	-3,302
513,15	-18	-3,187
515,274	-16,5	-3,082
517,392	-15	-2,976
519,509	-15,5	-2,8
521,639	-12	-2,598
523,763	-11	-2,435
525,893	-9	-2,273
528,023	-9	-2,161
530,153	-7	-1,984
532,283	-6	-1,85
534,401	-5,5	-1,745
536,531	-5	-1,711
538,654	-4,5	-1,618
540,778	-4,5	-1,509
542,902	-3,5	-1,405
545,026	-3	-1,247
547,15	-2	-1,038
549,268	-2	-0,942
551,398	-1	-0,738
553,515	-0,5	-0,617
555,633	0	-0,51
557,751	0	-0,305
559,875	0,5	-0,179
561,999	1	-0,094
564,123	1,5	-0,064
566,253	2	-0,035
568,371	2	-0,024
570,495	2	-0,022
572,618	2	-0,014
574,748	2	-0,009
576,872	2	-0,005
578,996	2	-0,004
581,12	2	-0,003
583,238	2	-0,003
585,362	2	-0,001
587,486	2	-0,002
589,603	2	-0,001
591,721	2,5	-0,001
593,845	2,5	0
595,963	2	0
598,081	2	0
600,199	2	0
602,317	2	-0,027
604,441	2	-0,158
606,564	2	-0,195
608,682	2	-0,177
610,806	1,5	-0,274
612,924	1,5	-0,3
615,054	1,5	-0,415
617,178	0,5	-0,577
619,302	0,5	-0,581
621,426	0	-0,675
623,549	-0,5	-0,71
625,667	-1	-0,832
627,791	-2	-1,036
629,915	-2,5	-1,21
632,039	-3	-1,356
634,157	-3	-1,472
636,281	-3	-1,512
638,399	-3,5	-1,545
640,523	-4	-1,617
642,646	-3,5	-1,576
644,764	-4	-1,603
646,9	-4	-1,762
649,024	-4,5	-1,828
651,166	-5	-1,964
653,296	-5,5	-2,083
655,414	-5,5	-2,108
657,538	-6,5	-2,298
659,667	-7,5	-2,426
661,791	-8	-2,551
663,909	-8	-2,551
666,033	-9	-2,661
668,157	-9,5	-2,801
670,287	-11,5	-2,985
672,411	-12,5	-3,151
674,541	-13,5	-3,239
676,67	-14	-3,304
678,794	-14,5	-3,358
680,912	-14,5	-3,363
683,042	-15	-3,389
685,166	-15	-3,406
687,296	-14,5	-3,429
689,414	-15,5	-3,434
691,538	-16	-3,448
693,661	-15,5	-3,46
695,779	-15,5	-3,458
697,897	-16,5	-3,463
700,021	-17	-3,47
702,139	-17	-3,476
704,263	-17	-3,484
706,381	-17	-3,488
708,505	-17	-3,492
710,629	-17	-3,494
712,758	-17	-3,495
714,876	-17	-3,496
717	-17	-3,498
719,13	-17	-3,498
721,254	-17	-3,499
723,372	-17	-3,5
725,496	-17	-3,5
727,614	-17	-3,493
729,737	-16	-3,203
731,855	-16,5	-3,134
733,979	-14	-2,954
736,097	-12	-2,768
738,221	-10,5	-2,547
740,339	-9	-2,403
742,463	-7,5	-2,214
744,581	-7,5	-2,188
746,704	-6,5	-2,041
748,828	-5	-1,805
750,946	-4,5	-1,608
753,07	-3,5	-1,435
755,194	-2,5	-1,283
757,312	-2,5	-1,229
759,442	-1,5	-1,103
761,566	-1	-0,955
763,689	-1	-0,867
765,807	0	-0,681
767,931	-0,5	-0,679
770,055	0	-0,469
772,179	0,5	-0,31
774,297	1,5	-0,131
776,421	1,5	-0,072
778,545	2	-0,045
780,669	2,5	-0,027
782,798	2,5	-0,013
784,916	2,5	-0,007
787,04	2,5	-0,004
789,164	2,5	-0,002
791,288	2,5	-0,001
793,406	2	0
795,53	2,5	-0,001
797,648	2,5	-0,073
799,771	2,5	-0,314
801,895	1,5	-0,392
804,019	1	-0,545
806,137	0	-0,699
808,261	-1,5	-0,951
810,385	-1,5	-1,107
812,509	-2	-1,213
814,633	-3	-1,422
816,75	-3	-1,651
818,868	-3,5	-1,784
820,992	-4,5	-1,93
823,116	-5	-2,151
825,234	-5,5	-2,241
827,364	-6	-2,37
829,482	-6,5	-2,486
831,612	-7,5	-2,589
833,735	-8,5	-2,756
835,859	-9	-2,812
837,977	-10	-2,941
840,101	-10	-3,001
842,225	-11,5	-3,221
844,343	-11,5	-3,196
846,467	-11,5	-3,193
848,585	-11,5	-3,181
850,715	-14	-3,368
852,838	-14	-3,389
854,956	-15	-3,431
857,074	-16	-3,466
859,192	-16	-3,478
861,316	-16	-3,486
863,446	-16,5	-3,488
865,564	-16,5	-3,49
867,688	-16,5	-3,494
869,799	-16,5	-3,496
871,929	-16,5	-3,498
874,047	-16,5	-3,499
876,165	-16,5	-3,5
878,289	-17	-3,376
880,413	-16,5	-3,222
882,525	-16,5	-3,144
884,649	-14	-2,954
886,772	-13,5	-2,754
888,89	-10,5	-2,558
891,014	-10	-2,422
893,126	-8,5	-2,278
895,25	-6	-2,025
897,374	-5	-1,797
899,498	-4,5	-1,63
901,622	-4	-1,504
903,74	-3	-1,267
905,863	-2	-1,093
907,987	-1	-0,876
910,105	-0,5	-0,786
912,223	-1	-0,579
914,353	0	-0,351
916,471	0	-0,297
918,589	0,5	-0,196
920,707	1,5	-0,106
922,83	2	-0,047
924,96	2	-0,029
927,078	2	-0,015
929,202	2,5	-0,008
931,32	2,5	-0,006
933,438	2,5	-0,003
935,562	2,5	-0,002
937,68	2,5	-0,001
939,797	2,5	-0,001
941,921	2,5	0
944,045	2	-0,11
946,163	2	-0,29
948,281	1,5	-0,387
950,405	0	-0,614
952,517	0	-0,685
954,641	-1	-0,885
956,752	-1,5	-1,002
958,882	-2,5	-1,275
960,994	-3	-1,492
963,118	-3	-1,616
965,242	-4	-1,793
967,36	-4	-1,835
969,484	-4,5	-1,998
971,602	-5,5	-2,215
973,726	-6	-2,356
975,849	-7,5	-2,519
977,967	-8	-2,747
980,091	-10	-2,957
982,209	-10,5	-3,02
984,333	-12	-3,237
986,451	-13,5	-3,344
988,569	-15	-3,415
990,687	-15	-3,448
992,804	-15,5	-3,465
994,934	-16	-3,482
997,052	-16	-3,475
999,17	-16	-3,487
1001,288	-16,5	-3,487
1003,412	-16,5	-3,488
1005,534	-16	-3,494
1007,654	-16,5	-3,494
1009,777	-16	-3,496
1011,889	-16,5	-3,497
1014,013	-16	-3,496
1016,125	-16	-3,498
1018,249	-16	-3,498
1020,373	-16,5	-3,499
1022,491	-16,5	-3,475
1024,615	-16	-3,217
1026,744	-13	-2,883
1028,868	-11	-2,646
1030,986	-9,5	-2,428
1033,11	-7	-2,164
1035,228	-5	-1,879
1037,352	-4	-1,657
1039,47	-3,5	-1,557
1041,594	-3	-1,369
1043,711	-2	-1,177
1045,835	-1,5	-1,014
1047,953	-1	-0,865
1050,077	-0,5	-0,692
1052,201	0	-0,562
1054,313	0	-0,385
1056,431	0,5	-0,211
1058,549	1,5	-0,126
1060,667	2	-0,069
1062,784	2	-0,048
1064,902	2,5	-0,026
1067,032	2,5	-0,019
1069,15	2,5	-0,017
1071,286	2,5	-0,01
1073,404	2,5	-0,011
1075,528	2,5	-0,008
1077,646	2,5	-0,006
1079,763	2,5	-0,006
1081,881	2,5	-0,004
1084,005	2,5	-0,003
1086,123	2	-0,003
1088,247	2,5	-0,003
1090,371	2,5	-0,002
1092,483	2,5	-0,002
1094,607	2	-0,002
1096,724	2,5	-0,002
1098,848	2,5	-0,002
1100,966	2,5	-0,001
1103,09	2,5	-0,001
1105,202	2	-0,001
1107,326	2,5	0
1109,444	2,5	0
1111,568	2,5	0
1113,686	2,5	-0,042
1115,809	2	-0,125
1117,927	2	-0,148
1120,051	2,5	-0,23
1122,163	2,5	-0,037
1124,287	2,5	-0,241
1126,423	1,5	-0,46
1128,547	0,5	-0,611
1130,671	0	-0,749
1132,788	-0,5	-0,854
1134,906	-1	-0,896
1137,03	-1,5	-1,037
1139,148	-1,5	-1,116
1141,272	-1,5	-1,061
1143,396	-1,5	-1,048
1145,514	-2	-1,266
1147,632	-3	-1,431
1149,755	-3	-1,635
1151,873	-3	-1,55
1153,997	-3,5	-1,717
1156,121	-4,5	-1,93
1158,239	-4,5	-2,082
1160,363	-5,5	-2,287
1162,487	-6	-2,524
1164,605	-7,5	-2,636
1166,722	-8	-2,746
1168,84	-8,5	-2,826
1170,958	-9	-2,895
1173,076	-10	-2,959
1175,2	-11	-3,163
1177,318	-12	-3,317
1179,442	-13,5	-3,384
1181,56	-15	-3,433
1183,684	-15	-3,459
1185,807	-15,5	-3,481
1187,931	-16	-3,489
1190,049	-15,5	-3,494
1192,167	-15,5	-3,497
1194,291	-16	-3,498
1196,409	-15,5	-3,487
1198,539	-15,5	-3,218
1200,663	-14	-2,963
1202,78	-12,5	-2,808
1204,904	-10,5	-2,609
1207,022	-9,5	-2,444
1209,146	-7	-2,134
1211,264	-5,5	-1,91
1213,382	-4,5	-1,782
1215,512	-3	-1,49
1217,63	-2,5	-1,245
1219,753	-1	-0,956
1221,871	-0,5	-0,674
1223,995	0	-0,42
1226,113	0	-0,26
1228,237	1	-0,129
1230,355	1,5	-0,076
1232,467	2	-0,046
1234,585	2	-0,021
1236,702	2	-0,01
1238,82	2,5	-0,007
1240,938	2	-0,003
1243,056	2	-0,002
1245,18	2	-0,001
1247,298	2	-0,06
1249,416	2	-0,209
1251,534	1,5	-0,393
1253,652	1,5	-0,547
1255,769	-0,5	-0,696
1257,893	-1	-0,863
1260,017	-1,5	-1,047
1262,135	-2	-1,17
1264,259	-2,5	-1,385
1266,377	-3	-1,625
1268,501	-3,5	-1,796
1270,619	-4	-1,924
1272,736	-4,5	-2,046
1274,854	-5,5	-2,291
1276,984	-7	-2,504
1279,102	-7	-2,621
1281,226	-8,5	-2,783
1283,344	-10	-3
1285,462	-11,5	-3,256
1287,58	-12	-3,348
1289,697	-14	-3,42
1291,821	-14,5	-3,448
1293,939	-15	-3,466
1296,063	-15,5	-3,485
1298,181	-15,5	-3,49
1300,299	-15,5	-3,495
1302,417	-15,5	-3,497
1304,541	-15,5	-3,498
1306,664	-15,5	-3,5
1308,782	-15,5	-3,388
1310,906	-15	-3,18
1313,018	-15	-3,09
1315,142	-13	-2,918
1317,26	-12	-2,838
1319,384	-10,5	-2,634
1321,508	-9,5	-2,503
1323,626	-8	-2,327
1325,743	-7,5	-2,28
1327,873	-6	-2,018
1329,997	-4	-1,684
1332,115	-3,5	-1,542
1334,239	-3,5	-1,588
1336,357	-4	-1,609
1338,475	-4	-1,634
1340,587	-3,5	-1,602
1342,716	-3	-1,414
1344,834	-2,5	-1,277
1346,958	-1,5	-1,146
1349,076	-1,5	-1,014
1351,2	-0,5	-0,745
1353,318	0	-0,591
1355,436	0	-0,427
1357,56	0	-0,281
1359,677	1	-0,18
1361,795	0	-0,247
1363,913	0,5	-0,172
1366,037	1	-0,158
1368,161	1	-0,174
1370,273	1	-0,114
1372,397	1,5	-0,112
1374,515	1	-0,128
1376,644	1,5	-0,073
1378,762	2	-0,056
1380,886	2	-0,028
1383,004	2	-0,038
1385,128	2	-0,022
1387,246	2,5	-0,016
1389,364	2,5	-0,009
1391,482	2,5	-0,006
1393,6	3	-0,003
1395,723	2,5	-0,002
1397,841	2,5	-0,001
1399,959	2,5	0
1402,089	2,5	-0,085
1404,207	2,5	-0,213
1406,331	2	-0,346
1408,449	1,5	-0,506
1410,567	0	-0,666
1412,69	0	-0,802
1414,814	-1	-0,911
1416,938	-1,5	-1,042
1419,056	-1,5	-1,202
1421,174	-2	-1,216
1423,292	-2,5	-1,439
1425,416	-3	-1,617
1427,54	-3	-1,753
1429,657	-3,5	-1,816
1431,775	-4	-1,917
1433,893	-4	-2,007
1436,011	-4,5	-2,113
1438,141	-5	-2,337
1440,265	-6	-2,484
1442,383	-7	-2,622
1444,501	-7	-2,67
1446,624	-8,5	-2,86
1448,748	-9	-2,974
1450,872	-11	-3,179
1452,984	-12	-3,3
1455,096	-13	-3,36
1457,214	-13,5	-3,385
1459,338	-14	-3,414
1461,456	-14,5	-3,444
1463,58	-14,5	-3,465
1465,697	-15	-3,476
1467,815	-15	-3,486
1469,933	-15	-3,489
1472,051	-15,5	-3,493
1474,175	-15	-3,497
1476,299	-15	-3,498
1478,417	-15	-3,499
1480,535	-15	-3,499
1482,652	-15	-3,499
1484,776	-15	-3,478
1486,894	-15	-3,375
1489,006	-15	-3,242
1491,134	-14	-3,027
1493,254	-12	-2,888
1495,372	-11	-2,798
1497,496	-10	-2,609
1499,613	-8,5	-2,444
1501,737	-8	-2,368
1503,855	-7	-2,272
1505,973	-5,5	-2,107
1508,091	-5	-2,002
1510,215	-5	-1,897
1512,345	-4	-1,732
1514,463	-4	-1,614
1516,58	-2,5	-1,418
1518,704	-2	-1,176
1520,822	-1,5	-1,049
1522,946	-1	-0,898
1525,058	-0,5	-0,859
1527,176	-0,5	-0,736
1529,3	0	-0,563
1531,412	0	-0,424
1533,536	0,5	-0,275
1535,653	1	-0,2
1537,771	1,5	-0,126
1539,895	1,5	-0,066
1542,007	2	-0,061
1544,125	2	-0,037
1546,249	2	-0,02
1548,367	2,5	-0,013
1550,491	2,5	-0,009
1552,608	2,5	-0,005
1554,732	2,5	-0,003
1556,856	2,5	-0,002
1558,974	2,5	-0,001
1561,092	2,5	-0,003
1563,216	2,5	-0,211
1565,334	2	-0,324
1567,458	1,5	-0,434
1569,575	1	-0,513
1571,693	0,5	-0,694
1573,817	-1	-0,921
1575,941	-1,5	-1,083
1578,059	-2	-1,253
1580,177	-2,5	-1,417
1582,295	-3	-1,593
1584,419	-3,5	-1,834
1586,536	-4	-2,063
1588,654	-4,5	-2,179
1590,778	-5	-2,342
1592,896	-5,5	-2,422
1595,014	-6,5	-2,642
1597,132	-8	-2,815
1599,256	-9	-2,998
1601,374	-10,5	-3,156
1603,492	-11	-3,255
1605,609	-12,5	-3,336
1607,733	-13,5	-3,407
1609,851	-14,5	-3,441
1611,975	-14,5	-3,459
1614,093	-15	-3,473
1616,211	-15	-3,485
1618,329	-15	-3,486
1620,447	-15	-3,488
1622,57	-15	-3,491
1624,688	-15	-3,496
1626,812	-15	-3,498
1628,936	-15	-3,499
1631,06	-15	-3,499
1633,178	-15	-3,499
1635,302	-15	-3,478
1637,42	-15	-3,365
1639,543	-14,5	-3,156
1641,673	-13	-2,969
1643,791	-12	-2,852
1645,915	-10,5	-2,695
1648,027	-9,5	-2,603
1650,145	-9	-2,528
1652,269	-8	-2,419
1654,381	-7	-2,316
1656,498	-6	-2,174
1658,622	-4,5	-1,937
1660,734	-5	-1,935
1662,852	-4,5	-1,834
1664,976	-4	-1,694
1667,1	-3	-1,589
1669,224	-2,5	-1,42
1671,342	-2	-1,225
1673,454	-1,5	-1,17
1675,577	-1	-0,976
1677,701	-1	-0,919
1679,813	-0,5	-0,854
1681,931	-0,5	-0,706
1684,049	0	-0,611
1686,167	0	-0,436
1688,285	0	-0,395
1690,403	0,5	-0,279
1692,532	0,5	-0,216
1694,65	1	-0,119
1696,768	1,5	-0,088
1698,886	2	-0,059
1701,01	2	-0,04
1703,128	2,5	-0,023
1705,252	2,5	-0,013
1707,37	2,5	-0,011
1709,487	2,5	-0,009
1711,611	2,5	-0,006
1713,729	2,5	-0,004
1715,847	2,5	-0,002
1717,971	2,5	-0,001
1720,089	2,5	-0,001
1722,207	2,5	-0,001
1724,325	2,5	-0,001
1726,442	2,5	-0,001
1728,566	2,5	-0,001
1730,69	2,5	-0,001
1732,808	2,5	-0,002
1734,932	2,5	-0,002
1737,05	2,5	-0,002
1739,168	2,5	-0,001
1741,286	2,5	-0,001
1743,41	2,5	-0,001
1745,527	2,5	-0,001
1747,645	2,5	-0,001
1749,769	2,5	-0,001
1751,887	2,5	-0,001
1754,005	2,5	-0,001
1756,129	2,5	-0,001
1758,247	2,5	-0,001
1760,365	2,5	0
1762,494	2,5	-0,001
1764,612	2,5	-0,013
1766,736	2	-0,048
1768,854	2	-0,001
1770,972	2,5	-0,001
1773,096	2,5	-0,001
1775,214	2,5	0
1777,332	2,5	-0,032
1779,455	2,5	-0,129
1781,573	2,5	-0,086
1783,691	2,5	-0,128
1785,815	2,5	-0,299
1787,933	2	-0,351
1790,051	1,5	-0,395
1792,175	1,5	-0,462
1794,293	0,5	-0,611
1796,41	0	-0,727
1798,534	-0,5	-0,852
1800,652	-1	-0,921
1802,776	-1	-1,026
1804,9	-1,5	-1,161
1807,018	-1,5	-1,251
1809,136	-2	-1,32
1811,26	-1,5	-1,169
1813,378	-1,5	-1,142
1815,501	-1,5	-1,241
1817,625	-1,5	-1,292
1819,737	-1,5	-1,314
1821,855	-2	-1,335
1823,979	-1,5	-1,35
1826,097	-2	-1,333
1828,215	-2	-1,46
1830,339	-2,5	-1,527
1832,456	-2,5	-1,564
1834,574	-2,5	-1,596
1836,698	-2,5	-1,636
1838,816	-3	-1,757
1840,934	-3	-1,778
1843,058	-3,5	-1,941
1845,176	-3,5	-2,03
1847,294	-4	-2,078
1849,411	-3,5	-2,046
1851,529	-4,5	-2,126
1853,647	-4,5	-2,189
1855,771	-5	-2,266
1857,895	-5	-2,386
1860,013	-5,5	-2,449
1862,131	-6	-2,541
1864,249	-7	-2,656
1866,366	-7,5	-2,756
1868,484	-8	-2,921
1870,602	-8,5	-3
1872,72	-9	-3,085
1874,838	-9,5	-3,127
1876,95	-11,5	-3,321
1879,068	-13	-3,394
1881,186	-13,5	-3,416
1883,31	-14	-3,441
1885,427	-14,5	-3,458
1887,551	-14,5	-3,47
1889,663	-14,5	-3,479
1891,781	-15	-3,485
1893,905	-15	-3,492
1896,017	-15	-3,494
1898,135	-15	-3,496
1900,259	-15	-3,498
1902,376	-15	-3,499
1904,494	-15	-3,499
1906,612	-15	-3,5
1908,736	-15	-3,5
1910,854	-15	-3,46
1912,972	-15	-3,388
1915,09	-15	-3,322
1917,208	-15	-3,258
1919,331	-14,5	-3,146
1921,449	-14	-3,12
1923,567	-14	-3,09
1925,685	-14,5	-3,176
1927,803	-14	-3,144
1929,927	-14	-3,092
1932,039	-14,5	-3,106
1934,163	-12	-2,933
1936,281	-11,5	-2,778
1938,398	-11	-2,731
1940,516	-10	-2,641
1942,634	-10	-2,642
1944,758	-9,5	-2,585
1946,876	-9,5	-2,57
1949	-9,5	-2,54
1951,112	-9,5	-2,581
1953,23	-9	-2,565
1955,354	-8,5	-2,445
1957,471	-8	-2,414
1959,589	-7,5	-2,356
1961,713	-6	-2,156
1963,825	-5	-2,022
1965,949	-4	-1,823
1968,073	-3,5	-1,703
1970,191	-3,5	-1,58
1972,302	-2,5	-1,478
1974,432	-2	-1,26
1976,55	-1,5	-1,084
1978,674	-0,5	-0,852
1980,792	0	-0,575
1982,916	0	-0,355
1985,034	1	-0,149
1987,146	1,5	-0,094
1989,269	2	-0,052
1991,387	2	-0,032
1993,505	2	-0,021
1995,629	2,5	-0,011
1997,753	2,5	-0,005
1999,877	3	-0,003
2002,001	2,5	-0,003
2004,119	2,5	-0,002
2006,236	2,5	-0,001
2008,354	2,5	-0,001
2010,478	2,5	-0,001
2012,596	2,5	-0,001
2014,714	2,5	-0,001
2016,838	2,5	-0,001
2018,956	2,5	-0,001
2021,074	2,5	-0,001
2023,198	2,5	-0,002
2025,315	2,5	-0,001
2027,439	2,5	-0,14
2029,563	2,5	-0,278
2031,675	2,5	-0,221
2033,799	2	-0,261
2035,923	2	-0,345
2038,041	2	-0,377
2040,153	1,5	-0,459
2042,276	0,5	-0,552
2044,394	0	-0,712
2046,512	-0,5	-0,876
2048,636	-1,5	-1,065
2050,754	-1,5	-1,107
2052,872	-1	-1,134
2054,99	-1,5	-1,067
2057,114	-1	-1,004
2059,231	-1	-1,024
2061,349	-1	-1,03
2063,473	-1,5	-1,101
2065,591	-1,5	-1,186
2067,709	-1,5	-1,212
2069,827	-1,5	-1,227
2071,945	-1,5	-1,254
2074,069	-1,5	-1,278
2076,187	-1,5	-1,32
2078,31	-1,5	-1,382
2080,428	-2	-1,436
2082,546	-2	-1,407
2084,664	-2	-1,492
2086,782	-2,5	-1,502
2088,9	-2,5	-1,608
2091,024	-3	-1,717
2093,136	-3	-1,656
2095,253	-3	-1,709
2097,371	-3	-1,73
2099,495	-3,5	-1,866
2101,607	-3	-1,893
2103,725	-3,5	-1,978
2105,849	-3,5	-2,039
2107,967	-4	-2,125
2110,085	-4	-2,166
2112,202	-5	-2,295
2114,32	-5	-2,426
2116,438	-5	-2,372
2118,556	-5,5	-2,456
2120,674	-6	-2,611
2122,792	-6,5	-2,717
2124,916	-7,5	-2,869
2127,034	-8	-2,841
2129,151	-8	-2,89
2131,269	-9	-3,032
2133,393	-10,5	-3,252
2135,517	-12	-3,367
2137,635	-13,5	-3,434
2139,759	-13,5	-3,446
2141,871	-13,5	-3,449
2143,989	-14	-3,453
2146,112	-14	-3,475
2148,23	-14,5	-3,484
2150,348	-14,5	-3,49
2152,466	-14,5	-3,492
2154,596	-14,5	-3,495
2156,708	-14,5	-3,496
2158,826	-14,5	-3,497
2160,938	-14,5	-3,498
2163,056	-14,5	-3,499
2165,173	-14,5	-3,499
2167,285	-14,5	-3,5
2169,403	-14,5	-3,466
2171,533	-14	-3,256
2173,645	-13,5	-3,118
2175,757	-13	-3,074
2177,881	-11	-2,884
2179,999	-10	-2,758
2182,122	-8,5	-2,595
2184,24	-7,5	-2,446
2186,364	-6,5	-2,32
2188,482	-6	-2,252
2190,606	-4	-1,978
2192,724	-4	-1,844
2194,848	-3	-1,651
2196,966	-2,5	-1,502
2199,083	-2	-1,338
2201,201	-1,5	-1,206
2203,319	-0,5	-1,004
2205,437	0	-0,739
2207,567	0	-0,475
2209,685	0,5	-0,277
2211,803	1,5	-0,127
2213,921	1,5	-0,063
2216,039	2,5	-0,04
2218,162	2,5	-0,022
2220,28	2,5	-0,012
2222,398	3	-0,006
2224,522	2,5	-0,004
2226,64	2,5	-0,002
2228,758	2,5	-0,002
2230,888	2,5	-0,001
2233,012	2	0
2235,129	2,5	-0,072
2237,247	2	-0,126
2239,371	2,5	-0,211
2241,489	2	-0,33
2243,607	1	-0,484
2245,725	0	-0,569
2247,843	0	-0,665
2249,961	-0,5	-0,84
2252,079	-0,5	-0,935
2254,202	-1	-1,045
2256,32	-1	-1,129
2258,438	-1	-1,241
2260,562	-1,5	-1,414
2262,68	-1,5	-1,43
2264,798	-2	-1,567
2266,928	-2,5	-1,664
2269,045	-3	-1,76
2271,163	-3	-1,855
2273,275	-3	-1,956
2275,399	-3,5	-2,051
2277,517	-3,5	-2,188
2279,635	-4	-2,326
2281,753	-5	-2,555
2283,871	-6	-2,735
2285,989	-7	-2,884
2288,106	-9	-3,181
2290,23	-10,5	-3,344
2292,354	-12	-3,43
2294,472	-12,5	-3,452
2296,59	-13	-3,47
2298,708	-13,5	-3,477
2300,832	-13,5	-3,486
2302,95	-13,5	-3,492
2305,067	-13,5	-3,494
2307,191	-13,5	-3,495
2309,309	-13,5	-3,497
2311,427	-13,5	-3,499
2313,545	-13,5	-3,494
2315,669	-13,5	-3,347
2317,787	-13	-3,148
2319,905	-11,5	-2,939
2322,022	-9	-2,716
2324,14	-7	-2,484
2326,258	-6	-2,35
2328,37	-5,5	-2,232
2330,49	-4,5	-2,04
2332,606	-3,5	-1,819
2334,724	-3	-1,611
2336,842	-2	-1,405
2338,972	-1	-1,169
2341,083	-1	-1,088
2343,201	0	-0,795
2345,319	0	-0,595
2347,437	0	-0,488
2349,555	1	-0,251
2351,673	1	-0,169
2353,797	2	-0,072
2355,914	2,5	-0,04
2358,032	2,5	-0,02
2360,15	2,5	-0,013
2362,28	2,5	-0,007
2364,398	2,5	-0,004
2366,516	2,5	-0,002
2368,634	2,5	-0,001
2370,758	2,5	-0,001
2372,876	2,5	-0,001
2374,999	2,5	0
2377,117	2,5	-0,126
2379,241	2	-0,308
2381,359	1,5	-0,474
2383,471	1,5	-0,54
2385,589	0,5	-0,655
2387,707	0	-0,735
2389,825	0	-0,772
2391,942	-0,5	-0,862
2394,066	-0,5	-1,035
2396,184	-1	-1,126
2398,302	-1	-1,2
2400,42	-1,5	-1,337
2402,538	-1,5	-1,405
2404,656	-1,5	-1,453
2406,774	-2	-1,474
2408,891	-1,5	-1,565
2411,009	-2	-1,634
2413,127	-2	-1,648
2415,245	-2	-1,734
2417,363	-2,5	-1,855
2419,493	-3	-2,021
2421,611	-3	-2,068
2423,729	-3	-2,138
2425,847	-3,5	-2,227
2427,97	-4	-2,363
2430,094	-4,5	-2,494
2432,212	-5	-2,584
2434,336	-5	-2,651
2436,454	-5,5	-2,73
2438,578	-6	-2,846
2440,702	-7,5	-3,066
2442,826	-7,5	-3,164
2444,943	-8,5	-3,261
2447,061	-9,5	-3,331
2449,179	-10	-3,37
2451,297	-11	-3,423
2453,409	-11,5	-3,44
2455,527	-11,5	-3,459
2457,651	-12	-3,473
2459,781	-12	-3,484
2461,898	-12	-3,488
2464,016	-12	-3,49
2466,14	-12	-3,494
2468,258	-12	-3,496
2470,37	-12	-3,497
2472,488	-12	-3,498
2474,606	-12	-3,499
2476,718	-12	-3,499
2478,836	-12	-3,475
2480,959	-12	-3,337
2483,083	-12	-3,222
2485,201	-11,5	-3,124
2487,319	-10	-2,981
2489,437	-8,5	-2,8
2491,555	-7,5	-2,68
2493,679	-6	-2,479
2495,797	-5,5	-2,378
2497,92	-4,5	-2,237
2500,038	-4,5	-2,146
2502,156	-4	-2,105
2504,274	-3,5	-2,038
2506,398	-3,5	-1,974
2508,516	-3	-1,831
2510,634	-3	-1,815
2512,752	-2,5	-1,763
2514,875	-2	-1,648
2516,993	-1,5	-1,515
2519,111	-1,5	-1,414
2521,223	-1	-1,234
2523,341	-1,5	-1,25
2525,453	-1	-1,199
2527,577	-1	-1,16
2529,695	-0,5	-1,065
2531,812	-0,5	-0,98
2533,93	0	-0,901
2536,048	0	-0,9
2538,172	0	-0,801
2540,29	0	-0,654
2542,426	0	-0,399
2544,544	0,5	-0,378
2546,668	1	-0,224
2548,786	1	-0,167
2550,903	1,5	-0,144
2553,021	1	-0,126
2555,145	1,5	-0,098
2557,258	1,5	-0,067
2559,369	2	-0,054
2561,493	2	-0,039
2563,611	2	-0,03
2565,729	2	-0,022
2567,846	2,5	-0,015
2569,976	2,5	-0,01
2572,088	2,5	-0,007
2574,206	2,5	-0,006
2576,324	2,5	-0,009
2578,448	2,5	-0,008
2580,566	2,5	-0,008
2582,684	2,5	-0,01
2584,801	2,5	-0,007
2586,925	2,5	-0,007
2589,043	2,5	-0,008
2591,161	2,5	-0,007
2593,279	2,5	-0,006
2595,397	2,5	-0,006
2597,521	2,5	-0,006
2599,633	2,5	-0,007
2601,744	2,5	-0,008
2603,862	2,5	-0,01
2605,986	2,5	-0,008
2608,104	2,5	-0,006
2610,222	2,5	-0,004
2612,34	2,5	-0,004
2614,47	2,5	-0,003
2616,588	2,5	-0,002
2618,706	2,5	-0,001
2620,823	2,5	-0,001
2622,941	2,5	-0,001
2625,065	2,5	-0,001
2627,183	2,5	-0,001
2629,301	2,5	0
2631,419	2,5	0
2633,543	2,5	0
2635,661	2,5	-0,003
2637,778	2,5	-0,072
2639,896	2,5	-0,136
2642,02	2,5	-0,234
2644,138	2	-0,288
2646,256	2,5	-0,305
2648,374	2	-0,384
2650,504	1	-0,481
2652,622	0,5	-0,562
2654,739	0	-0,662
2656,857	0	-0,773
2658,981	0	-0,718
2661,099	0	-0,638
2663,223	0	-0,758
2665,341	0	-0,842
2667,465	-0,5	-0,994
2669,583	-0,5	-1,016
2671,7	-0,5	-1,02
2673,824	-0,5	-0,971
2675,942	-0,5	-0,996
2678,06	-0,5	-0,88
2680,178	-0,5	-0,926
2682,296	-0,5	-0,867
2684,414	0	-0,734
2686,544	0	-0,731
2688,661	0,5	-0,569
2690,779	0	-0,586
2692,903	0,5	-0,573
2695,021	0,5	-0,556
2697,139	0,5	-0,576
2699,257	1	-0,47
2701,375	1	-0,486
2703,499	1	-0,521
2705,617	0	-0,643
2707,734	0	-0,738
2709,858	-0,5	-0,859
2711,982	-0,5	-0,91
2714,1	-0,5	-1,02
2716,218	-1	-1,057
2718,336	-1	-1,19
2720,46	-1	-1,194
2722,578	-1	-1,208
2724,695	-1	-1,14
2726,807	-1	-1,184
2728,925	-1	-1,22
2731,043	-1	-1,304
2733,161	-1	-1,266
2735,285	-1,5	-1,302
2737,409	-1,5	-1,347
2739,533	-1	-1,313
2741,65	-1,5	-1,366
2743,768	-1	-1,392
2745,886	-1,5	-1,419
2748,004	-1	-1,275
2750,122	-1,5	-1,29
2752,24	-1	-1,29
2754,358	-1	-1,252
2756,482	-1,5	-1,431
2758,606	-1,5	-1,476
2760,723	-1,5	-1,582
2762,841	-1,5	-1,666
2764,965	-2	-1,755
2767,083	-2	-1,797
2769,201	-2,5	-1,92
2771,313	-2,5	-1,915
2773,437	-2,5	-1,987
2775,555	-2,5	-2,03
2777,666	-2	-2,004
2779,784	-2	-1,961
2781,908	-2,5	-2,188
2784,033	-2,5	-2,366
2786,15	-3	-2,418
2788,268	-3,5	-2,621
2790,392	-3	-2,528
2792,51	-3,5	-2,544
2794,621	-3	-2,481
2796,739	-3	-2,47
2798,861	-3	-2,537
2800,981	-3	-2,414
2803,105	-3	-2,342
2805,223	-3	-2,412
2807,341	-3	-2,38
2809,459	-3	-2,448
2811,576	-3	-2,363
2813,694	-3	-2,373
2815,812	-3	-2,436
2817,936	-3	-2,471
2820,054	-3	-2,497
2822,166	-3	-2,456
2824,284	-3	-2,477
2826,408	-3,5	-2,57
2828,526	-4	-2,666
2830,643	-3,5	-2,718
2832,761	-4	-2,762
2834,891	-4,5	-2,853
2837,009	-4	-2,74
2839,127	-4	-2,692
2841,245	-3	-2,426
2843,369	-3	-2,466
2845,493	-3	-2,538
2847,61	-3,5	-2,682
2849,722	-3,5	-2,706
2851,84	-3,5	-2,726
2853,964	-4,5	-2,856
2856,082	-4,5	-2,925
2858,2	-4,5	-2,993
2860,318	-4,5	-3,035
2862,436	-5,5	-3,184
2864,553	-5	-3,029
2866,671	-5,5	-3,146
2868,789	-5,5	-3,204
2870,913	-6	-3,291
2873,025	-6	-3,242
2875,149	-5,5	-3,185
2877,267	-5,5	-3,2
2879,397	-6	-3,308
2881,514	-6	-3,314
2883,632	-6,5	-3,353
2885,756	-7,5	-3,4
2887,874	-7,5	-3,387
2889,998	-7,5	-3,4
2892,116	-7,5	-3,416
2894,234	-8,5	-3,438
2896,352	-8,5	-3,437
2898,47	-8,5	-3,452
2900,587	-8,5	-3,452
2902,711	-8,5	-3,464
2904,829	-9	-3,466
2906,953	-9	-3,469
2909,071	-9	-3,472
2911,189	-9	-3,478
2913,307	-9	-3,484
2915,425	-9	-3,488
2917,548	-9	-3,49
2919,666	-9,5	-3,49
2921,784	-9,5	-3,492
2923,902	-9,5	-3,492
2926,02	-9,5	-3,494
2928,144	-9,5	-3,496
2930,262	-9,5	-3,497
2932,38	-9,5	-3,498
2934,503	-9	-3,499
2936,621	-9,5	-3,499
2938,739	-9	-3,499
2940,857	-9,5	-3,388
2942,975	-9,5	-3,267
2945,093	-8	-3,051
2947,211	-8	-3,036
2949,329	-8	-3,08
2951,446	-8	-3,036
2953,564	-6,5	-2,92
2955,688	-6	-2,836
2957,8	-4,5	-2,675
2959,918	-5	-2,75
2962,036	-5,5	-2,613
2964,16	-3,5	-2,413
2966,284	-3	-2,346
2968,402	-3	-2,362
2970,525	-3	-2,386
2972,649	-2,5	-2,144
2974,773	-2	-1,965
2976,891	-1,5	-1,822
2979,009	-1	-1,738
2981,133	-1	-1,612
2983,251	-0,5	-1,533
2985,369	-0,5	-1,358
2987,492	-0,5	-1,284
2989,61	0	-1,201
2991,734	0	-1,081
2993,852	0	-0,975
2995,97	0	-0,821
2998,088	0	-0,619
3000,206	0	-0,464
3002,324	0,5	-0,339
3004,441	1	-0,192
3006,559	1,5	-0,101
3008,683	2	-0,052
3010,801	2,5	-0,029
3012,919	2,5	-0,015
3015,037	2	-0,01
3017,161	2,5	-0,006
3019,279	2,5	-0,003
3021,396	2,5	-0,001
3023,514	2	-0,001
3025,632	2	0
3027,756	2,5	-0,196
3029,874	2	-0,412
3031,992	0,5	-0,54
3034,11	0	-0,71
3036,234	0	-0,872
3038,351	-0,5	-1,063
3040,463	-0,5	-1,186
3042,581	-1	-1,384
3044,699	-1	-1,594
3046,823	-1,5	-1,812
3048,941	-1,5	-1,934
3051,053	-2	-2,1
3053,171	-2	-2,206
3055,295	-2,5	-2,39
3057,418	-3	-2,588
3059,536	-3	-2,679
3061,654	-3,5	-2,806
3063,772	-4	-2,949
3065,896	-5	-3,155
3068,014	-5,5	-3,284
3070,138	-6,5	-3,39
3072,256	-7	-3,416
3074,373	-7,5	-3,455
3076,497	-8	-3,48
3078,621	-8	-3,489
3080,739	-8,5	-3,493
3082,857	-8	-3,495
3084,981	-8,5	-3,497
3087,099	-8,5	-3,498
3089,217	-8,5	-3,498
3091,334	-8,5	-3,499
3093,452	-8,5	-3,496
3095,576	-8,5	-3,353
3097,688	-8	-3,249
3099,806	-7	-3,039
3101,924	-5,5	-2,864
3104,042	-4,5	-2,704
3106,172	-3,5	-2,586
3108,29	-3	-2,459
3110,407	-2,5	-2,336
3112,525	-2,5	-2,216
3114,655	-1,5	-2,059
3116,773	-1,5	-1,896
3118,897	-1	-1,749
3121,015	-0,5	-1,611
3123,133	-0,5	-1,458
3125,257	0	-1,327
3127,368	0	-1,214
3129,486	0	-1,05
3131,604	0	-0,954
3133,728	0	-0,797
3135,846	0	-0,696
3137,964	0	-0,58
3140,082	0	-0,494
3142,2	0,5	-0,33
3144,323	0,5	-0,204
3146,435	1,5	-0,116
3148,553	1,5	-0,078
3150,677	2	-0,046
3150,947	2,5	-0,001