File: ensaios_Ciclicos/_40perc/_3gap/entrada/_3.txt
Time (s)	Load (N)	Displacement (mm)
0	0	-0,036
2,219	-0,5	-0,599
4,337	-0,5	-0,592
6,449	-0,5	-0,556
8,561	-1	-0,665
10,673	-0,5	-0,586
12,791	-0,5	-0,56
14,903	0	-0,439
17,015	0,5	-0,311
19,126	1	-0,114
21,238	1	-0,012
23,35	1	0
25,462	1	-0,001
27,58	1,5	-0,002
29,692	1,5	-0,002
31,81	1	-0,001
33,922	1	-0,001
36,033	1,5	-0,002
38,145	1,5	-0,003
40,257	1,5	-0,003
42,369	1,5	-0,004
44,481	1,5	-0,004
46,593	1,5	-0,005
48,705	1,5	-0,006
50,817	1,5	-0,008
52,928	1,5	-0,01
55,04	1,5	-0,015
57,164	1,5	-0,013
59,288	1,5	-0,009
61,4	1,5	-0,011
63,512	1,5	-0,01
65,624	1,5	-0,01
67,742	1,5	-0,01
69,853	1,5	-0,01
71,971	1,5	-0,008
74,083	1,5	-0,007
76,201	1,5	-0,008
78,319	1,5	-0,005
80,437	1,5	-0,004
82,561	1,5	-0,004
84,673	1,5	-0,005
86,791	1,5	-0,005
88,908	1,5	-0,006
91,026	1,5	-0,005
93,144	1,5	-0,004
95,262	1,5	-0,004
97,386	1,5	-0,005
99,498	1,5	-0,007
101,61	1,5	-0,011
103,721	1,5	-0,015
105,833	1,5	-0,023
107,945	1,5	-0,03
110,057	1,5	-0,036
112,187	1,5	-0,036
114,305	1,5	-0,034
116,429	1,5	-0,037
118,541	1,5	-0,045
120,659	1,5	-0,057
122,782	1	-0,056
124,894	1	-0,081
127,012	0,5	-0,1
129,13	1	-0,066
131,248	1,5	-0,053
133,366	1,5	-0,04
135,49	1,5	-0,033
137,614	1,5	-0,034
139,725	1,5	-0,034
141,849	1,5	-0,021
143,973	1,5	-0,014
146,091	1,5	-0,012
148,203	1,5	-0,008
150,327	1,5	-0,008
152,439	2	-0,011
154,551	1,5	-0,008
156,668	2	-0,009
158,804	2	-0,006
160,916	2	-0,007
163,034	2	-0,007
165,152	2	-0,009
167,282	2	-0,009
169,4	2	-0,009
171,518	2	-0,011
173,647	2	-0,011
175,765	2	-0,01
177,883	2	-0,011
180,001	2	-0,014
182,125	2	-0,015
184,249	2	-0,014
186,367	2	-0,013
188,479	2	-0,014
190,597	2	-0,012
192,715	2	-0,014
194,838	2	-0,012
196,956	2	-0,013
199,08	2	-0,011
201,192	2	-0,012
203,31	2	-0,01
205,434	2	-0,012
207,558	2	-0,012
209,675	2	-0,01
211,799	2	-0,008
213,911	2	-0,008
216,029	1,5	-0,008
218,147	2	-0,006
220,265	2	-0,006
222,389	2	-0,005
224,507	2	-0,004
226,636	2	-0,003
228,754	2	-0,003
230,884	2	-0,003
233,014	2	-0,003
235,138	2	-0,002
237,256	2	-0,002
239,38	2	-0,002
241,504	2	-0,002
243,633	2	-0,001
245,751	2	-0,001
247,875	2	-0,126
249,993	1,5	-0,216
252,117	1,5	-0,322
254,229	1,5	-0,334
256,353	1	-0,45
258,483	1	-0,546
260,601	1	-0,6
262,73	0	-0,696
264,848	-0,5	-0,75
266,96	-0,5	-0,831
269,084	-1,5	-1,046
271,208	-3	-1,251
273,332	-3,5	-1,387
275,456	-4	-1,581
277,586	-4,5	-1,716
279,715	-5,5	-1,935
281,839	-6	-2,151
283,957	-7	-2,236
286,075	-8	-2,416
288,211	-8,5	-2,457
290,335	-9	-2,541
292,459	-9,5	-2,671
294,583	-11	-2,882
296,706	-13	-3,1
298,824	-14	-3,223
300,948	-14,5	-3,329
303,06	-15	-3,358
305,184	-15,5	-3,382
307,308	-15,5	-3,387
309,426	-15	-3,364
311,544	-15,5	-3,383
313,673	-15	-3,389
315,797	-15	-3,39
317,921	-16	-3,413
320,039	-16,5	-3,434
322,157	-17	-3,459
324,275	-17,5	-3,469
326,393	-17,5	-3,471
328,523	-18	-3,482
330,646	-18	-3,49
332,77	-18	-3,491
334,9	-18	-3,494
337,012	-18	-3,496
339,13	-18	-3,497
341,254	-18	-3,498
343,378	-18	-3,499
345,502	-18	-3,499
347,626	-18	-3,499
349,749	-18	-3,387
351,873	-18	-3,333
353,997	-18	-3,226
356,121	-16,5	-3,056
358,245	-14,5	-2,834
360,363	-14	-2,749
362,493	-13	-2,642
364,611	-12	-2,526
366,735	-10,5	-2,31
368,858	-9,5	-2,174
370,982	-7,5	-2,011
373,106	-7,5	-1,944
375,236	-6	-1,756
377,36	-5	-1,653
379,472	-5	-1,583
381,596	-4	-1,378
383,719	-3	-1,274
385,843	-2,5	-1,143
387,979	-1,5	-0,92
390,091	-1,5	-0,754
392,215	-1	-0,619
394,333	-0,5	-0,495
396,463	0	-0,398
398,593	0	-0,219
400,723	1	-0,132
402,84	1,5	-0,083
404,976	1,5	-0,046
407,1	2	-0,026
409,224	2	-0,016
411,354	2	-0,01
413,472	2	-0,007
415,602	2	-0,005
417,726	2	-0,003
419,855	2	-0,002
421,979	2	-0,001
424,103	2	-0,012
426,227	2	-0,13
428,339	1,5	-0,262
430,463	1,5	-0,41
432,587	0	-0,6
434,711	0	-0,694
436,841	-1	-0,838
438,964	-2	-1,006
441,082	-2,5	-1,147
443,212	-2	-1,256
445,33	-3	-1,462
447,46	-4	-1,576
449,584	-4,5	-1,782
451,702	-5,5	-2,02
453,819	-5,5	-2,069
455,949	-6,5	-2,266
458,073	-8	-2,476
460,191	-9	-2,694
462,315	-10,5	-2,845
464,433	-10,5	-2,899
466,551	-11	-3,047
468,675	-12,5	-3,172
470,798	-13,5	-3,284
472,922	-14,5	-3,349
475,046	-15	-3,409
477,17	-16	-3,452
479,294	-17	-3,473
481,418	-17	-3,481
483,542	-17	-3,488
485,666	-17	-3,49
487,79	-17	-3,492
489,913	-17	-3,491
492,037	-17	-3,492
494,155	-17	-3,495
496,285	-17	-3,496
498,409	-17	-3,498
500,533	-17	-3,497
502,651	-17	-3,498
504,787	-17	-3,498
506,916	-17	-3,499
509,04	-17	-3,499
511,17	-17	-3,5
513,294	-17	-3,406
515,418	-17	-3,36
517,554	-16,5	-3,199
519,684	-15,5	-3,053
521,802	-15,5	-3,018
523,925	-15,5	-2,981
526,055	-13	-2,746
528,185	-12	-2,553
530,309	-9	-2,338
532,439	-9	-2,256
534,563	-8	-2,126
536,681	-7,5	-2,068
538,799	-6	-1,914
540,922	-5,5	-1,794
543,052	-5	-1,676
545,176	-5	-1,657
547,3	-4,5	-1,633
549,424	-5	-1,604
551,548	-4	-1,546
553,666	-4	-1,53
555,796	-3,5	-1,381
557,92	-3	-1,251
560,043	-2,5	-1,12
562,161	-1,5	-0,993
564,285	-2	-1
566,409	-1,5	-0,954
568,539	-1	-0,837
570,657	-1	-0,768
572,781	-1	-0,739
574,917	-0,5	-0,569
577,04	0	-0,401
579,164	0	-0,371
581,294	0,5	-0,218
583,418	0,5	-0,177
585,542	1	-0,117
587,666	1,5	-0,07
589,79	1,5	-0,048
591,914	2	-0,038
594,037	2	-0,03
596,167	2	-0,02
598,285	2,5	-0,012
600,404	2,5	-0,008
602,527	2,5	-0,005
604,663	2	-0,003
606,793	2	-0,002
608,917	2	-0,001
611,04	2,5	0
613,164	2	-0,071
615,294	1,5	-0,316
617,418	1,5	-0,485
619,542	0,5	-0,59
621,666	-0,5	-0,71
623,79	-1	-0,85
625,908	-1,5	-0,999
628,038	-2	-1,123
630,161	-2,5	-1,264
632,285	-3	-1,436
634,409	-3,5	-1,606
636,533	-3,5	-1,656
638,657	-4	-1,797
640,775	-4	-1,75
642,899	-4,5	-1,917
645,023	-5,5	-2,074
647,146	-6	-2,241
649,264	-7	-2,331
651,394	-7	-2,45
653,512	-8,5	-2,598
655,636	-9	-2,724
657,766	-10	-2,884
659,89	-10,5	-2,978
662,02	-12	-3,165
664,137	-12,5	-3,253
666,267	-14,5	-3,364
668,391	-15	-3,403
670,509	-15	-3,428
672,633	-15	-3,451
674,757	-15,5	-3,458
676,881	-16	-3,47
679,011	-16	-3,478
681,134	-16	-3,48
683,252	-16	-3,483
685,376	-16	-3,486
687,5	-16	-3,491
689,624	-16,5	-3,493
691,748	-16,5	-3,495
693,872	-16,5	-3,495
695,996	-16,5	-3,496
698,125	-16,5	-3,496
700,249	-16,5	-3,497
702,367	-16,5	-3,498
704,491	-16,5	-3,498
706,621	-16,5	-3,498
708,751	-16,5	-3,499
710,875	-16	-3,498
712,987	-16	-3,498
715,117	-16,5	-3,498
717,24	-16,5	-3,498
719,358	-16,5	-3,498
721,482	-16,5	-3,499
723,612	-16	-3,45
725,736	-16	-3,268
727,872	-15,5	-3,042
729,99	-15	-2,951
732,114	-13,5	-2,794
734,237	-11,5	-2,632
736,361	-9,5	-2,394
738,491	-8,5	-2,224
740,621	-7	-2,058
742,739	-6	-1,868
744,869	-5	-1,716
746,987	-4,5	-1,626
749,111	-4	-1,464
751,234	-3	-1,29
753,358	-2	-1,114
755,482	-1,5	-0,986
757,612	-1	-0,804
759,736	-0,5	-0,679
761,854	-0,5	-0,499
763,972	0	-0,283
766,096	1	-0,124
768,219	1,5	-0,069
770,343	2	-0,044
772,467	2	-0,031
774,597	2,5	-0,016
776,721	2	-0,012
778,839	2,5	-0,011
780,969	2,5	-0,01
783,087	2	-0,009
785,205	2,5	-0,01
787,34	2,5	-0,007
789,47	2	-0,008
791,588	2,5	-0,007
793,706	2	-0,008
795,83	2	-0,006
797,942	2	-0,007
800,066	2	-0,007
802,184	2	-0,008
804,313	2,5	-0,007
806,431	2,5	-0,006
808,549	2,5	-0,004
810,679	2,5	-0,002
812,797	2,5	-0,002
814,921	2,5	-0,002
817,045	2	-0,001
819,169	2,5	-0,048
821,286	2,5	-0,143
823,41	2	-0,192
825,528	2,5	-0,264
827,652	1,5	-0,32
829,776	2	-0,275
831,9	2	-0,332
834,024	2	-0,341
836,142	2	-0,41
838,265	1,5	-0,481
840,389	0,5	-0,621
842,513	0	-0,675
844,637	-0,5	-0,81
846,755	-0,5	-0,898
848,879	-1	-0,951
850,997	-1,5	-0,994
853,121	-1,5	-1,025
855,251	-1,5	-1,158
857,374	-2	-1,3
859,492	-2,5	-1,442
861,616	-3	-1,584
863,746	-3	-1,723
865,864	-3,5	-1,796
867,988	-3,5	-1,715
870,112	-4	-1,835
872,23	-3	-1,723
874,353	-3	-1,688
876,477	-3	-1,686
878,595	-3,5	-1,717
880,725	-3	-1,612
882,849	-3,5	-1,674
884,967	-3	-1,652
887,091	-3,5	-1,697
889,209	-3	-1,66
891,332	-3,5	-1,646
893,45	-3,5	-1,674
895,568	-3	-1,567
897,692	-3	-1,602
899,81	-2,5	-1,39
901,928	-2,5	-1,281
904,052	-2	-1,253
906,176	-2	-1,176
908,293	-1	-0,879
910,411	0,5	-0,595
912,535	1,5	-0,455
914,653	2	-0,332
916,783	1,5	-0,414
918,895	2	-0,345
921,025	1,5	-0,442
923,149	1	-0,489
925,267	1	-0,498
927,39	1	-0,533
929,514	0,5	-0,638
931,626	0,5	-0,565
933,75	1	-0,605
935,874	1	-0,549
937,998	0,5	-0,61
940,122	0,5	-0,614
942,252	0,5	-0,599
944,375	0	-0,704
946,499	0	-0,765
948,623	-0,5	-0,79
950,747	-0,5	-0,83
952,865	-0,5	-0,776
954,989	-0,5	-0,779
957,107	-0,5	-0,804
959,231	-0,5	-0,781
961,354	0	-0,775
963,472	-0,5	-0,826
965,59	-0,5	-0,789
967,714	0	-0,712
969,838	0,5	-0,599
971,962	0,5	-0,549
974,086	0	-0,578
976,21	0,5	-0,565
978,327	0,5	-0,554
980,451	0,5	-0,61
982,569	0	-0,64
984,693	0	-0,694
986,829	-0,5	-0,81
988,947	-0,5	-0,787
991,071	-1	-0,902
993,189	-1,5	-1,024
995,325	-2	-1,268
997,448	-2,5	-1,404
999,572	-3	-1,513
1001,696	-3	-1,617
1003,82	-4	-1,816
1005,944	-4	-1,895
1008,062	-4	-1,941
1010,186	-4,5	-1,955
1012,31	-4,5	-1,981
1014,427	-4,5	-2,055
1016,557	-4,5	-2,098
1018,675	-4,5	-2,129
1020,793	-4,5	-2,123
1022,917	-5	-2,227
1025,035	-5	-2,275
1027,159	-5,5	-2,272
1029,277	-5	-2,304
1031,4	-6	-2,35
1033,524	-6	-2,437
1035,648	-6,5	-2,526
1037,772	-7,5	-2,63
1039,89	-7,5	-2,687
1042,008	-8	-2,714
1044,132	-8,5	-2,812
1046,256	-8,5	-2,89
1048,38	-10	-3,026
1050,509	-11	-3,208
1052,627	-11,5	-3,269
1054,757	-12,5	-3,302
1056,881	-12,5	-3,314
1059,005	-12,5	-3,312
1061,123	-12,5	-3,312
1063,247	-13	-3,344
1065,371	-13,5	-3,384
1067,494	-13,5	-3,398
1069,618	-15	-3,439
1071,742	-15	-3,442
1073,866	-15	-3,456
1075,984	-15	-3,471
1078,108	-15	-3,474
1080,238	-15	-3,484
1082,356	-15	-3,487
1084,473	-15	-3,487
1086,591	-15	-3,489
1088,715	-15	-3,491
1090,833	-15	-3,491
1092,957	-15	-3,494
1095,081	-15	-3,494
1097,199	-15	-3,494
1099,323	-15,5	-3,496
1101,44	-15,5	-3,497
1103,57	-15,5	-3,498
1105,688	-15	-3,498
1107,818	-15	-3,499
1109,93	-15	-3,492
1112,054	-15	-3,349
1114,166	-15	-3,209
1116,29	-14,5	-3,04
1118,419	-12,5	-2,91
1120,543	-10,5	-2,694
1122,661	-9,5	-2,524
1124,785	-7,5	-2,304
1126,903	-7	-2,193
1129,027	-6	-2,019
1131,145	-5,5	-1,956
1133,269	-5	-1,851
1135,387	-5	-1,868
1137,51	-3,5	-1,615
1139,634	-3	-1,495
1141,752	-2,5	-1,309
1143,876	-1,5	-1,195
1145,994	-1,5	-1,238
1148,106	-2	-1,258
1150,23	-2	-1,286
1152,348	-2,5	-1,324
1154,471	-1,5	-1,139
1156,595	-1	-1,004
1158,719	-1	-0,879
1160,843	-0,5	-0,85
1162,961	-0,5	-0,824
1165,085	0	-0,634
1167,203	-0,5	-0,597
1169,315	0	-0,531
1171,426	0	-0,455
1173,544	0	-0,526
1175,668	0	-0,438
1177,78	0	-0,574
1179,904	0	-0,528
1182,016	0	-0,389
1184,14	0,5	-0,229
1186,252	1,5	-0,136
1188,376	1,5	-0,106
1190,493	1,5	-0,079
1192,617	1,5	-0,081
1194,735	2	-0,055
1196,853	2	-0,038
1198,971	2	-0,026
1201,095	2,5	-0,015
1203,213	2,5	-0,009
1205,331	2,5	-0,006
1207,454	2,5	-0,005
1209,578	2,5	-0,004
1211,696	2,5	-0,003
1213,814	2,5	-0,002
1215,938	2,5	-0,001
1218,062	2,5	-0,012
1220,186	2	-0,203
1222,304	2	-0,35
1224,427	0,5	-0,519
1226,545	0	-0,688
1228,663	0	-0,789
1230,781	-1	-1,023
1232,899	-2	-1,243
1235,023	-2	-1,365
1237,141	-2,5	-1,492
1239,259	-3	-1,716
1241,382	-3,5	-1,915
1243,5	-3,5	-2,037
1245,618	-4,5	-2,137
1247,742	-4,5	-2,194
1249,86	-5	-2,322
1251,984	-6,5	-2,547
1254,102	-7	-2,685
1256,226	-8,5	-2,864
1258,343	-9,5	-3,028
1260,467	-11	-3,231
1262,585	-12	-3,329
1264,703	-13,5	-3,405
1266,827	-14,5	-3,451
1268,951	-15	-3,474
1271,075	-15	-3,485
1273,193	-15	-3,492
1275,311	-15	-3,495
1277,428	-15	-3,497
1279,552	-15	-3,498
1281,67	-15	-3,5
1283,794	-15	-3,339
1285,912	-15	-3,213
1288,03	-14,5	-3,078
1290,16	-12	-2,779
1292,278	-10,5	-2,582
1294,401	-8	-2,35
1296,519	-6,5	-2,073
1298,643	-5	-1,913
1300,761	-4	-1,673
1302,885	-2,5	-1,367
1305,003	-1,5	-1,123
1307,121	-1	-0,979
1309,239	-1	-0,853
1311,362	-0,5	-0,664
1313,486	0	-0,528
1315,604	0	-0,404
1317,728	0,5	-0,23
1319,846	1	-0,133
1321,964	1,5	-0,076
1324,082	1,5	-0,062
1326,206	2	-0,04
1328,33	2	-0,024
1330,447	2	-0,024
1332,571	2	-0,015
1334,689	2,5	-0,009
1336,813	2	-0,005
1338,925	2,5	-0,003
1341,043	2,5	-0,002
1343,167	2,5	-0,001
1345,279	2,5	0
1347,402	2,5	-0,152
1349,52	2	-0,328
1351,644	0,5	-0,555
1353,762	0	-0,79
1355,88	-0,5	-0,837
1357,998	-1	-0,986
1360,122	-1,5	-1,17
1362,24	-2	-1,329
1364,357	-2,5	-1,44
1366,475	-2,5	-1,535
1368,593	-3	-1,678
1370,717	-4	-1,921
1372,841	-4,5	-2,158
1374,959	-5	-2,295
1377,083	-6	-2,479
1379,201	-7	-2,649
1381,324	-7,5	-2,8
1383,442	-8,5	-2,949
1385,56	-9,5	-3,093
1387,684	-11	-3,272
1389,796	-12	-3,332
1391,914	-12,5	-3,392
1394,038	-13,5	-3,442
1396,156	-14,5	-3,459
1398,28	-14,5	-3,47
1400,397	-15	-3,483
1402,515	-15	-3,49
1404,639	-15	-3,494
1406,757	-15	-3,497
1408,881	-15	-3,498
1411	-15	-3,499
1413,117	-15	-3,5
1415,235	-15	-3,375
1417,358	-15	-3,217
1419,47	-14	-3,08
1421,588	-13,5	-2,99
1423,712	-12	-2,838
1425,83	-10,5	-2,646
1427,954	-9	-2,435
1430,072	-7,5	-2,271
1432,184	-6	-2,112
1434,307	-5,5	-1,996
1436,431	-4	-1,716
1438,549	-3	-1,536
1440,667	-3	-1,383
1442,797	-1,5	-1,226
1444,915	-1	-1,009
1447,039	-0,5	-0,804
1449,157	0	-0,55
1451,268	0	-0,441
1453,392	0,5	-0,3
1455,51	0	-0,354
1457,634	0,5	-0,243
1459,752	1	-0,186
1461,87	1	-0,128
1463,994	1,5	-0,1
1466,112	1,5	-0,076
1468,229	1,5	-0,066
1470,353	2	-0,034
1472,471	2	-0,027
1474,595	2,5	-0,016
1476,707	2,5	-0,016
1478,825	2,5	-0,012
1480,949	2	-0,008
1483,067	2,5	-0,005
1485,191	2,5	-0,005
1487,308	2,5	-0,004
1489,426	3	-0,005
1491,55	2,5	-0,004
1493,668	2,5	-0,003
1495,792	2	-0,001
1497,91	2,5	-0,001
1500,028	2,5	-0,005
1502,146	2,5	-0,162
1504,263	2,5	-0,24
1506,381	2	-0,331
1508,499	1,5	-0,421
1510,617	1,5	-0,475
1512,747	0	-0,609
1514,865	0	-0,736
1516,983	0	-0,704
1519,107	-0,5	-0,771
1521,224	-0,5	-0,915
1523,342	-1	-0,96
1525,472	-1,5	-1,058
1527,584	-1,5	-1,176
1529,708	-2	-1,302
1531,826	-2	-1,329
1533,95	-2	-1,348
1536,068	-2	-1,401
1538,18	-2	-1,482
1540,297	-2,5	-1,492
1542,415	-2,5	-1,534
1544,539	-2,5	-1,622
1546,651	-3	-1,702
1548,763	-3	-1,774
1550,881	-3	-1,847
1553,005	-3,5	-1,925
1555,123	-4,5	-2,098
1557,246	-4,5	-2,199
1559,364	-5	-2,3
1561,482	-5	-2,331
1563,6	-5,5	-2,448
1565,724	-6	-2,536
1567,842	-6	-2,616
1569,96	-6,5	-2,662
1572,084	-8	-2,867
1574,196	-9	-3,029
1576,313	-10	-3,177
1578,437	-10,5	-3,287
1580,555	-12	-3,345
1582,667	-13	-3,396
1584,785	-14	-3,433
1586,903	-14	-3,456
1589,021	-14,5	-3,469
1591,144	-15	-3,474
1593,262	-15	-3,488
1595,374	-15	-3,49
1597,498	-15	-3,494
1599,616	-15	-3,497
1601,728	-15	-3,498
1603,852	-15	-3,499
1605,964	-15	-3,5
1608,081	-15	-3,497
1610,206	-15	-3,405
1612,323	-15	-3,4
1614,447	-14,5	-3,244
1616,565	-13,5	-3,115
1618,683	-12,5	-3,014
1620,807	-11,5	-2,894
1622,925	-11	-2,85
1625,043	-10	-2,756
1627,166	-9	-2,609
1629,284	-8,5	-2,557
1631,402	-7,5	-2,368
1633,526	-7	-2,341
1635,644	-6	-2,262
1637,768	-6,5	-2,264
1639,886	-5,5	-2,115
1642,004	-5	-2
1644,127	-4,5	-1,858
1646,245	-4	-1,779
1648,369	-3,5	-1,733
1650,487	-3	-1,61
1652,605	-3	-1,452
1654,723	-2,5	-1,41
1656,847	-2	-1,354
1658,965	-2	-1,334
1661,082	-2	-1,306
1663,206	-1,5	-1,209
1665,324	-1,5	-1,096
1667,442	-1,5	-1,124
1669,566	-1	-0,994
1671,684	-0,5	-0,893
1673,808	-0,5	-0,783
1675,926	0	-0,73
1678,038	-0,5	-0,755
1680,161	0	-0,651
1682,279	0	-0,667
1684,397	0	-0,616
1686,515	0	-0,552
1688,633	0	-0,7
1690,751	0	-0,7
1692,875	0	-0,609
1694,993	0	-0,593
1697,11	0	-0,581
1699,228	0	-0,555
1701,346	0	-0,529
1703,47	0	-0,516
1705,588	0	-0,559
1707,706	0	-0,58
1709,824	0	-0,498
1711,948	0	-0,555
1714,06	0	-0,657
1716,183	0	-0,654
1718,301	0	-0,702
1720,419	0	-0,814
1722,537	-1	-1,096
1724,661	-1,5	-1,264
1726,779	-1,5	-1,295
1728,897	-2,5	-1,54
1731,02	-2,5	-1,485
1733,138	-3,5	-1,708
1735,262	-3,5	-1,679
1737,386	-3,5	-1,654
1739,498	-3,5	-1,7
1741,61	-3,5	-1,608
1743,74	-3	-1,644
1745,858	-3	-1,608
1747,976	-3	-1,576
1750,099	-3,5	-1,732
1752,217	-4,5	-1,935
1754,335	-5	-2,041
1756,459	-6	-2,128
1758,577	-6	-2,124
1760,695	-5,5	-2,028
1762,819	-5,5	-2,046
1764,937	-6,5	-2,244
1767,054	-6,5	-2,292
1769,178	-6,5	-2,278
1771,296	-6	-2,172
1773,42	-6,5	-2,233
1775,538	-6	-2,164
1777,656	-6	-2,079
1779,78	-5,5	-2,055
1781,898	-5	-1,986
1784,015	-6	-1,975
1786,133	-4,5	-1,834
1788,257	-4,5	-1,825
1790,375	-4	-1,729
1792,493	-4	-1,71
1794,623	-4	-1,708
1796,741	-4	-1,782
1798,865	-4,5	-1,838
1800,982	-4,5	-1,849
1803,1	-4,5	-1,87
1805,218	-5	-2,046
1807,342	-5,5	-2,033
1809,454	-5	-2,005
1811,572	-5	-2,031
1813,696	-4,5	-1,916
1815,814	-4,5	-1,891
1817,938	-4,5	-1,883
1820,055	-4,5	-1,892
1822,173	-4	-1,765
1824,291	-3,5	-1,702
1826,415	-3,5	-1,72
1828,533	-4	-1,789
1830,651	-3,5	-1,763
1832,775	-4	-1,734
1834,887	-3,5	-1,754
1837,004	-4	-1,733
1839,122	-3	-1,605
1841,24	-3	-1,58
1843,358	-3,5	-1,66
1845,482	-3,5	-1,721
1847,6	-3	-1,641
1849,724	-3	-1,595
1851,848	-2,5	-1,519
1853,965	-2	-1,411
1856,083	-3	-1,444
1858,207	-2,5	-1,409
1860,325	-2	-1,282
1862,443	-2	-1,219
1864,567	-1	-1,067
1866,685	-0,5	-0,929
1868,803	-0,5	-0,813
1870,926	0	-0,559
1873,044	0	-0,539
1875,162	0	-0,342
1877,28	0,5	-0,211
1879,404	1,5	-0,115
1881,516	1,5	-0,058
1883,64	1,5	-0,07
1885,758	1,5	-0,09
1887,876	2	-0,068
1889,999	1,5	-0,053
1892,123	2,5	-0,025
1894,241	2,5	-0,01
1896,359	2,5	-0,005
1898,477	2,5	-0,003
1900,595	2,5	-0,001
1902,713	2,5	-0,001
1904,837	2,5	-0,001
1906,96	2,5	0
1909,078	2,5	0
1911,196	2,5	-0,001
1913,32	3	-0,001
1915,438	2,5	-0,001
1917,556	2,5	-0,019
1919,68	2	-0,085
1921,804	2,5	-0,14
1923,921	2,5	-0,211
1926,045	2	-0,318
1928,163	2	-0,38
1930,281	1,5	-0,327
1932,399	2	-0,37
1934,523	2	-0,325
1936,641	1,5	-0,362
1938,759	2	-0,372
1940,876	2	-0,382
1943	1	-0,519
1945,118	0,5	-0,641
1947,236	0,5	-0,672
1949,36	0	-0,723
1951,478	0,5	-0,697
1953,596	0	-0,764
1955,714	0	-0,784
1957,838	0	-0,848
1959,955	0	-0,958
1962,073	-0,5	-0,958
1964,197	-1	-1,095
1966,315	-1	-1,147
1968,433	-1	-1,2
1970,557	-1,5	-1,326
1972,669	-1,5	-1,391
1974,787	-1,5	-1,395
1976,904	-2	-1,475
1979,034	-2	-1,612
1981,152	-2	-1,597
1983,27	-2,5	-1,608
1985,394	-2	-1,611
1987,512	-2	-1,562
1989,63	-2,5	-1,669
1991,748	-2,5	-1,748
1993,865	-3	-1,844
1995,989	-3	-1,953
1998,113	-3	-1,972
2000,231	-3	-2,009
2002,349	-3	-2,036
2004,467	-3,5	-2,035
2006,591	-3,5	-2,15
2008,715	-4	-2,261
2010,832	-4,5	-2,306
2012,95	-5	-2,412
2015,074	-5,5	-2,527
2017,192	-5,5	-2,564
2019,316	-6	-2,641
2021,44	-6	-2,692
2023,558	-7	-2,782
2025,676	-7,5	-2,844
2027,794	-7,5	-2,872
2029,905	-7,5	-2,916
2032,023	-8	-2,958
2034,141	-8	-2,979
2036,259	-8,5	-3,047
2038,377	-9	-3,127
2040,495	-10	-3,244
2042,613	-9,5	-3,26
2044,737	-12	-3,391
2046,854	-12	-3,4
2048,972	-10,5	-3,357
2051,09	-11	-3,373
2053,214	-12	-3,38
2055,332	-10,5	-3,346
2057,45	-12	-3,396
2059,568	-12,5	-3,44
2061,692	-12,5	-3,445
2063,81	-13,5	-3,468
2065,927	-13,5	-3,476
2068,051	-13,5	-3,483
2070,169	-13,5	-3,484
2072,287	-13,5	-3,48
2074,405	-13,5	-3,482
2076,523	-13,5	-3,478
2078,641	-13,5	-3,48
2080,759	-13,5	-3,482
2082,882	-13,5	-3,486
2084,994	-13,5	-3,482
2087,112	-13,5	-3,472
2089,236	-13	-3,474
2091,354	-13,5	-3,476
2093,472	-13,5	-3,472
2095,59	-13	-3,467
2097,714	-13	-3,46
2099,831	-13,5	-3,469
2101,955	-13,5	-3,475
2104,073	-13,5	-3,476
2106,191	-13,5	-3,477
2108,309	-13	-3,477
2110,427	-13	-3,475
2112,551	-13,5	-3,477
2114,669	-13	-3,466
2116,786	-12,5	-3,455
2118,898	-13	-3,45
2121,016	-12,5	-3,458
2123,134	-13	-3,463
2125,252	-13	-3,462
2127,376	-12,5	-3,456
2129,494	-13	-3,452
2131,612	-12,5	-3,444
2133,73	-12,5	-3,427
2135,853	-12	-3,417
2137,971	-12,5	-3,426
2140,089	-12,5	-3,432
2142,207	-12	-3,431
2144,331	-12,5	-3,435
2146,449	-12,5	-3,444
2148,567	-12,5	-3,454
2150,685	-12,5	-3,45
2152,808	-13	-3,458
2154,926	-12,5	-3,46
2157,044	-12,5	-3,461
2159,168	-13	-3,466
2161,286	-13	-3,466
2163,404	-13	-3,471
2165,522	-13	-3,475
2167,64	-13	-3,472
2169,757	-13	-3,471
2171,875	-13	-3,479
2173,993	-13	-3,48
2176,111	-13,5	-3,479
2178,229	-13	-3,48
2180,347	-13	-3,485
2182,459	-13	-3,482
2184,583	-13	-3,486
2186,694	-13	-3,491
2188,806	-13,5	-3,492
2190,924	-13,5	-3,492
2193,048	-13,5	-3,493
2195,166	-13	-3,494
2197,284	-13,5	-3,497
2199,402	-13,5	-3,499
2201,52	-13,5	-3,499
2203,637	-13,5	-3,499
2205,755	-13	-3,499
2207,891	-13,5	-3,499
2210,009	-13	-3,499
2212,127	-13,5	-3,499
2214,245	-13	-3,499
2216,375	-13,5	-3,5
2218,493	-13,5	-3,456
2220,611	-13	-3,486
2222,728	-13	-3,5
2224,852	-13	-3,466
2226,97	-13	-3,388
2229,088	-13	-3,467
2231,206	-13	-3,466
2233,33	-13	-3,5
2235,448	-13	-3,387
2237,566	-13	-3,269
2239,683	-13	-3,227
2241,807	-12,5	-3,16
2243,925	-12	-3,095
2246,049	-11	-2,954
2248,167	-10	-2,841
2250,285	-10	-2,859
2252,403	-9	-2,741
2254,515	-10	-2,804
2256,632	-10	-2,789
2258,75	-9,5	-2,778
2260,868	-9	-2,694
2262,986	-8,5	-2,679
2265,104	-8	-2,614
2267,216	-9	-2,65
2269,334	-9	-2,683
2271,452	-10	-2,82
2273,576	-9,5	-2,77
2275,693	-9	-2,674
2277,811	-8	-2,628
2279,929	-7,5	-2,549
2282,047	-8	-2,607
2284,165	-8	-2,597
2286,283	-8,5	-2,683
2288,401	-8,5	-2,731
2290,519	-8	-2,657
2292,636	-9	-2,689
2294,754	-8,5	-2,663
2296,872	-8,5	-2,614
2298,99	-8,5	-2,621
2301,108	-7,5	-2,536
2303,226	-7	-2,478
2305,344	-6,5	-2,425
2307,468	-5,5	-2,273
2309,585	-5	-2,173
2311,703	-4	-2,003
2313,821	-3,5	-1,914
2315,945	-3,5	-1,879
2318,063	-3,5	-1,905
2320,181	-3	-1,756
2322,305	-2,5	-1,637
2324,423	-2,5	-1,578
2326,54	-2,5	-1,526
2328,664	-1,5	-1,443
2330,788	-1,5	-1,36
2332,906	-1,5	-1,344
2335,024	-1,5	-1,349
2337,142	-1,5	-1,42
2339,26	-1,5	-1,335
2341,384	-1	-1,221
2343,501	-1	-1,199
2345,619	-0,5	-1,119
2347,737	-0,5	-1,03
2349,855	-0,5	-0,935
2351,979	0	-0,851
2354,097	0	-0,756
2356,215	0	-0,719
2358,333	0	-0,62
2360,457	0	-0,557
2362,574	0	-0,548
2364,692	0	-0,489
2366,81	0	-0,41
2368,934	0,5	-0,277
2371,052	1	-0,187
2373,17	1	-0,15
2375,288	1	-0,135
2377,412	1,5	-0,121
2379,529	1,5	-0,074
2381,647	2	-0,059
2383,765	1,5	-0,066
2385,889	2	-0,032
2388,007	2,5	-0,02
2390,125	2,5	-0,016
2392,243	2,5	-0,015
2394,367	2,5	-0,01
2396,484	2,5	-0,007
2398,602	2,5	-0,005
2400,72	2,5	-0,004
2402,838	2,5	-0,002
2404,956	2,5	-0,001
2407,074	2,5	-0,001
2409,192	2,5	0
2411,316	2,5	-0,072
2413,44	2,5	-0,19
2415,557	2	-0,38
2417,675	1,5	-0,474
2419,793	1	-0,565
2421,917	0,5	-0,61
2424,035	0	-0,77
2426,153	0	-0,759
2428,277	0	-0,899
2430,395	-0,5	-1,07
2432,512	-1	-1,224
2434,63	-1,5	-1,388
2436,754	-1	-1,417
2438,872	-1,5	-1,422
2440,99	-1,5	-1,486
2443,108	-1,5	-1,481
2445,232	-2	-1,659
2447,35	-2	-1,787
2449,467	-2	-1,824
2451,591	-2,5	-1,901
2453,709	-3	-1,996
2455,827	-3	-2,166
2457,945	-3,5	-2,35
2460,063	-4	-2,452
2462,181	-4	-2,521
2464,299	-4,5	-2,632
2466,416	-5	-2,754
2468,534	-5,5	-2,86
2470,658	-6	-2,964
2472,77	-6	-3,061
2474,888	-7,5	-3,125
2477,006	-6,5	-3,108
2479,13	-8	-3,253
2481,248	-8,5	-3,304
2483,365	-8	-3,345
2485,483	-9	-3,386
2487,607	-9,5	-3,394
2489,725	-9,5	-3,412
2491,843	-9	-3,406
2493,961	-9	-3,399
2496,085	-9,5	-3,418
2498,203	-9	-3,398
2500,321	-9	-3,406
2502,438	-9,5	-3,409
2504,556	-9,5	-3,424
2506,674	-10	-3,438
2508,792	-10	-3,444
2510,91	-10	-3,439
2513,034	-10	-3,452
2515,146	-10,5	-3,447
2517,264	-10,5	-3,455
2519,381	-10,5	-3,461
2521,499	-10	-3,457
2523,617	-10,5	-3,464
2525,735	-10,5	-3,465
2527,853	-10,5	-3,467
2529,977	-10	-3,464
2532,095	-10	-3,461
2534,213	-10,5	-3,466
2536,33	-10,5	-3,466
2538,454	-10	-3,47
2540,572	-10,5	-3,473
2542,69	-10,5	-3,479
2544,808	-10,5	-3,475
2546,932	-10,5	-3,479
2549,044	-10,5	-3,475
2551,162	-10,5	-3,475
2553,28	-10,5	-3,48
2555,397	-10,5	-3,478
2557,521	-10,5	-3,484
2559,639	-10,5	-3,485
2561,769	-10,5	-3,481
2563,887	-10,5	-3,482
2566,011	-10,5	-3,484
2568,129	-10,5	-3,488
2570,241	-10,5	-3,488
2572,364	-10,5	-3,491
2574,482	-10,5	-3,492
2576,6	-10,5	-3,494
2578,718	-10,5	-3,496
2580,836	-10,5	-3,496
2582,96	-10,5	-3,497
2585,078	-10,5	-3,498
2587,19	-10,5	-3,498
2589,301	-10,5	-3,499
2591,419	-10,5	-3,499
2593,543	-10,5	-3,499
2595,667	-10,5	-3,5
2597,785	-10,5	-3,5
2599,903	-10,5	-3,499
2602,027	-10,5	-3,499
2604,145	-10,5	-3,499
2606,262	-10,5	-3,5
2608,38	-10,5	-3,5
2610,504	-10,5	-3,425
2612,622	-10,5	-3,497
2614,74	-10,5	-3,358
2616,858	-9,5	-3,157
2618,982	-9	-3,022
2621,1	-8,5	-3,022
2623,217	-7,5	-2,894
2625,329	-7	-2,813
2627,447	-6	-2,69
2629,571	-5,5	-2,614
2631,695	-5	-2,514
2633,813	-5,5	-2,526
2635,931	-5,5	-2,564
2638,049	-5	-2,527
2640,173	-4,5	-2,376
2642,291	-4	-2,327
2644,408	-4	-2,29
2646,532	-3	-2,107
2648,65	-3	-2,011
2650,768	-2,5	-1,932
2652,886	-2	-1,804
2655,004	-1,5	-1,651
2657,128	-1,5	-1,69
2659,245	-1	-1,601
2661,363	-1,5	-1,644
2663,481	-1,5	-1,681
2665,593	-1,5	-1,563
2667,723	-1	-1,386
2669,841	-0,5	-1,419
2671,959	-0,5	-1,313
2674,077	-0,5	-1,26
2676,2	-0,5	-1,182
2678,318	0	-1,092
2680,442	0	-1,116
2682,56	0	-1,036
2684,678	0	-0,941
2686,796	0	-0,884
2688,914	0	-0,708
2691,032	0	-0,676
2693,144	0,5	-0,606
2695,267	0	-0,529
2697,385	0,5	-0,39
2699,503	0,5	-0,422
2701,621	0,5	-0,386
2703,751	0,5	-0,275
2705,863	1	-0,199
2707,981	1,5	-0,123
2710,099	2	-0,072
2712,216	1,5	-0,072
2714,34	2	-0,066
2716,452	1,5	-0,132
2718,57	1,5	-0,154
2720,688	1,5	-0,154
2722,812	2	-0,098
2724,93	1,5	-0,079
2727,048	2	-0,074
2729,171	2	-0,044
2731,289	2	-0,06
2733,413	2	-0,042
2735,531	2	-0,072
2737,649	2	-0,061
2739,767	1,5	-0,102
2741,879	1,5	-0,138
2744,003	1,5	-0,088
2746,121	1,5	-0,071
2748,238	1,5	-0,076
2750,356	2	-0,055
2752,48	2,5	-0,03
2754,598	2,5	-0,03
2756,716	2,5	-0,035
2758,834	2	-0,029
2760,958	2,5	-0,02
2763,076	2,5	-0,02
2765,194	2,5	-0,016
2767,311	2,5	-0,018
2769,435	3	-0,012
2771,547	2,5	-0,013
2773,665	2,5	-0,011
2775,783	2,5	-0,011
2777,895	2,5	-0,015
2780,019	2,5	-0,007
2782,136	3	-0,004
2784,254	2,5	-0,004
2786,366	2,5	-0,003
2788,49	2,5	-0,005
2790,602	2,5	-0,006
2792,72	2,5	-0,006
2794,838	2,5	-0,005
2796,956	2,5	-0,006
2799,074	2,5	-0,006
2801,191	2,5	-0,005
2803,309	2,5	-0,006
2805,427	2,5	-0,006
2807,545	2,5	-0,006
2809,669	2,5	-0,005
2811,787	2,5	-0,003
2813,905	3	-0,004
2816,023	2,5	-0,004
2818,14	2,5	-0,002
2820,258	2,5	-0,001
2822,376	3	-0,001
2824,494	2,5	-0,001
2826,618	2,5	0
2828,736	2,5	-0,003
2830,854	2,5	-0,085
2832,972	3	-0,115
2835,089	2,5	-0,163
2837,207	2,5	-0,241
2839,331	2,5	-0,142
2841,449	2,5	-0,053
2843,567	2,5	-0,001
2845,685	2,5	-0,001
2847,809	2,5	-0,001
2849,921	3	-0,001
2852,038	2,5	-0,001
2854,156	2,5	-0,001
2856,274	2,5	-0,001
2858,398	2,5	-0,001
2860,516	2,5	0
2862,634	3	-0,001
2864,758	2,5	0
2866,876	2,5	-0,001
2869	3	0
2871,117	3	-0,032
2873,235	2,5	-0,09
2875,353	2,5	-0,116
2877,471	3	-0,246
2879,595	2,5	-0,278
2881,713	1,5	-0,458
2883,831	2	-0,506
2885,943	1,5	-0,53
2888,06	0,5	-0,61
2890,178	0,5	-0,714
2892,296	0,5	-0,715
2894,414	0	-0,804
2896,532	0	-0,868
2898,656	0	-1,025
2900,78	-0,5	-1,145
2902,898	-0,5	-1,273
2905,015	-0,5	-1,383
2907,133	-1	-1,489
2909,257	-1	-1,646
2911,375	-1,5	-1,758
2913,493	-1,5	-1,865
2915,611	-2	-2,044
2917,729	-2	-2,187
2919,853	-2,5	-2,334
2921,97	-2,5	-2,301
2924,088	-2,5	-2,344
2926,212	-3	-2,48
2928,324	-3	-2,476
2930,454	-3	-2,679
2932,572	-3,5	-2,844
2934,69	-4,5	-2,991
2936,802	-5	-3,145
2938,925	-5,5	-3,282
2941,043	-6	-3,327
2943,161	-7	-3,406
2945,279	-7,5	-3,453
2947,403	-8	-3,467
2949,521	-8	-3,483
2951,639	-8	-3,488
2953,769	-8	-3,491
2955,887	-8	-3,494
2958,01	-8,5	-3,496
2960,128	-8,5	-3,497
2962,246	-8,5	-3,498
2964,364	-8,5	-3,499
2966,482	-8,5	-3,5
2968,6	-8,5	-3,401
2970,718	-8	-3,182
2972,836	-6,5	-3,012
2974,953	-5,5	-2,846
2977,071	-4,5	-2,644
2979,195	-3,5	-2,519
2981,307	-3	-2,305
2983,431	-2,5	-2,164
2985,549	-1,5	-1,978
2987,673	-1,5	-1,773
2989,791	-0,5	-1,534
2991,908	-0,5	-1,37
2994,026	0	-1,19
2996,144	0	-0,982
2998,262	0	-0,813
3000,38	0	-0,738
3002,498	0,5	-0,542
3004,616	0,5	-0,335
3006,734	1,5	-0,15
3008,857	1,5	-0,072
3010,981	2	-0,042
3013,099	2,5	-0,028
3015,217	2,5	-0,022
3017,335	2,5	-0,016
3019,459	2,5	-0,008
3021,577	2,5	-0,006
3023,695	2,5	-0,004
3025,813	2,5	-0,003
3027,93	2,5	-0,002
3030,054	2,5	-0,001
3032,172	2,5	-0,115
3034,29	2,5	-0,273
3036,408	2,5	-0,349
3038,532	1	-0,56
3040,65	0,5	-0,66
3042,768	0	-0,851
3044,885	0	-0,974
3047,003	-0,5	-1,154
3049,127	-0,5	-1,312
3051,245	-0,5	-1,385
3053,363	-1	-1,576
3055,481	-1	-1,656
3057,599	-1	-1,724
3059,723	-1,5	-1,876
3061,84	-1,5	-1,966
3063,958	-1,5	-2,024
3066,076	-2	-2,172
3068,188	-2	-2,275
3070,312	-2,5	-2,502
3072,424	-3	-2,631
3074,542	-3	-2,791
3076,66	-3,5	-2,875
3078,777	-4,5	-3,066
3080,901	-4,5	-3,186
3083,019	-5,5	-3,314
3085,137	-5,5	-3,32
3087,255	-6	-3,403
3089,373	-7	-3,437
3091,497	-7,5	-3,466
3093,615	-7,5	-3,48
3095,733	-7,5	-3,486
3097,85	-7,5	-3,49
3099,968	-7,5	-3,492
3102,086	-7,5	-3,494
3104,204	-8	-3,496
3106,322	-7,5	-3,497
3108,44	-7,5	-3,498
3110,564	-8	-3,498
3112,682	-7,5	-3,499
3114,799	-7,5	-3,499
3116,917	-7,5	-3,499
3119,035	-7,5	-3,5
3121,153	-7,5	-3,495
3123,271	-8	-3,444
3125,389	-7,5	-3,327
3127,507	-7,5	-3,355
3129,625	-7,5	-3,141
3131,749	-6,5	-2,966
3133,866	-4,5	-2,814
3135,984	-4	-2,659
3138,102	-3	-2,43
3140,22	-2,5	-2,276
3142,344	-2	-2,078
3144,462	-1,5	-1,834
3146,58	-1	-1,732
3148,697	-0,5	-1,526
3150,815	0	-1,372
3152,939	0	-1,178
3155,057	0	-0,997
3157,175	0	-0,832
3157,679	2,5	0