File: ensaios_Ciclicos/_40perc/_3gap/entrada/_4.txt
Time (s)	Load (N)	Displacement (mm)
0	0	-0,036
2,236	-1,5	-0,651
4,361	-2	-0,745
6,472	-1,5	-0,692
8,584	0	-0,534
10,696	0	-0,38
12,814	0	-0,434
14,926	0	-0,451
17,044	1	-0,317
19,162	1	-0,322
21,273	1	-0,211
23,385	1	-0,148
25,497	1	-0,114
27,609	1	-0,142
29,721	1,5	-0,098
31,833	1	-0,07
33,945	1,5	0
36,056	1,5	-0,001
38,174	1,5	-0,001
40,286	1,5	0
42,398	1,5	-0,001
44,51	1,5	-0,001
46,628	1,5	-0,001
48,74	1,5	-0,001
50,858	1,5	-0,001
52,97	1,5	-0,001
55,087	1,5	-0,002
57,205	1,5	-0,002
59,323	1,5	-0,002
61,441	1,5	-0,003
63,559	1,5	-0,004
65,683	1,5	-0,004
67,801	1,5	-0,003
69,919	1,5	-0,004
72,03	1,5	-0,003
74,148	1,5	-0,004
76,26	1,5	-0,006
78,384	1,5	-0,005
80,496	1,5	-0,007
82,614	1,5	-0,008
84,726	1,5	-0,009
86,85	1,5	-0,01
88,961	1,5	-0,014
91,073	1,5	-0,016
93,197	1,5	-0,023
95,309	1,5	-0,028
97,433	1,5	-0,03
99,563	1,5	-0,028
101,675	1,5	-0,033
103,793	1,5	-0,036
105,91	1,5	-0,034
108,028	1,5	-0,037
110,146	1,5	-0,029
112,258	1,5	-0,028
114,376	1,5	-0,03
116,488	1,5	-0,03
118,6	1,5	-0,034
120,718	1,5	-0,032
122,829	1,5	-0,035
124,953	1,5	-0,032
127,077	1,5	-0,022
129,189	1,5	-0,023
131,307	1,5	-0,018
133,419	1,5	-0,018
135,537	1,5	-0,018
137,655	1,5	-0,013
139,767	1,5	-0,014
141,884	1,5	-0,011
144,002	2	-0,01
146,114	2	-0,01
148,232	2	-0,01
150,356	1,5	-0,01
152,474	1,5	-0,009
154,598	2	-0,006
156,716	1,5	-0,006
158,833	2	-0,005
160,951	2	-0,004
163,063	2	-0,004
165,193	1,5	-0,003
167,311	1,5	-0,002
169,429	1,5	-0,002
171,547	2	-0,002
173,671	1,5	-0,002
175,788	1,5	-0,002
177,9	2	-0,002
180,019	1,5	-0,002
182,136	2	-0,002
184,26	1,5	-0,001
186,378	2	-0,001
188,502	2	-0,001
190,62	2	-0,001
192,732	2	-0,001
194,855	2	0
196,979	2	-0,001
199,097	1,5	-0,129
201,221	1,5	-0,199
203,333	2	-0,143
205,463	1,5	-0,3
207,587	1,5	-0,404
209,705	1	-0,42
211,816	1,5	-0,374
213,934	1	-0,384
216,064	1	-0,459
218,182	1	-0,508
220,306	0	-0,601
222,436	-0,5	-0,709
224,554	-1,5	-0,851
226,684	-2	-1,002
228,807	-2	-1,031
230,931	-2,5	-1,014
233,063	-3	-1,136
235,179	-3	-1,199
237,303	-3	-1,172
239,421	-3	-1,176
241,551	-3	-1,22
243,669	-3,5	-1,31
245,787	-4	-1,421
247,916	-4,5	-1,56
250,046	-4,5	-1,657
252,17	-5	-1,724
254,288	-5	-1,746
256,412	-5,5	-1,834
258,524	-5,5	-1,855
260,648	-5,5	-1,854
262,772	-6	-1,942
264,889	-6	-1,941
267,007	-5,5	-1,984
269,131	-6	-2,029
271,249	-6	-2,029
273,367	-6	-2,039
275,485	-6	-2,042
277,609	-6	-1,978
279,732	-6,5	-2,109
281,856	-7,5	-2,234
283,98	-7,5	-2,275
286,104	-7,5	-2,341
288,228	-8,5	-2,44
290,358	-8,5	-2,494
292,476	-9	-2,515
294,606	-9	-2,564
296,724	-9	-2,611
298,847	-10	-2,686
300,977	-10	-2,716
303,089	-10,5	-2,766
305,219	-10,5	-2,857
307,349	-12	-2,976
309,473	-12	-2,984
311,597	-12	-3,019
313,721	-12	-3,022
315,832	-12,5	-3,05
317,944	-12,5	-3,083
320,062	-12,5	-3,105
322,192	-13	-3,17
324,322	-13,5	-3,265
326,446	-14	-3,263
328,576	-15	-3,357
330,7	-15	-3,363
332,829	-15,5	-3,39
334,947	-16	-3,395
337,077	-16	-3,416
339,207	-17	-3,434
341,331	-17	-3,444
343,455	-17	-3,452
345,591	-17,5	-3,47
347,721	-17,5	-3,48
349,844	-18	-3,483
351,962	-18	-3,484
354,092	-17,5	-3,486
356,234	-18	-3,491
358,354	-18	-3,491
360,47	-17,5	-3,492
362,6	-18	-3,493
364,719	-18	-3,492
366,842	-18	-3,493
368,959	-18	-3,493
371,083	-18	-3,496
373,207	-18	-3,497
375,331	-18	-3,498
377,455	-17,5	-3,498
379,585	-18	-3,498
381,715	-18	-3,499
383,833	-18	-3,499
385,956	-17,5	-3,499
388,074	-17,5	-3,499
390,198	-17,5	-3,499
392,31	-17,5	-3,499
394,44	-17,5	-3,499
396,564	-17,5	-3,5
398,688	-17,5	-3,5
400,812	-17,5	-3,413
402,935	-17,5	-3,388
405,065	-17,5	-3,425
407,195	-17,5	-3,337
409,319	-17,5	-3,26
411,449	-17	-3,188
413,567	-17	-3,237
415,697	-17,5	-3,193
417,821	-16	-3,14
419,944	-16	-3,09
422,062	-16	-3,112
424,18	-16,5	-3,188
426,31	-17	-3,202
428,44	-17,5	-3,195
430,558	-17,5	-3,212
432,682	-16,5	-3,222
434,8	-17	-3,264
436,924	-16,5	-3,196
439,053	-17	-3,157
441,183	-16	-3,092
443,301	-16,5	-3,135
445,425	-16	-3,057
447,543	-16	-3,121
449,661	-16	-3,122
451,785	-15	-3,009
453,909	-15,5	-3,046
456,038	-15,5	-3,06
458,162	-16,5	-3,042
460,286	-15	-3,002
462,41	-14,5	-2,914
464,534	-14,5	-2,883
466,652	-14,5	-2,884
468,776	-13,5	-2,774
470,9	-13	-2,771
473,017	-12,5	-2,735
475,141	-12,5	-2,71
477,259	-12	-2,674
479,383	-12	-2,633
481,501	-12	-2,639
483,625	-11,5	-2,594
485,749	-11	-2,521
487,867	-10,5	-2,462
489,99	-9,5	-2,306
492,108	-9	-2,264
494,238	-8	-2,193
496,356	-7,5	-2,145
498,48	-7	-2,042
500,598	-6,5	-1,99
502,716	-6	-1,926
504,84	-6	-1,87
506,963	-5,5	-1,718
509,087	-5	-1,683
511,211	-5	-1,622
513,335	-4	-1,538
515,459	-4	-1,514
517,583	-3,5	-1,378
519,707	-3	-1,301
521,831	-3	-1,213
523,949	-2,5	-1,17
526,066	-3	-1,214
528,184	-2,5	-1,155
530,314	-2	-1,122
532,438	-2	-1,072
534,562	-2	-0,989
536,686	-1,5	-0,894
538,81	-1,5	-0,828
540,934	-1	-0,788
543,063	-0,5	-0,691
545,187	-1	-0,651
547,311	-1	-0,653
549,435	-0,5	-0,619
551,559	0	-0,595
553,683	-0,5	-0,559
555,801	-0,5	-0,586
557,931	0	-0,479
560,054	0	-0,434
562,178	0	-0,319
564,302	0	-0,326
566,426	0,5	-0,254
568,55	0,5	-0,239
570,674	0,5	-0,218
572,798	1	-0,138
574,922	1,5	-0,102
577,046	1,5	-0,066
579,169	2	-0,05
581,293	2	-0,04
583,423	2	-0,026
585,541	2	-0,021
587,665	2	-0,018
589,789	2	-0,012
591,913	2	-0,011
594,031	2,5	-0,011
596,16	2,5	-0,009
598,284	2,5	-0,007
600,408	2,5	-0,005
602,532	2,5	-0,004
604,656	2,5	-0,003
606,78	2,5	-0,002
608,904	2	-0,002
611,028	2,5	-0,002
613,151	2,5	-0,002
615,275	2	-0,001
617,405	2,5	-0,001
619,535	2,5	0
621,659	2,5	-0,009
623,777	2,5	-0,077
625,907	2	-0,263
628,031	2	-0,379
630,154	2	-0,408
632,278	1,5	-0,432
634,402	1,5	-0,526
636,532	0,5	-0,602
638,65	0	-0,714
640,774	0	-0,764
642,904	-0,5	-0,84
645,028	-1	-0,906
647,151	-1,5	-0,994
649,275	-1,5	-1,12
651,399	-1,5	-1,149
653,517	-2	-1,196
655,641	-2,5	-1,327
657,759	-3	-1,436
659,883	-2,5	-1,49
662,001	-3	-1,586
664,125	-3,5	-1,747
666,242	-3,5	-1,821
668,36	-4,5	-1,89
670,49	-4,5	-2,025
672,614	-5,5	-2,22
674,732	-6	-2,276
676,856	-6	-2,413
678,98	-6,5	-2,48
681,098	-7,5	-2,57
683,221	-7,5	-2,631
685,333	-7,5	-2,623
687,457	-8,5	-2,785
689,575	-9	-2,79
691,699	-9	-2,852
693,823	-10	-2,902
695,941	-10	-2,976
698,059	-10,5	-3,071
700,182	-11,5	-3,154
702,3	-11,5	-3,206
704,424	-12,5	-3,259
706,548	-13,5	-3,34
708,666	-14,5	-3,394
710,79	-15	-3,428
712,908	-15	-3,444
715,032	-15	-3,458
717,156	-15	-3,472
719,273	-15,5	-3,475
721,403	-15,5	-3,481
723,527	-15,5	-3,485
725,651	-15,5	-3,489
727,769	-16	-3,49
729,893	-16	-3,492
732,017	-16	-3,495
734,14	-16	-3,496
736,264	-16	-3,496
738,388	-16	-3,497
740,506	-16	-3,497
742,636	-16	-3,498
744,76	-16	-3,499
746,884	-16	-3,499
749,008	-16	-3,499
751,126	-16	-3,5
753,249	-16	-3,486
755,373	-15,5	-3,337
757,497	-16	-3,277
759,615	-15,5	-3,251
761,739	-15	-3,15
763,863	-15	-3,061
765,993	-14	-2,91
768,117	-13,5	-2,834
770,24	-12	-2,761
772,364	-11	-2,652
774,494	-12	-2,635
776,618	-10	-2,525
778,742	-10	-2,507
780,872	-9	-2,356
782,99	-9	-2,298
785,114	-8,5	-2,226
787,231	-8	-2,195
789,355	-7,5	-2,133
791,473	-7,5	-2,118
793,585	-7,5	-2,18
795,709	-7,5	-2,193
797,827	-7,5	-2,161
799,951	-6,5	-2,02
802,075	-6,5	-1,884
804,199	-5	-1,838
806,322	-5	-1,766
808,446	-5	-1,716
810,564	-4,5	-1,653
812,694	-4	-1,56
814,824	-3	-1,405
816,942	-3	-1,33
819,066	-2,5	-1,254
821,19	-2,5	-1,234
823,313	-2	-1,141
825,431	-2	-1,126
827,561	-1	-0,933
829,685	-1	-0,861
831,809	-0,5	-0,762
833,927	-0,5	-0,746
836,051	-0,5	-0,691
838,181	0	-0,62
840,298	0	-0,529
842,422	0	-0,516
844,546	0	-0,412
846,664	0	-0,285
848,788	0,5	-0,202
850,912	1	-0,149
853,036	1,5	-0,111
855,154	2	-0,09
857,284	1,5	-0,056
859,407	2	-0,05
861,531	2	-0,036
863,655	2,5	-0,027
865,779	2,5	-0,02
867,897	2,5	-0,015
870,021	2,5	-0,011
872,145	2,5	-0,01
874,263	2,5	-0,008
876,387	2,5	-0,005
878,51	2,5	-0,004
880,64	2,5	-0,003
882,758	2,5	-0,002
884,882	2,5	-0,002
887	2,5	-0,001
889,124	2,5	-0,001
891,248	2,5	-0,001
893,365	2,5	-0,001
895,483	2,5	-0,022
897,607	2,5	-0,142
899,726	2,5	-0,147
901,849	1,5	-0,267
903,979	1,5	-0,326
906,103	1,5	-0,405
908,227	1,5	-0,466
910,35	0,5	-0,54
912,468	0	-0,665
914,598	-0,5	-0,806
916,722	-0,5	-0,82
918,84	-1	-0,931
920,958	-1,5	-1,095
923,082	-1,5	-1,189
925,206	-2	-1,325
927,341	-3	-1,579
929,459	-3	-1,642
931,589	-3,5	-1,761
933,713	-4	-1,86
935,837	-4,5	-1,964
937,961	-5	-2,105
940,079	-5	-2,221
942,203	-5,5	-2,304
944,333	-6,5	-2,439
946,45	-7,5	-2,576
948,58	-8	-2,758
950,704	-9	-2,868
952,822	-9	-2,941
954,946	-10,5	-3,061
957,064	-10,5	-3,151
959,194	-13	-3,336
961,312	-13,5	-3,378
963,441	-14,5	-3,432
965,565	-15	-3,453
967,683	-15	-3,461
969,807	-15	-3,47
971,931	-15	-3,481
974,049	-15	-3,485
976,167	-15	-3,49
978,285	-15	-3,492
980,42	-15,5	-3,496
982,538	-15	-3,497
984,656	-15	-3,498
986,78	-15,5	-3,498
988,898	-15,5	-3,498
991,022	-15,5	-3,499
993,152	-15	-3,499
995,27	-15,5	-3,499
997,399	-15	-3,499
999,523	-15	-3,5
1001,648	-15	-3,492
1003,765	-15	-3,486
1005,889	-15	-3,496
1008,001	-15,5	-3,486
1010,125	-15,5	-3,365
1012,249	-15,5	-3,338
1014,367	-15,5	-3,344
1016,496	-15	-3,166
1018,614	-15	-3,216
1020,738	-15	-3,18
1022,862	-14,5	-3,16
1024,992	-14,5	-3,1
1027,11	-14,5	-3,139
1029,234	-14,5	-3,081
1031,364	-13,5	-3,022
1033,481	-14,5	-3,028
1035,605	-13	-2,95
1037,723	-12,5	-2,919
1039,841	-12	-2,876
1041,965	-11,5	-2,82
1044,095	-11	-2,744
1046,213	-11	-2,75
1048,331	-11	-2,734
1050,454	-11,5	-2,779
1052,572	-12,5	-2,886
1054,69	-12,5	-2,891
1056,814	-12	-2,835
1058,932	-11,5	-2,788
1061,062	-10	-2,633
1063,18	-9,5	-2,628
1065,304	-10	-2,663
1067,433	-9,5	-2,576
1069,551	-10	-2,629
1071,675	-10	-2,583
1073,793	-9,5	-2,52
1075,911	-9	-2,435
1078,035	-8,5	-2,394
1080,159	-7,5	-2,366
1082,289	-8	-2,317
1084,407	-8	-2,301
1086,53	-8	-2,283
1088,648	-8	-2,314
1090,772	-8	-2,268
1092,896	-8	-2,244
1095,014	-7,5	-2,218
1097,132	-8	-2,324
1099,262	-7,5	-2,255
1101,38	-8	-2,26
1103,509	-7,5	-2,233
1105,627	-7	-2,168
1107,757	-7	-2,103
1109,869	-6,5	-2,112
1111,993	-7,5	-2,163
1114,117	-6	-2,108
1116,241	-6	-2,079
1118,371	-6	-2,06
1120,494	-6,5	-2,048
1122,612	-6	-2,009
1124,736	-5,5	-2,024
1126,854	-6,5	-2,06
1128,984	-6	-2,059
1131,108	-6	-2,03
1133,226	-6,5	-2,105
1135,356	-6	-2,068
1137,473	-6,5	-2,035
1139,591	-6,5	-2,029
1141,709	-6	-1,998
1143,833	-6	-1,91
1145,951	-6	-1,97
1148,075	-5	-1,85
1150,193	-5,5	-1,877
1152,317	-5,5	-1,848
1154,434	-5	-1,894
1156,564	-5	-1,868
1158,682	-5	-1,888
1160,806	-5	-1,838
1162,924	-5	-1,864
1165,048	-5	-1,787
1167,166	-4,5	-1,788
1169,29	-4,5	-1,779
1171,408	-5	-1,859
1173,531	-5	-1,835
1175,649	-5	-1,798
1177,773	-4,5	-1,727
1179,891	-4,5	-1,738
1182,015	-4	-1,652
1184,133	-3	-1,564
1186,257	-3	-1,497
1188,375	-3,5	-1,498
1190,498	-3	-1,479
1192,616	-3	-1,5
1194,746	-3	-1,414
1196,87	-3	-1,368
1198,994	-2,5	-1,34
1201,112	-2,5	-1,355
1203,236	-2,5	-1,315
1205,348	-3	-1,404
1207,483	-2,5	-1,319
1209,601	-2,5	-1,31
1211,725	-2,5	-1,259
1213,843	-3	-1,36
1215,973	-2,5	-1,3
1218,097	-2,5	-1,324
1220,215	-2,5	-1,335
1222,333	-2,5	-1,341
1224,45	-2,5	-1,374
1226,568	-3	-1,379
1228,692	-2,5	-1,382
1230,81	-2,5	-1,354
1232,934	-2,5	-1,309
1235,058	-2	-1,279
1237,182	-2,5	-1,324
1239,3	-2	-1,262
1241,418	-1,5	-1,176
1243,547	-1,5	-1,074
1245,665	-1,5	-1,095
1247,795	-1,5	-1,025
1249,913	-1	-0,984
1252,037	-1	-0,921
1254,161	-1	-0,877
1256,279	-0,5	-0,773
1258,403	-0,5	-0,63
1260,526	0	-0,509
1262,644	0	-0,44
1264,762	0	-0,292
1266,88	0,5	-0,188
1268,998	0,5	-0,172
1271,122	1	-0,162
1273,24	1	-0,156
1275,37	1	-0,112
1277,487	1,5	-0,112
1279,617	1,5	-0,068
1281,735	1,5	-0,068
1283,859	1,5	-0,043
1285,977	2	-0,031
1288,101	2,5	-0,026
1290,219	2,5	-0,017
1292,337	2,5	-0,012
1294,461	2,5	-0,012
1296,584	2,5	-0,008
1298,708	2,5	-0,006
1300,826	2,5	-0,005
1302,956	2,5	-0,004
1305,074	2,5	-0,004
1307,192	2,5	-0,003
1309,31	2,5	-0,002
1311,434	2,5	-0,002
1313,557	2,5	-0,002
1315,687	3	-0,002
1317,811	2,5	-0,002
1319,929	2,5	-0,002
1322,053	2,5	-0,001
1324,171	2,5	-0,001
1326,289	2,5	-0,001
1328,431	2,5	-0,005
1330,548	2,5	-0,023
1332,672	2,5	-0,089
1334,796	2,5	-0,249
1336,908	1,5	-0,315
1339,026	1,5	-0,428
1341,156	1,5	-0,466
1343,268	1,5	-0,478
1345,386	0,5	-0,536
1347,515	1	-0,586
1349,633	0	-0,617
1351,757	0	-0,662
1353,875	0	-0,752
1355,999	0	-0,798
1358,117	0	-0,792
1360,241	-1	-0,918
1362,365	-1,5	-1,032
1364,477	-1	-1,002
1366,6	-1,5	-1,079
1368,724	-1,5	-1,082
1370,842	-1,5	-1,135
1372,972	-2	-1,243
1375,09	-2	-1,317
1377,22	-2,5	-1,419
1379,338	-2	-1,43
1381,462	-2,5	-1,47
1383,585	-2,5	-1,558
1385,703	-2,5	-1,675
1387,833	-3	-1,728
1389,951	-3	-1,729
1392,075	-3	-1,816
1394,193	-3,5	-1,858
1396,311	-3,5	-1,88
1398,435	-3,5	-1,909
1400,558	-4	-1,944
1402,682	-4	-1,958
1404,8	-4	-1,973
1406,918	-4	-1,925
1409,048	-4	-2,032
1411,166	-4,5	-2,117
1413,296	-4,5	-2,299
1415,414	-5	-2,362
1417,537	-5,5	-2,37
1419,655	-5,5	-2,402
1421,773	-5,5	-2,439
1423,891	-5,5	-2,397
1426,003	-5,5	-2,408
1428,121	-5,5	-2,429
1430,245	-6	-2,465
1432,363	-6	-2,512
1434,486	-6	-2,573
1436,61	-7	-2,709
1438,728	-7	-2,709
1440,852	-8	-2,892
1442,971	-8,5	-2,982
1445,1	-10	-3,081
1447,224	-9,5	-3,099
1449,342	-10	-3,126
1451,46	-10,5	-3,192
1453,589	-11	-3,306
1455,707	-11	-3,29
1457,825	-11,5	-3,319
1459,955	-12,5	-3,368
1462,073	-12	-3,386
1464,191	-12,5	-3,393
1466,315	-13	-3,41
1468,433	-13,5	-3,428
1470,55	-13	-3,424
1472,668	-14	-3,447
1474,786	-14	-3,457
1476,91	-14	-3,473
1479,028	-14,5	-3,484
1481,146	-14,5	-3,488
1483,27	-14,5	-3,492
1485,388	-15	-3,493
1487,517	-14,5	-3,495
1489,635	-15	-3,496
1491,753	-15	-3,498
1493,877	-15	-3,498
1496,001	-15	-3,499
1498,119	-14,5	-3,5
1500,243	-15	-3,5
1502,361	-15	-3,5
1504,491	-14,5	-3,407
1506,608	-15	-3,4
1508,732	-15	-3,312
1510,856	-14	-3,188
1512,98	-14,5	-3,19
1515,098	-14	-3,154
1517,222	-13,5	-3,091
1519,346	-13,5	-3,046
1521,464	-12,5	-2,941
1523,587	-11	-2,819
1525,705	-10,5	-2,76
1527,823	-10	-2,671
1529,941	-10	-2,672
1532,059	-9,5	-2,666
1534,183	-8,5	-2,478
1536,301	-8,5	-2,472
1538,419	-7,5	-2,388
1540,542	-7	-2,298
1542,66	-7	-2,273
1544,79	-5,5	-2,176
1546,908	-6	-2,139
1549,026	-5,5	-2,068
1551,15	-4,5	-1,994
1553,274	-4,5	-1,964
1555,398	-4,5	-1,881
1557,522	-4	-1,845
1559,639	-4,5	-1,818
1561,751	-4,5	-1,914
1563,869	-5	-2,004
1565,981	-4,5	-1,924
1568,111	-4,5	-1,9
1570,229	-3,5	-1,72
1572,347	-3	-1,646
1574,464	-3	-1,534
1576,582	-3	-1,536
1578,7	-3	-1,408
1580,836	-2,5	-1,238
1582,954	-1,5	-1,144
1585,072	-1,5	-1,096
1587,196	-1,5	-1,052
1589,314	-1	-1,019
1591,432	-1	-0,961
1593,555	-1	-0,915
1595,673	-1	-0,953
1597,785	-1	-1,048
1599,909	-1	-0,933
1602,027	-0,5	-0,854
1604,145	-0,5	-0,859
1606,263	-0,5	-0,779
1608,381	-0,5	-0,678
1610,499	0	-0,579
1612,622	0	-0,559
1614,74	0	-0,554
1616,864	0	-0,461
1618,982	0	-0,414
1621,094	0	-0,465
1623,218	0	-0,424
1625,336	0	-0,399
1627,465	1	-0,173
1629,589	1	-0,15
1631,707	1,5	-0,128
1633,831	1,5	-0,104
1635,949	1,5	-0,09
1638,067	1,5	-0,064
1640,197	2	-0,04
1642,315	2	-0,027
1644,439	2,5	-0,021
1646,562	2,5	-0,015
1648,686	2,5	-0,014
1650,804	2,5	-0,014
1652,934	2,5	-0,011
1655,052	2,5	-0,012
1657,17	2,5	-0,012
1659,294	2,5	-0,009
1661,406	2,5	-0,01
1663,541	2,5	-0,007
1665,659	2,5	-0,007
1667,777	2,5	-0,006
1669,895	2,5	-0,006
1672,025	2,5	-0,004
1674,143	2,5	-0,003
1676,261	2,5	-0,003
1678,391	2,5	-0,003
1680,508	2,5	-0,002
1682,632	2,5	-0,002
1684,75	2,5	-0,002
1686,874	2,5	-0,003
1688,998	2,5	-0,003
1691,116	2,5	-0,003
1693,228	2,5	-0,003
1695,352	2,5	-0,002
1697,47	2,5	-0,002
1699,587	2,5	-0,001
1701,711	2,5	-0,001
1703,823	2,5	-0,001
1705,941	2	-0,001
1708,071	2	0
1710,195	2,5	-0,052
1712,313	2,5	-0,144
1714,437	2,5	-0,287
1716,554	2	-0,35
1718,672	2	-0,388
1720,796	2	-0,418
1722,914	1,5	-0,476
1725,032	1,5	-0,508
1727,156	1	-0,623
1729,274	0	-0,729
1731,392	-0,5	-0,888
1733,509	-0,5	-0,892
1735,633	-0,5	-0,991
1737,751	-0,5	-0,89
1739,869	-0,5	-0,942
1741,993	-1	-0,972
1744,111	-1	-0,999
1746,235	-1	-1,091
1748,353	-1	-1,118
1750,476	-1,5	-1,159
1752,594	-1,5	-1,15
1754,718	-1,5	-1,161
1756,836	-1,5	-1,176
1758,96	-1,5	-1,174
1761,084	-1,5	-1,268
1763,202	-1,5	-1,295
1765,326	-2	-1,282
1767,455	-2	-1,383
1769,573	-2	-1,474
1771,691	-1,5	-1,451
1773,815	-2,5	-1,513
1775,939	-2	-1,532
1778,057	-2	-1,467
1780,181	-2,5	-1,507
1782,299	-2,5	-1,506
1784,422	-2	-1,521
1786,546	-2,5	-1,556
1788,664	-2,5	-1,535
1790,782	-2,5	-1,507
1792,912	-2	-1,62
1795,03	-3	-1,737
1797,148	-3	-1,768
1799,266	-3	-1,773
1801,384	-3	-1,837
1803,501	-3	-1,852
1805,619	-3,5	-1,959
1807,743	-3,5	-2,056
1809,861	-4,5	-2,162
1811,979	-4,5	-2,136
1814,103	-4,5	-2,245
1816,227	-5	-2,36
1818,345	-5	-2,413
1820,474	-6	-2,547
1822,592	-6	-2,605
1824,71	-6	-2,642
1826,828	-6	-2,631
1828,958	-7	-2,776
1831,076	-7,5	-2,871
1833,194	-8	-2,912
1835,318	-8,5	-2,976
1837,435	-8,5	-3,032
1839,559	-9	-3,126
1841,683	-9,5	-3,232
1843,813	-11	-3,316
1845,937	-10,5	-3,342
1848,061	-12	-3,393
1850,179	-12,5	-3,397
1852,303	-13	-3,425
1854,426	-13,5	-3,448
1856,544	-13	-3,445
1858,662	-13,5	-3,459
1860,78	-13,5	-3,472
1862,904	-14	-3,48
1865,022	-13,5	-3,478
1867,14	-14	-3,478
1869,264	-13,5	-3,482
1871,382	-14	-3,482
1873,499	-14	-3,484
1875,629	-14	-3,49
1877,747	-14	-3,49
1879,865	-14	-3,491
1881,989	-14	-3,493
1884,113	-14,5	-3,494
1886,237	-14	-3,496
1888,349	-14,5	-3,495
1890,472	-14	-3,496
1892,596	-14	-3,496
1894,714	-14	-3,496
1896,844	-14	-3,498
1898,962	-14	-3,498
1901,08	-14	-3,498
1903,198	-14,5	-3,498
1905,328	-14	-3,499
1907,445	-14	-3,498
1909,563	-14	-3,499
1911,681	-14	-3,499
1913,805	-14	-3,499
1915,923	-14,5	-3,499
1918,053	-14	-3,486
1920,171	-14	-3,479
1922,295	-14	-3,439
1924,413	-14,5	-3,327
1926,53	-14	-3,294
1928,654	-13,5	-3,196
1930,772	-13,5	-3,207
1932,884	-13,5	-3,217
1935,008	-13	-3,144
1937,126	-13	-3,09
1939,244	-12	-3
1941,374	-11	-2,854
1943,497	-10	-2,74
1945,615	-9	-2,603
1947,739	-8	-2,45
1949,863	-7	-2,415
1951,987	-6	-2,254
1954,105	-5,5	-2,153
1956,223	-5	-2,083
1958,347	-5	-2,048
1960,47	-4,5	-1,955
1962,588	-4,5	-1,834
1964,706	-3,5	-1,781
1966,83	-3	-1,634
1968,954	-2,5	-1,494
1971,072	-2,5	-1,472
1973,196	-2	-1,341
1975,32	-2	-1,318
1977,437	-2	-1,284
1979,555	-1,5	-1,291
1981,679	-2	-1,224
1983,797	-1,5	-1,144
1985,921	-1	-1,084
1988,039	-0,5	-1,017
1990,163	-1	-0,979
1992,281	-0,5	-0,832
1994,399	-0,5	-0,816
1996,522	0	-0,754
1998,64	0	-0,696
2000,752	0	-0,673
2002,876	0	-0,602
2005	0	-0,508
2007,118	0	-0,477
2009,236	0	-0,424
2011,36	0	-0,362
2013,477	0,5	-0,256
2015,589	0,5	-0,226
2017,707	1	-0,18
2019,837	1	-0,14
2021,949	1,5	-0,118
2024,073	1,5	-0,096
2026,185	1,5	-0,075
2028,309	1,5	-0,079
2030,426	1,5	-0,068
2032,55	2	-0,043
2034,674	2	-0,028
2036,798	2	-0,02
2038,916	2,5	-0,021
2041,034	2	-0,016
2043,158	2,5	-0,014
2045,282	2,5	-0,011
2047,406	2,5	-0,008
2049,523	2,5	-0,007
2051,653	2,5	-0,004
2053,777	2,5	-0,003
2055,901	2,5	-0,002
2058,019	2,5	-0,002
2060,137	2,5	-0,002
2062,255	2,5	-0,002
2064,373	3	-0,002
2066,49	2,5	-0,002
2068,62	2,5	-0,001
2070,738	2,5	-0,001
2072,862	2,5	-0,001
2074,986	2,5	0
2077,104	2,5	0
2079,222	2,5	-0,119
2081,352	2,5	-0,268
2083,469	2	-0,267
2085,587	2	-0,375
2087,705	2	-0,411
2089,823	2	-0,432
2091,953	1,5	-0,54
2094,071	1	-0,614
2096,189	0,5	-0,688
2098,307	0	-0,709
2100,43	0	-0,802
2102,548	0	-0,909
2104,666	0	-0,886
2106,79	-0,5	-0,906
2108,908	-0,5	-0,939
2111,026	-0,5	-0,916
2113,15	-0,5	-0,914
2115,274	-1	-0,927
2117,391	0	-0,874
2119,509	-0,5	-0,874
2121,633	-1	-0,913
2123,751	-0,5	-0,908
2125,893	-1	-1,054
2128,017	-1	-1,035
2130,135	-1	-1,094
2132,253	-1	-1,072
2134,371	-0,5	-1,034
2136,488	-1	-1,076
2138,606	-0,5	-1,034
2140,73	-1	-1,091
2142,848	-1	-1,137
2144,972	-1,5	-1,247
2147,09	-1,5	-1,295
2149,214	-1,5	-1,345
2151,332	-1,5	-1,345
2153,461	-1,5	-1,357
2155,579	-2	-1,414
2157,703	-2	-1,529
2159,821	-2	-1,592
2161,945	-2,5	-1,717
2164,063	-2,5	-1,807
2166,187	-3	-1,849
2168,305	-3	-1,88
2170,422	-3	-1,932
2172,546	-3,5	-2,116
2174,664	-3,5	-2,142
2176,782	-4	-2,205
2178,9	-4,5	-2,28
2181,018	-4,5	-2,316
2183,142	-4,5	-2,383
2185,26	-5	-2,41
2187,378	-5	-2,405
2189,495	-5	-2,436
2191,613	-5	-2,483
2193,731	-5,5	-2,515
2195,849	-5,5	-2,572
2197,967	-5,5	-2,668
2200,091	-7	-2,821
2202,209	-7	-2,825
2204,327	-7	-2,872
2206,444	-7,5	-2,935
2208,568	-8,5	-3,045
2210,686	-8,5	-3,087
2212,804	-9	-3,177
2214,934	-9,5	-3,246
2217,052	-10	-3,283
2219,17	-11	-3,351
2221,288	-12	-3,415
2223,412	-13	-3,438
2225,529	-13	-3,448
2227,647	-13,5	-3,462
2229,765	-13,5	-3,473
2231,883	-13,5	-3,471
2234,007	-13,5	-3,48
2236,125	-13,5	-3,48
2238,243	-13,5	-3,482
2240,36	-13,5	-3,486
2242,484	-13,5	-3,49
2244,608	-13,5	-3,493
2246,72	-14	-3,494
2248,844	-14	-3,495
2250,962	-14	-3,496
2253,086	-14	-3,497
2255,204	-14	-3,498
2257,333	-13,5	-3,499
2259,451	-14	-3,5
2261,569	-14	-3,5
2263,687	-14	-3,5
2265,811	-14	-3,5
2267,935	-14	-3,479
2270,053	-13,5	-3,489
2272,177	-14	-3,486
2274,295	-14	-3,489
2276,418	-14	-3,426
2278,542	-14	-3,446
2280,66	-14	-3,383
2282,784	-13,5	-3,332
2284,902	-14	-3,343
2287,02	-13,5	-3,388
2289,144	-13,5	-3,283
2291,268	-13	-3,188
2293,385	-13	-3,167
2295,509	-13	-3,164
2297,627	-13	-3,218
2299,751	-13	-3,167
2301,863	-12,5	-3,186
2303,981	-12,5	-3,176
2306,099	-13	-3,155
2308,223	-12	-3,093
2310,341	-12	-3,089
2312,464	-12	-3,042
2314,582	-11	-2,963
2316,706	-10,5	-2,939
2318,824	-10,5	-2,917
2320,948	-10	-2,877
2323,072	-10	-2,832
2325,19	-9,5	-2,805
2327,307	-9,5	-2,783
2329,425	-10	-2,844
2331,543	-9,5	-2,844
2333,667	-9	-2,703
2335,797	-8,5	-2,638
2337,915	-8,5	-2,664
2340,033	-8,5	-2,643
2342,157	-9,5	-2,663
2344,281	-8	-2,649
2346,398	-8	-2,664
2348,522	-8	-2,634
2350,64	-7,5	-2,576
2352,764	-7,5	-2,605
2354,882	-7,5	-2,569
2357	-7,5	-2,543
2359,118	-6,5	-2,484
2361,236	-6,5	-2,368
2363,353	-6,5	-2,347
2365,471	-6	-2,359
2367,595	-6	-2,245
2369,719	-5	-2,251
2371,837	-4,5	-2,156
2373,955	-5	-2,145
2376,079	-4	-2,031
2378,197	-3,5	-1,946
2380,314	-4	-1,968
2382,432	-4	-1,914
2384,556	-3,5	-1,902
2386,68	-3,5	-1,893
2388,792	-4,5	-1,976
2390,916	-3,5	-1,93
2393,034	-4	-1,91
2395,152	-4	-1,953
2397,269	-4	-1,943
2399,387	-4	-1,958
2401,505	-3,5	-1,869
2403,641	-3	-1,715
2405,759	-3	-1,669
2407,877	-3	-1,717
2409,995	-3	-1,706
2412,119	-3	-1,688
2414,237	-3	-1,699
2416,36	-2,5	-1,61
2418,478	-2,5	-1,615
2420,608	-2,5	-1,509
2422,726	-2	-1,444
2424,844	-2	-1,439
2426,962	-1,5	-1,334
2429,086	-1,5	-1,204
2431,204	-1,5	-1,188
2433,315	-1	-1,185
2435,433	-1	-1,133
2437,557	-0,5	-1,024
2439,675	-0,5	-1,04
2441,793	-0,5	-1,009
2443,911	-0,5	-0,95
2446,029	-1	-0,94
2448,159	0	-0,769
2450,277	0	-0,744
2452,394	0	-0,668
2454,512	0	-0,684
2456,642	0	-0,556
2458,76	0	-0,546
2460,872	0	-0,534
2462,996	0	-0,525
2465,12	0	-0,443
2467,238	0,5	-0,338
2469,355	0,5	-0,311
2471,473	0,5	-0,272
2473,603	0,5	-0,192
2475,721	1	-0,184
2477,839	1	-0,148
2479,957	1	-0,146
2482,075	1	-0,169
2484,205	1	-0,148
2486,322	0,5	-0,169
2488,44	1,5	-0,124
2490,558	1,5	-0,113
2492,682	1,5	-0,093
2494,8	1,5	-0,064
2496,924	1,5	-0,058
2499,048	2	-0,05
2501,172	2	-0,043
2503,289	2,5	-0,031
2505,407	2	-0,026
2507,525	2,5	-0,022
2509,649	2,5	-0,017
2511,767	2,5	-0,011
2513,885	2,5	-0,01
2516,003	2,5	-0,008
2518,121	2,5	-0,007
2520,25	2,5	-0,005
2522,368	2	-0,004
2524,486	2,5	-0,003
2526,604	2,5	-0,002
2528,734	2,5	-0,001
2530,852	2,5	-0,001
2532,97	2,5	-0,001
2535,088	2,5	-0,001
2537,217	2,5	-0,001
2539,335	2,5	0
2541,453	2	-0,058
2543,571	2,5	-0,147
2545,689	2	-0,236
2547,819	2	-0,345
2549,937	1,5	-0,414
2552,055	1	-0,514
2554,173	0,5	-0,589
2556,29	0	-0,668
2558,42	0	-0,802
2560,544	-1	-0,938
2562,656	-0,5	-0,94
2564,768	-1	-0,909
2566,886	-1	-0,926
2569,016	-1	-1,037
2571,134	-1	-1,001
2573,251	-1	-1,053
2575,375	-1	-1,19
2577,493	-1	-1,226
2579,611	-1,5	-1,225
2581,729	-1,5	-1,262
2583,853	-1,5	-1,266
2585,977	-1,5	-1,354
2588,095	-1,5	-1,385
2590,212	-1,5	-1,476
2592,33	-2	-1,522
2594,454	-1,5	-1,552
2596,572	-1,5	-1,567
2598,69	-2	-1,636
2600,814	-2	-1,655
2602,932	-2	-1,73
2605,062	-2	-1,826
2607,18	-2,5	-1,916
2609,291	-2,5	-1,859
2611,415	-2,5	-1,846
2613,539	-2,5	-1,94
2615,663	-3	-2,033
2617,781	-3	-2,06
2619,905	-3	-2,1
2622,029	-3	-2,172
2624,153	-4	-2,34
2626,27	-4	-2,361
2628,388	-4	-2,434
2630,506	-4,5	-2,497
2632,642	-5	-2,625
2634,76	-5	-2,677
2636,878	-5	-2,693
2638,99	-5	-2,748
2641,114	-5,5	-2,868
2643,231	-6	-2,969
2645,343	-6,5	-3,023
2647,467	-7	-3,149
2649,585	-7	-3,185
2651,715	-7,5	-3,278
2653,833	-8	-3,317
2655,951	-8,5	-3,364
2658,069	-9	-3,411
2660,198	-10	-3,443
2662,316	-9,5	-3,445
2664,434	-10	-3,454
2666,552	-10	-3,449
2668,682	-10	-3,465
2670,8	-10,5	-3,469
2672,924	-10,5	-3,47
2675,042	-10	-3,471
2677,16	-10,5	-3,477
2679,283	-10,5	-3,488
2681,407	-10,5	-3,492
2683,537	-10,5	-3,495
2685,655	-10,5	-3,497
2687,785	-10,5	-3,498
2689,903	-10,5	-3,499
2692,021	-10,5	-3,499
2694,151	-10,5	-3,5
2696,268	-10,5	-3,497
2698,392	-10,5	-3,394
2700,51	-10,5	-3,294
2702,628	-10,5	-3,201
2704,746	-10	-3,094
2706,864	-9,5	-3,051
2708,982	-8,5	-2,934
2711,1	-7,5	-2,86
2713,217	-7	-2,781
2715,347	-6,5	-2,642
2717,465	-6	-2,604
2719,589	-5,5	-2,464
2721,707	-4,5	-2,341
2723,819	-4	-2,239
2725,949	-3,5	-2,158
2728,073	-3,5	-2,028
2730,19	-3	-1,943
2732,308	-2,5	-1,848
2734,432	-2	-1,749
2736,544	-2	-1,673
2738,662	-1,5	-1,614
2740,78	-1,5	-1,589
2742,898	-1,5	-1,524
2745,022	-1	-1,379
2747,139	-1	-1,341
2749,257	-0,5	-1,299
2751,375	-0,5	-1,273
2753,499	-0,5	-1,109
2755,617	-0,5	-1,079
2757,735	0	-0,994
2759,853	0	-0,914
2761,971	0	-0,852
2764,089	0	-0,836
2766,206	0	-0,703
2768,324	0	-0,634
2770,442	0	-0,565
2772,572	0,5	-0,459
2774,69	0,5	-0,294
2776,814	1	-0,192
2778,932	1,5	-0,136
2781,05	1,5	-0,108
2783,167	1,5	-0,084
2785,291	2	-0,056
2787,409	2	-0,035
2789,533	2	-0,023
2791,651	2	-0,022
2793,769	2,5	-0,014
2795,893	2,5	-0,01
2798,011	2,5	-0,006
2800,134	2,5	-0,005
2802,252	2,5	-0,004
2804,382	2,5	-0,002
2806,5	2,5	-0,002
2808,624	2,5	-0,001
2810,742	2,5	-0,001
2812,866	2,5	-0,001
2814,984	2,5	-0,001
2817,113	2,5	0
2819,231	2,5	-0,012
2821,349	2,5	-0,165
2823,473	2,5	-0,262
2825,591	1,5	-0,472
2827,721	0,5	-0,639
2829,839	0	-0,728
2831,957	0	-0,871
2834,069	-0,5	-0,926
2836,192	-1	-1,163
2838,31	-1	-1,248
2840,428	-1	-1,332
2842,546	-1	-1,433
2844,664	-1,5	-1,576
2846,788	-1,5	-1,724
2848,906	-1,5	-1,829
2851,024	-2	-1,914
2853,147	-2,5	-2,029
2855,265	-2,5	-2,129
2857,395	-3	-2,332
2859,507	-3,5	-2,461
2861,625	-3,5	-2,546
2863,743	-4	-2,688
2865,861	-4,5	-2,79
2867,979	-4,5	-2,842
2870,091	-5	-2,914
2872,214	-5	-2,98
2874,332	-5,5	-3,016
2876,456	-6	-3,168
2878,574	-7	-3,272
2880,692	-6,5	-3,248
2882,81	-6,5	-3,247
2884,928	-7	-3,286
2887,058	-7,5	-3,359
2889,181	-8	-3,403
2891,305	-9	-3,427
2893,423	-9	-3,443
2895,547	-9,5	-3,453
2897,665	-9,5	-3,466
2899,789	-10	-3,48
2901,907	-10	-3,485
2904,025	-10	-3,486
2906,148	-10	-3,489
2908,272	-10	-3,491
2910,384	-10	-3,492
2912,508	-10	-3,493
2914,626	-10	-3,496
2916,756	-10	-3,498
2918,874	-10	-3,498
2920,992	-9,5	-3,499
2923,109	-9,5	-3,499
2925,233	-9,5	-3,475
2927,351	-9,5	-3,348
2929,469	-9,5	-3,212
2931,593	-8,5	-3,044
2933,711	-8	-3,049
2935,829	-7,5	-2,97
2937,947	-6,5	-2,874
2940,071	-6	-2,819
2942,188	-5,5	-2,701
2944,324	-4	-2,452
2946,442	-3	-2,335
2948,56	-3	-2,245
2950,678	-3	-2,119
2952,802	-2	-1,966
2954,92	-1,5	-1,839
2957,043	-1,5	-1,777
2959,167	-1	-1,609
2961,291	-1	-1,543
2963,409	-0,5	-1,464
2965,527	-0,5	-1,38
2967,657	-0,5	-1,308
2969,781	-0,5	-1,258
2971,905	0	-1,144
2974,022	0	-1,043
2976,141	0	-0,958
2978,258	0	-0,809
2980,382	0	-0,684
2982,494	0	-0,683
2984,618	0	-0,589
2986,736	0,5	-0,499
2988,854	0,5	-0,409
2990,972	0,5	-0,32
2993,095	1	-0,221
2995,225	1,5	-0,135
2997,349	1,5	-0,117
2999,467	1,5	-0,096
3001,591	1,5	-0,079
3003,709	1,5	-0,067
3005,827	1,5	-0,068
3007,939	1,5	-0,06
3010,057	2	-0,04
3012,174	2	-0,039
3014,298	2,5	-0,026
3016,416	2	-0,018
3018,534	2,5	-0,015
3020,652	2,5	-0,009
3022,77	2,5	-0,008
3024,894	2,5	-0,004
3027,012	2,5	-0,004
3029,129	2,5	-0,004
3031,253	2	-0,003
3033,371	2,5	-0,003
3035,495	2,5	-0,003
3037,613	2,5	-0,002
3039,731	2,5	-0,002
3041,849	2,5	-0,002
3043,973	2,5	-0,001
3046,09	2,5	-0,001
3048,208	2,5	-0,001
3050,326	2,5	-0,001
3052,45	2,5	-0,001
3054,574	2,5	-0,001
3056,692	2,5	-0,022
3058,81	2,5	-0,164
3060,928	2,5	-0,268
3063,045	2,5	-0,236
3065,163	2	-0,327
3067,281	1,5	-0,486
3069,399	0,5	-0,598
3071,517	0,5	-0,603
3073,635	0	-0,651
3075,759	0	-0,718
3077,877	0	-0,728
3080	0	-0,773
3082,118	0	-0,784
3084,242	0	-0,802
3086,354	0	-0,746
3088,472	0	-0,82
3090,596	0	-0,866
3092,708	0	-0,84
3094,826	0	-0,883
3096,944	0	-0,856
3099,061	0	-0,881
3101,179	0	-0,897
3103,303	-0,5	-0,982
3105,427	0	-0,893
3107,545	0	-0,892
3109,663	0	-0,897
3111,787	0	-0,986
3113,905	-0,5	-0,995
3116,034	-0,5	-1,103
3118,152	-1	-1,199
3120,264	-0,5	-1,28
3122,382	-1	-1,333
3124,506	-1	-1,372
3126,618	-1	-1,438
3128,736	-1	-1,522
3130,854	-1	-1,57
3132,971	-1	-1,581
3135,095	-1,5	-1,695
3137,219	-1	-1,741
3139,343	-1,5	-1,824
3141,461	-1,5	-1,876
3143,579	-1,5	-1,988
3145,703	-1,5	-2,06
3147,821	-1,5	-2,08
3149,938	-2	-2,112
3152,056	-1,5	-2,112
3154,18	-2	-2,178
3156,298	-2	-2,242
3158,416	-2	-2,242
3160,54	-2	-2,32
3162,658	-2	-2,377
3164,29	3	0