File: ensaios_Ciclicos/_40perc/_3gap/entrada/_5.txt
Time (s)	Load (N)	Displacement (mm)
72,223	-22,5	-3,497
73,675	-6	-1,856
75,121	1,5	-0,053
76,567	-22	-3,299
78,013	-8	-2,01
79,465	1,5	-0,036
80,905	-22	-3,172
82,362	-9	-2,18
83,802	1,5	-0,027
85,242	-21,5	-3,13
86,688	-9	-2,172
88,134	1,5	-0,022
89,574	-21	-3,086
91,014	-8,5	-2,169
92,46	2	-0,024
93,9	-20,5	-3,059
95,34	-9	-2,204
96,798	2	-0,02
98,238	-20	-3,011
99,678	-9,5	-2,246
101,119	2	-0,021
102,563	-20	-3,009
104,003	-9	-2,248
105,455	2	-0,018
106,895	-18,5	-2,911
108,341	-10,5	-2,438
109,781	2	-0,012
111,227	-18	-2,82
112,667	-10,5	-2,472
114,113	2	-0,008
115,554	-18,5	-2,84
116,998	-10,5	-2,49
118,438	2	-0,009
119,884	-17	-2,738
121,336	-12,5	-2,733
122,776	2,5	-0,005
124,222	-15,5	-2,57
125,676	-13	-2,732
127,114	2,5	-0,005
128,566	-15	-2,577
130,012	-12,5	-2,8
131,458	2,5	-0,004
132,904	-14,5	-2,452
134,356	-14	-2,908
135,795	2,5	-0,002
137,241	-13	-2,35
138,687	-13	-2,967
140,14	2	-0,002
141,585	-12	-2,152
143,031	-15	-3,198
144,477	2	-0,001
145,917	-10,5	-2,082
147,363	-16	-3,233
148,815	2	-0,001
150,261	-9,5	-1,964
151,713	-18	-3,348
153,152	2	0
154,592	-8	-1,818
156,038	-19	-3,409
157,496	2	-0,064
158,936	-7	-1,635
160,382	-19,5	-3,435
161,822	2	-0,112
163,268	-6	-1,497
164,72	-20	-3,458
166,16	2	-0,19
167,612	-5	-1,383
169,058	-20,5	-3,472
170,503	1,5	-0,452
171,949	-4	-1,181
173,389	-20,5	-3,482
174,841	0	-0,59
176,293	-3	-0,988
177,739	-21	-3,492
179,197	-1,5	-0,865
253,065	-18	-3,424
254,505	2,5	-0,076
255,945	-6	-1,612
257,39	-19	-3,445
258,848	2	-0,281
260,288	-4	-1,387
261,74	-19	-3,469
263,192	1,5	-0,412
264,644	-3,5	-1,228
266,096	-19,5	-3,483
267,554	0	-0,638
269	-2	-0,996
270,452	-19,5	-3,494
271,898	-1	-0,88
273,343	-1,5	-0,818
274,789	-19,5	-3,495
276,235	-1,5	-0,942
277,681	-0,5	-0,665
279,127	-19,5	-3,497
280,579	-3	-1,167
282,031	0	-0,484
283,483	-19,5	-3,498
284,929	-4	-1,412
286,375	0,5	-0,218
287,821	-19,5	-3,499
289,273	-4,5	-1,627
290,724	1,5	-0,137
292,164	-19,5	-3,5
293,61	-5	-1,732
295,062	1,5	-0,082
296,514	-19,5	-3,383
297,966	-5,5	-1,956
299,418	2,5	-0,04
300,858	-19,5	-3,175
302,304	-7,5	-2,188
303,751	2	-0,025
305,196	-18	-3,068
306,654	-8	-2,306
308,099	2,5	-0,017
309,551	-16,5	-2,958
311,003	-9	-2,475
312,449	2,5	-0,011
313,901	-14,5	-2,75
315,347	-10	-2,589
316,799	2,5	-0,006
318,245	-13	-2,573
319,691	-11	-2,766
321,149	2,5	-0,003
322,595	-12,5	-2,503
324,047	-11,5	-2,841
325,499	2,5	-0,003
326,95	-10	-2,25
328,39	-13	-3,048
329,842	2,5	-0,002
331,294	-9	-2,088
332,746	-15	-3,285
334,192	2,5	-0,001
335,638	-7,5	-1,858
337,078	-16	-3,377
338,524	2,5	0
339,982	-5,5	-1,704
341,434	-17,5	-3,427
342,88	2,5	-0,022
344,331	-4,5	-1,572
345,789	-18	-3,452
347,235	2,5	-0,224
348,681	-3,5	-1,423
350,127	-18,5	-3,471
351,579	1,5	-0,532
353,031	-2,5	-1,104
354,477	-19	-3,487
355,923	0	-0,604
357,369	-2	-1,041
358,827	-19	-3,492
360,279	-1,5	-0,82
470,414	-3,5	-1,538
471,86	1,5	-0,16
473,312	-18	-3,499
474,758	-4	-1,674
476,21	1,5	-0,114
477,65	-18,5	-3,499
479,102	-4,5	-1,707
480,554	2	-0,074
482	-18,5	-3,483
483,451	-5,5	-1,947
484,891	2	-0,047
486,349	-18	-3,141
487,795	-7	-2,22
489,247	2,5	-0,02
490,693	-15	-2,931
492,139	-8	-2,435
493,597	2,5	-0,008
495,049	-14	-2,73
496,495	-9,5	-2,604
497,947	3	-0,006
499,393	-12	-2,633
500,845	-10	-2,747
502,291	2,5	-0,004
503,736	-10	-2,428
505,182	-11,5	-2,948
506,634	3	-0,002
508,086	-9	-2,246
509,532	-13	-3,072
510,978	2,5	-0,002
512,424	-9	-2,243
513,87	-13,5	-3,135
515,316	3	-0,001
516,768	-7,5	-2,016
518,213	-14,5	-3,282
519,654	2,5	-0,001
521,105	-6,5	-1,96
522,551	-15	-3,33
523,997	2,5	-0,001
525,449	-5	-1,788
526,895	-15,5	-3,402
528,341	2,5	-0,014
529,793	-4	-1,567
531,251	-17	-3,452
532,697	3	-0,24
534,149	-3	-1,361
535,6	-17,5	-3,477
537,052	1,5	-0,448
538,492	-2,5	-1,259
539,938	-17,5	-3,479
541,39	1	-0,527
542,836	-2	-1,128
544,282	-18	-3,489
545,734	0	-0,774
547,18	-1	-0,897
548,632	-18	-3,494
550,084	-0,5	-0,897
551,524	-0,5	-0,73
552,97	-18	-3,496
554,421	-1,5	-1,072
555,867	0	-0,6
557,313	-18	-3,497
558,759	-2,5	-1,282
560,211	0,5	-0,321
561,657	-18	-3,499
563,109	-3	-1,552
564,561	1	-0,158
566,007	-18	-3,499
567,453	-3,5	-1,626
568,905	1,5	-0,117
570,351	-18	-3,5
571,802	-4	-1,822
573,248	2	-0,066
574,694	-17,5	-3,35
576,14	-4,5	-1,961
577,586	2,5	-0,039
579,038	-17,5	-3,129
580,484	-6	-2,24
581,936	2,5	-0,017
583,382	-16	-2,963
584,822	-6,5	-2,344
586,268	3	-0,014
587,72	-14,5	-2,802
589,166	-8,5	-2,558
590,611	3	-0,008
592,057	-13,5	-2,708
593,503	-8	-2,595
594,955	2,5	-0,006
596,401	-12,5	-2,604
597,847	-9,5	-2,714
599,305	2,5	-0,004
600,757	-10,5	-2,434
602,203	-10,5	-2,926
603,661	3	-0,002
605,107	-8,5	-2,233
606,552	-12	-3,132
607,998	3	-0,001
609,45	-7,5	-2,082
610,896	-13	-3,242
612,342	2,5	-0,001
613,788	-6	-1,903
723,882	-7	-2,098
725,334	-12	-3,176
726,786	3	-0,001
728,232	-6,5	-2,017
729,683	-13,5	-3,318
731,129	3	-0,001
732,575	-5	-1,888
734,021	-14,5	-3,372
735,479	3	0
736,925	-5	-1,839
738,371	-14,5	-3,378
739,817	3	-0,001
741,269	-5	-1,82
742,721	-15	-3,412
744,167	3	-0,002
745,625	-4	-1,641
747,07	-15,5	-3,438
748,522	3	-0,186
749,968	-3,5	-1,523
751,42	-16,5	-3,461
752,866	2,5	-0,325
754,312	-3	-1,35
755,764	-17	-3,475
757,21	2,5	-0,404
758,656	-2	-1,279
760,102	-17	-3,478
761,554	1	-0,506
762,999	-1,5	-1,138
764,445	-17	-3,488
765,891	0,5	-0,656
767,349	-1,5	-1,015
768,795	-17	-3,492
770,235	-1	-0,811
771,687	-0,5	-0,787
773,133	-17	-3,496
774,585	-1	-0,929
776,031	0	-0,748
777,477	-17	-3,496
778,935	-1,5	-1,072
780,381	0	-0,583
781,832	-17	-3,498
783,278	-2	-1,182
784,724	0	-0,454
786,17	-17	-3,498
787,616	-2	-1,228
789,062	0,5	-0,411
790,514	-17	-3,498
791,96	-2,5	-1,374
793,4	0,5	-0,36
794,852	-17	-3,499
796,304	-2,5	-1,429
797,756	1	-0,223
799,201	-17	-3,499
800,647	-2,5	-1,395
802,093	1	-0,284
803,539	-17	-3,499
804,991	-3	-1,407
806,437	1	-0,25
807,883	-17	-3,499
809,335	-3	-1,494
810,787	1	-0,179
812,233	-17	-3,499
813,685	-3	-1,617
815,131	1,5	-0,137
816,576	-17	-3,5
818,028	-3,5	-1,741
819,474	2	-0,104
820,92	-17	-3,5
822,36	-3,5	-1,732
823,806	1,5	-0,106
825,252	-17	-3,5
826,704	-3,5	-1,713
828,144	1,5	-0,134
829,59	-16,5	-3,5
831,036	-3	-1,618
832,488	1,5	-0,122
833,939	-17	-3,5
835,385	-3,5	-1,72
836,831	1,5	-0,107
838,283	-17	-3,5
839,729	-4	-1,721
841,181	1,5	-0,102
842,633	-17	-3,5
844,079	-3,5	-1,738
845,525	1,5	-0,112
846,977	-17	-3,5
848,423	-3,5	-1,767
849,869	2	-0,098
851,314	-17	-3,5
852,76	-4	-1,808
854,206	2	-0,076
855,658	-17	-3,476
857,11	-4,5	-1,858
858,556	2,5	-0,06
860,008	-16,5	-3,433
861,454	-4,5	-1,912
862,9	2,5	-0,064
864,346	-16,5	-3,456
865,799	-4,5	-1,967
867,244	2,5	-0,052
868,695	-16,5	-3,348
870,141	-4,5	-2,007
871,587	3	-0,036
873,033	-16,5	-3,279
874,479	-5	-2,08
875,925	2,5	-0,036
877,377	-16	-3,173
878,823	-5	-2,167
880,269	3	-0,031
881,715	-16,5	-3,17
883,161	-5	-2,146
884,607	3	-0,028
886,058	-15	-3,028
887,504	-6	-2,333
888,95	3	-0,018
890,396	-14	-2,938
891,842	-6,5	-2,422
893,288	3	-0,012
894,74	-13,5	-2,852
896,186	-6,5	-2,415
897,632	3	-0,01
899,078	-13,5	-2,889
900,524	-7	-2,508
901,97	3	-0,008
903,415	-12,5	-2,825
904,873	-7,5	-2,557
906,325	3	-0,006
907,771	-11,5	-2,71
909,217	-8	-2,665
910,657	3	-0,006
912,103	-12	-2,747
913,555	-7,5	-2,574
915,001	3	-0,007
916,447	-12	-2,783
917,893	-7	-2,515
919,345	3	-0,01
920,791	-12	-2,775
922,236	-7,5	-2,612
923,682	3	-0,007
925,134	-11,5	-2,708
926,58	-7,5	-2,577
928,026	3	-0,008
929,472	-11,5	-2,72
930,924	-8,5	-2,701
932,37	3	-0,004
933,822	-10,5	-2,529
935,268	-9	-2,807
936,714	3	-0,004
938,16	-9,5	-2,444
939,612	-10	-2,92
941,057	3	-0,003
942,503	-9	-2,469
943,955	-9,5	-2,879
945,395	3	-0,003
946,841	-10	-2,513
948,281	-8,5	-2,76
949,727	3	-0,004
951,173	-10	-2,512
952,619	-9	-2,827
954,071	3	-0,003
955,517	-9	-2,377
956,962	-10,5	-2,967
958,408	3	-0,002
959,854	-8,5	-2,346
961,3	-10	-2,982
962,752	3	-0,002
964,204	-7	-2,224
965,656	-11,5	-3,135
967,108	3	-0,001
968,554	-6,5	-2,138
970,003	-12	-3,235
971,452	3	-0,001
972,898	-7	-2,163
974,343	-12	-3,193
975,801	3	-0,001
1194,297	0	-0,644
1195,743	-16	-3,497
1197,189	-1,5	-1,059
1198,641	0	-0,668
1200,081	-16	-3,497
1201,526	-1,5	-1,105
1202,972	0	-0,588
1204,418	-16	-3,498
1205,864	-1,5	-1,211
1207,304	0	-0,549
1208,75	-16	-3,498
1210,202	-1,5	-1,262
1211,654	0	-0,438
1213,1	-16	-3,498
1214,546	-1,5	-1,206
1215,992	0	-0,502
1217,444	-16	-3,498
1218,889	-2	-1,192
1220,335	0	-0,553
1221,781	-16	-3,498
1223,227	-2	-1,138
1224,673	0	-0,602
1226,119	-16	-3,497
1227,565	-1,5	-1,131
1229,011	0	-0,62
1230,457	-16	-3,497
1231,903	-1,5	-1,077
1233,35	0	-0,664
1234,795	-16	-3,496
1236,24	-1	-1,018
1237,686	0	-0,713
1239,132	-16	-3,496
1240,578	-1	-1,038
1242,024	0	-0,628
1243,47	-16	-3,497
1244,916	-1,5	-1,058
1246,362	0	-0,608
1247,808	-16	-3,497
1249,26	-1,5	-1,061
1250,706	0	-0,638
1252,152	-16	-3,497
1253,597	-1	-0,963
1255,073	0	-0,616
1256,519	-16	-3,498
1257,965	-2	-1,207
1259,412	0	-0,538
1260,857	-16	-3,498
1262,309	-1,5	-1,13
1263,755	0	-0,557
1265,201	-16	-3,497
1266,647	-1,5	-1,092
1268,093	0	-0,596
1269,539	-16	-3,497
1270,984	-1,5	-1,102
1272,43	0	-0,606
1273,876	-16	-3,497
1275,322	-2	-1,153
1276,768	0	-0,502
1278,214	-16	-3,498
1279,66	-1,5	-1,168
1281,106	0	-0,545
1282,552	-16	-3,498
1283,992	-1,5	-1,142
1285,438	0	-0,55
1286,884	-15,5	-3,498
1288,335	-1,5	-1,144
1289,781	0	-0,527
1291,227	-16	-3,498
1292,673	-1,5	-1,234
1294,119	0	-0,479
1295,565	-15,5	-3,498
1297,011	-1,5	-1,185
1298,463	0,5	-0,43
1299,909	-15,5	-3,498
1301,355	-1,5	-1,251
1302,801	0,5	-0,409
1304,247	-16	-3,498
1305,692	-2	-1,372
1307,138	0,5	-0,27
1308,584	-16	-3,498
1310,03	-2	-1,335
1311,476	0,5	-0,358
1312,922	-15,5	-3,499
1314,368	-3	-1,657
1315,82	1,5	-0,117
1317,266	-15,5	-3,5
1318,712	-3	-1,718
1320,164	2	-0,088
1321,604	-15,5	-3,5
1323,049	-3,5	-1,802
1324,495	2	-0,07
1325,935	-15,5	-3,452
1327,387	-3,5	-1,912
1328,827	2,5	-0,06
1330,273	-15,5	-3,4
1331,713	-3,5	-1,915
1333,159	2,5	-0,048
1334,617	-15,5	-3,279
1336,057	-4	-1,987
1337,509	2,5	-0,04
1338,955	-15	-3,199
1340,401	-5	-2,143
1341,846	3	-0,022
1343,298	-13,5	-3,03
1344,744	-5,5	-2,295
1346,19	3	-0,017
1347,636	-14,5	-2,984
1349,082	-5,5	-2,32
1350,528	3	-0,014
1351,974	-13,5	-2,968
1353,42	-6	-2,382
1354,866	3	-0,011
1356,318	-12	-2,871
1357,764	-6	-2,496
1359,215	3	-0,007
1360,661	-10	-2,687
1362,107	-6,5	-2,599
1363,548	3	-0,008
1364,993	-11	-2,707
1366,433	-6	-2,544
1367,879	3	-0,007
1369,325	-10,5	-2,706
1370,783	-7,5	-2,687
1372,229	3	-0,005
1373,675	-9,5	-2,642
1375,121	-7	-2,623
1376,566	3	-0,005
1378,012	-10,5	-2,622
1379,458	-8	-2,717
1380,904	3	-0,004
1382,356	-9	-2,555
1383,802	-8,5	-2,8
1385,242	3	-0,004
1386,688	-9,5	-2,576
1388,134	-9	-2,837
1389,58	3	-0,003
1391,026	-6,5	-2,243
1392,472	-10,5	-3,202
1393,917	3	-0,001
1395,363	-4,5	-1,946
1396,809	-12	-3,342
1398,255	3	-0,001
1399,701	-4	-1,846
1401,147	-13	-3,38
1402,593	3	0
1404,039	-4	-1,837
1405,485	-13	-3,362
1406,931	3	0
1408,383	-3,5	-1,718
1409,829	-14	-3,409
1411,268	3	-0,003
1412,714	-3	-1,643
1414,16	-15	-3,435
1415,606	3	-0,025
1417,052	-3	-1,617
1418,504	-14,5	-3,438
1419,944	3	-0,004
1421,384	-3,5	-1,68
1422,83	-14	-3,416
1424,276	3	-0,102
1425,722	-2,5	-1,538
1427,168	-15	-3,448
1428,613	3	-0,174
1430,059	-2,5	-1,518
1431,505	-15	-3,455
1432,951	2,5	-0,268
1434,397	-2	-1,371
1435,843	-15	-3,482
1437,289	2	-0,496
1438,735	-1	-1,18
1440,181	-15	-3,481
1441,627	2	-0,437
1443,079	-1,5	-1,231
1444,519	-15	-3,478
1445,964	1,5	-0,425
1447,41	-1	-1,256
1448,856	-15	-3,479
1450,302	1	-0,509
1451,748	-1,5	-1,172
1453,194	-15	-3,485
1454,64	1	-0,535
1456,086	-1	-1,142
1457,532	-15	-3,485
1458,978	1	-0,523
1460,424	-1,5	-1,184
1461,87	-15	-3,482
1463,309	1	-0,481
1464,755	-1	-1,228
1466,201	-15	-3,481
1467,647	1,5	-0,523
1469,093	-1	-1,148
1470,539	-15,5	-3,484
1471,985	1	-0,585
1473,431	-0,5	-1,102
1474,877	-15	-3,488
1476,323	0	-0,68
1477,769	-0,5	-1,018
1479,221	-15	-3,49
1480,666	0	-0,693
1482,112	-0,5	-0,962
1483,558	-15	-3,493
1485,004	-0,5	-0,787
1486,45	0	-0,848
1487,896	-15,5	-3,494
1489,342	-0,5	-0,887
1490,788	0	-0,768
1492,234	-15,5	-3,496
1493,68	-1	-0,945
1495,126	0	-0,743
1496,572	-15	-3,495
1498,017	-1	-0,901
1499,469	0	-0,709
1500,915	-15	-3,496
1502,361	-1	-0,957
1503,807	0	-0,725
1505,253	-15	-3,496
1506,705	-1	-1,022
1508,151	0	-0,67
1509,597	-15	-3,497
1511,043	-1	-1,053
1512,489	0	-0,644
1513,935	-15,5	-3,496
1515,381	-0,5	-0,978
1516,826	0	-0,673
1518,272	-15,5	-3,496
1519,718	-0,5	-0,914
1521,164	0	-0,785
1522,61	-15,5	-3,495
1524,056	-1	-0,922
1525,502	0	-0,791
1526,954	-15,5	-3,496
1528,4	-0,5	-0,866
1529,846	0	-0,836
1531,292	-15	-3,494
1532,738	0	-0,801
1534,183	-0,5	-0,892
1535,635	-15	-3,494
1537,081	0	-0,777
1538,527	-0,5	-0,932
1539,973	-15	-3,491
1541,419	0	-0,728
1542,865	-0,5	-0,959
1544,311	-15	-3,491
1545,757	0	-0,721
1547,203	-1	-1,004
1548,649	-15	-3,489
1550,095	0,5	-0,625
1551,546	-1	-1,048
1552,992	-15	-3,49
1554,432	0,5	-0,635
1555,872	-1	-1,077
1557,318	-15	-3,489
1558,758	1,5	-0,556
1560,204	-1	-1,134
1561,656	-15	-3,487
1563,108	1	-0,557
1564,554	-1	-1,15
1566	-15	-3,486
1567,446	1,5	-0,519
1568,891	-1,5	-1,158
1570,337	-15	-3,486
1571,783	0,5	-0,587
1573,229	-1	-1,084
1574,675	-15	-3,486
1576,121	1,5	-0,506
1577,567	-1,5	-1,187
1579,013	-15	-3,479
1580,459	2	-0,515
1581,905	-1,5	-1,177
1583,351	-15	-3,482
1584,797	1,5	-0,461
1586,248	-1,5	-1,196
1587,694	-15	-3,479
1589,134	3	-0,305
1590,58	-2,5	-1,392
1592,026	-15	-3,479
1593,472	2	-0,442
1594,918	-2	-1,298
1596,364	-15	-3,474
1597,81	2,5	-0,355
1599,256	-2,5	-1,405
1600,702	-15	-3,467
1602,148	2,5	-0,354
1603,588	-2	-1,41
1605,033	-14,5	-3,462
1606,479	3	-0,18
1607,925	-2,5	-1,544
1609,371	-15	-3,453
1610,817	3	-0,096
1612,263	-2,5	-1,497
1613,709	-15	-3,46
1615,155	3	-0,238
1616,601	-2,5	-1,492
1618,047	-14,5	-3,453
1619,493	3	-0,071
1620,939	-3,5	-1,691
1622,39	-14	-3,44
1623,836	3	-0,004
1625,282	-3	-1,667
1626,728	-13,5	-3,412
1628,174	3	0
1629,626	-3,5	-1,702
1631,072	-13,5	-3,414
1632,518	3	0
1633,964	-4	-1,745
1635,416	-12,5	-3,413
1636,862	2,5	0
1638,307	-4,5	-1,849
1639,753	-12	-3,364
1641,199	3	0
1642,645	-4,5	-1,872
1644,091	-12,5	-3,37
1645,537	2,5	0
1646,989	-4,5	-1,844
1648,435	-12	-3,348
1649,881	3	-0,001
1651,327	-5	-1,978
1652,773	-11,5	-3,323
1654,219	3	-0,001
1655,664	-5	-1,979
1657,11	-11	-3,29
1658,556	2,5	-0,001
1660,002	-5	-2,017
1661,448	-11,5	-3,293
1662,894	3	-0,001
1664,34	-5	-2,034
1665,786	-11	-3,25
1667,232	3	-0,001
1668,678	-5,5	-2,115
1670,124	-10,5	-3,187
1671,57	3	-0,001
1673,015	-6	-2,084
1674,461	-11	-3,261
1675,907	3	-0,001
1677,353	-6	-2,133
1678,793	-9,5	-3,153
1680,245	3	-0,001
1681,697	-5	-2,008
1683,149	-11	-3,291
1684,595	3	-0,001
1686,041	-6	-2,17
1687,487	-10	-3,147
1688,939	3	-0,002
1690,379	-6	-2,225
1691,824	-9,5	-3,071
1693,27	3	-0,002
1694,716	-6	-2,248
1696,162	-9	-3,017
1697,608	3	-0,002
1699,054	-8,5	-2,541
1700,5	-8,5	-2,883
1701,946	3	-0,003
1703,392	-9	-2,505
1704,838	-8,5	-2,877
1706,284	3	-0,003
1707,73	-7,5	-2,309
1709,175	-9	-2,977
1710,621	3	-0,003
1712,067	-8	-2,412
1713,513	-7,5	-2,842
1714,959	3	-0,004
1716,399	-8,5	-2,518
1717,845	-7,5	-2,752
1719,291	3	-0,003
1720,731	-9	-2,527
1722,177	-8	-2,79
1723,623	3	-0,004
1725,069	-9,5	-2,565
1726,514	-7,5	-2,715
1727,96	3	-0,004
1729,406	-9,5	-2,62
1730,858	-7,5	-2,722
1732,304	3	-0,004
1733,75	-9,5	-2,559
1735,196	-7,5	-2,737
1736,642	3	-0,005
1738,088	-10	-2,624
1739,534	-7	-2,657
1740,98	3	-0,006
1742,426	-10,5	-2,694
1743,871	-7	-2,602
1745,317	3	-0,005
1746,763	-9,5	-2,608
1748,209	-6,5	-2,633
1749,655	3	-0,004
1751,101	-9	-2,601
1752,547	-7	-2,728
1753,993	3	-0,004
1755,433	-9,5	-2,654
1756,879	-6,5	-2,631
1758,325	3	-0,008
1759,771	-12	-2,82
1761,216	-5,5	-2,43
1762,662	3	-0,014
1764,108	-12	-2,836
1765,554	-5,5	-2,446
1767	3	-0,01
1768,446	-12,5	-2,907
1769,892	-5,5	-2,422
1771,332	3	-0,014
1772,778	-13,5	-3,034
1774,224	-4,5	-2,226
1775,67	3	-0,028
1777,116	-15	-3,306
1778,561	-3,5	-2,017
1780,013	2,5	-0,047
1781,459	-15	-3,426
1782,905	-3,5	-1,897
1784,351	2,5	-0,055
1785,797	-15	-3,44
1787,243	-3	-1,885
1788,683	2,5	-0,066
1790,129	-15	-3,452
1791,575	-3	-1,86
1793,021	2,5	-0,06
1794,467	-15	-3,244
1795,912	-4	-2,018
1797,352	2,5	-0,048
1798,798	-15	-3,388
1800,244	-3	-1,881
1801,69	2,5	-0,056
1803,136	-15	-3,407
1804,582	-3	-1,869
1806,028	2	-0,068
1807,468	-15	-3,371
1808,914	-3,5	-1,965
1810,36	2,5	-0,048
1811,806	-15	-3,396
1813,251	-3,5	-1,862
1814,703	2	-0,057
1816,143	-15	-3,499
1817,589	-3	-1,756
1819,035	1,5	-0,1
1820,481	-15	-3,5
1821,927	-2,5	-1,674
1823,379	1,5	-0,128
1824,825	-15	-3,499
1826,277	-2,5	-1,632
1827,723	1,5	-0,116
1829,163	-15	-3,5
1830,609	-3	-1,702
1832,054	2	-0,102
1833,5	-15	-3,499
1834,952	-3	-1,732
1836,398	1,5	-0,127
1837,844	-15	-3,499
1839,29	-2,5	-1,65
1840,736	1,5	-0,145
1842,182	-15	-3,499
1843,628	-2,5	-1,586
1845,074	1,5	-0,148
1846,52	-15	-3,499
1847,965	-2,5	-1,558
1849,411	1,5	-0,144
1850,851	-15	-3,499
1852,297	-2,5	-1,612
1853,743	1,5	-0,158
1855,189	-15	-3,499
1856,635	-2,5	-1,621
1858,081	1,5	-0,159
1859,521	-15	-3,499
1860,973	-2,5	-1,642
1862,413	1,5	-0,154
1863,865	-15	-3,499
1865,311	-2,5	-1,55
1866,756	1,5	-0,183
1868,202	-15	-3,499
1869,648	-2,5	-1,511
1871,088	1	-0,223
1872,54	-15	-3,499
1873,98	-2	-1,437
1875,426	1	-0,269
1876,872	-15	-3,499
1878,318	-2	-1,42
1879,764	1	-0,28
2025,789	3	-0,299
2027,235	-2	-1,455
2028,681	-14,5	-3,457
2030,127	3	-0,147
2031,579	-2,5	-1,512
2033,025	-13,5	-3,446
2034,471	3	-0,141
2035,917	-2,5	-1,566
2037,357	-14	-3,446
2038,803	3	-0,064
2040,249	-3	-1,661
2041,688	-13,5	-3,438
2043,134	3	-0,006
2044,586	-3	-1,615
2046,032	-13	-3,429
2047,478	3	0
2048,924	-3,5	-1,716
2050,376	-13,5	-3,422
2051,822	3	-0,009
2053,268	-3	-1,677
2054,72	-13	-3,417
2056,172	3	0
2057,612	-3,5	-1,744
2059,057	-12,5	-3,387
2060,503	3	-0,001
2061,943	-4	-1,876
2063,389	-11	-3,353
2064,835	3	-0,001
2066,281	-4	-1,793
2067,727	-12	-3,37
2069,173	3	-0,001
2070,619	-4	-1,841
2072,059	-11,5	-3,329
2073,505	3	-0,001
2074,957	-4,5	-1,906
2076,402	-11	-3,325
2077,848	3	-0,001
2079,288	-4,5	-1,916
2080,734	-11,5	-3,325
2082,18	3	-0,001
2083,632	-4,5	-1,961
2085,078	-11	-3,28
2086,524	3	-0,001
2087,97	-4	-1,936
2089,416	-11	-3,328
2090,862	3	-0,001
2092,308	-4,5	-1,98
2093,753	-10,5	-3,286
2095,199	3	-0,001
2096,645	-5	-2,018
2098,091	-11	-3,293
2099,543	3	-0,001
2100,989	-4	-1,931
2102,435	-11	-3,326
2103,881	3	-0,001
2105,327	-4,5	-1,927
2106,773	-12	-3,349
2108,219	3	-0,001
2109,665	-4	-1,859
2111,111	-11,5	-3,341
2112,556	3	-0,001
2114,002	-4,5	-1,987
2115,454	-11	-3,294
2116,9	3	-0,001
2118,352	-4,5	-2,035
2119,798	-10	-3,242
2121,238	3	-0,001
2122,684	-5,5	-2,104
2124,13	-10	-3,176
2125,576	3	-0,002
2127,022	-6	-2,216
2128,467	-9,5	-3,081
2129,913	3	-0,002
2131,365	-6	-2,172
2132,811	-9,5	-3,126
2134,257	3	-0,002
2135,703	-6	-2,268
2137,149	-8,5	-3,002
2138,601	3	-0,002
2140,041	-6,5	-2,303
2141,487	-9	-3,048
2142,933	3	-0,002
2144,379	-6,5	-2,308
2145,824	-8	-3,046
2147,27	3	-0,002
2148,716	-6	-2,298
2150,162	-8	-2,982
2151,608	3	-0,002
2153,054	-7,5	-2,41
2154,5	-7,5	-2,875
2155,94	3	-0,003
2157,386	-7	-2,437
2158,826	-7,5	-2,824
2160,272	3	-0,004
2161,718	-8,5	-2,543
2163,163	-6	-2,722
2164,609	3	-0,004
2166,055	-8,5	-2,538
2167,501	-6	-2,7
2168,941	3	-0,005
2170,387	-9	-2,624
2171,833	-6,5	-2,711
2173,279	3	-0,005
2174,725	-8,5	-2,587
2176,171	-6,5	-2,673
2177,611	3	-0,005
2179,063	-9	-2,561
2180,509	-6,5	-2,703
2181,954	3	-0,005
2183,406	-9	-2,624
2184,852	-6,5	-2,722
2186,298	3	-0,005
2187,744	-9	-2,688
2189,19	-6	-2,672
2190,642	3,5	-0,005
2192,088	-9,5	-2,696
2193,528	-5,5	-2,539
2194,974	3	-0,008
2196,42	-10,5	-2,711
2197,866	-5,5	-2,554
2199,311	3	-0,008
2200,763	-10	-2,767
2202,209	-6	-2,551
2203,655	3	-0,008
2205,101	-11	-2,774
2206,547	-5,5	-2,501
2207,987	3	-0,01
2209,439	-11	-2,813
2210,879	-5	-2,486
2212,325	3	-0,01
2213,771	-11,5	-2,908
2215,217	-4,5	-2,357
2216,662	3	-0,016
2218,108	-12	-2,973
2219,554	-4,5	-2,356
2221	3	-0,017
2222,452	-12,5	-2,98
2223,898	-4	-2,29
2225,344	3	-0,016
2226,79	-13	-3,046
2228,236	-4	-2,225
2229,682	3	-0,023
2231,134	-13,5	-3,086
2232,58	-4	-2,2
2234,025	3	-0,026
2235,477	-14,5	-3,159
2236,923	-4	-2,187
2238,369	3	-0,026
2239,815	-13,5	-3,069
2241,261	-4,5	-2,212
2242,701	3	-0,024
2244,147	-14	-3,144
2245,593	-4	-2,197
2247,051	3	-0,022
2248,497	-12,5	-2,962
2249,943	-4,5	-2,346
2251,388	3	-0,016
2252,834	-12,5	-2,973
2254,28	-5	-2,356
2255,726	3	-0,016
2257,172	-12	-2,948
2258,618	-4,5	-2,396
2260,064	3	-0,012
2261,504	-12,5	-3,006
2262,95	-4,5	-2,312
2264,396	3	-0,02
2265,842	-13,5	-3,098
2267,288	-4,5	-2,221
2268,734	3	-0,022
2270,181	-14	-3,142
2271,625	-4	-2,161
2273,071	3	-0,029
2274,511	-14,5	-3,19
2275,957	-3,5	-2,082
2277,403	3	-0,033
2278,849	-14,5	-3,311
2280,295	-3	-2,002
2281,741	3	-0,045
2283,193	-15	-3,293
2284,639	-3,5	-1,956
2286,084	2,5	-0,052
2287,53	-15	-3,467
2288,976	-3	-1,876
2290,428	2	-0,07
2291,868	-14,5	-3,415
2293,314	-3	-1,912
2294,76	2,5	-0,057
2296,206	-14,5	-3,378
2297,652	-3	-1,946
2299,104	2,5	-0,054
2300,544	-14,5	-3,475
2301,99	-3	-1,893
2303,435	2	-0,071
2304,881	-14,5	-3,5
2306,327	-3	-1,849
2307,767	2	-0,077
2309,207	-14,5	-3,5
2310,653	-2,5	-1,782
2312,099	2	-0,095
2313,545	-14,5	-3,5
2351,145	2	-0,072
2352,591	-15	-3,476
2354,037	-3	-1,827
2355,482	2	-0,071
2356,928	-15	-3,499
2358,374	-3	-1,842
2359,82	2	-0,071
2361,266	-14,5	-3,499
2362,712	-3	-1,857
2364,158	2	-0,078
2365,598	-15	-3,486
2367,05	-3	-1,889
2368,496	2,5	-0,066
2369,942	-14,5	-3,471
2371,388	-3	-1,818
2372,834	2	-0,093
2374,279	-15	-3,5
2375,725	-2,5	-1,774
2377,171	2	-0,085
2378,617	-14,5	-3,5
2380,063	-2,5	-1,747
2381,503	1,5	-0,126
2382,949	-15	-3,499
2384,395	-2,5	-1,652
2385,841	1,5	-0,159
2387,287	-14,5	-3,499
2388,733	-2,5	-1,581
2390,179	1,5	-0,171
2391,624	-15	-3,499
2393,076	-2	-1,568
2394,516	1,5	-0,213
2395,962	-15	-3,499
2397,408	-2	-1,516
2398,854	1	-0,248
2400,3	-15	-3,499
2401,746	-2	-1,44
2403,186	0,5	-0,28
2404,632	-14,5	-3,498
2406,072	-1,5	-1,326
2407,512	0,5	-0,386
2408,957	-15	-3,498
2410,403	-1,5	-1,273
2411,849	0,5	-0,394
2413,295	-15	-3,498
2414,741	-1,5	-1,187
2416,187	0	-0,554
2417,627	-15	-3,497
2419,085	-1,5	-1,166
2420,531	0	-0,572
2421,977	-14,5	-3,498
2423,423	-1	-1,172
2424,869	0	-0,542
2426,321	-14,5	-3,498
2427,766	-1,5	-1,158
2429,212	0	-0,554
2430,658	-15	-3,497
2432,116	-1,5	-1,212
2433,556	0	-0,51
2435,002	-15	-3,498
2436,448	-1,5	-1,101
2437,894	0	-0,597
2439,34	-14,5	-3,497
2440,786	-1	-1,042
2442,238	0	-0,638
2443,683	-15	-3,497
2445,123	-1	-0,961
2446,569	0	-0,738
2448,015	-15	-3,496
2449,461	-0,5	-0,927
2450,913	0	-0,773
2452,359	-15	-3,496
2453,805	-1	-0,972
2455,251	0	-0,764
2456,697	-14,5	-3,496
2458,149	-1	-1,012
2495,737	-14,5	-3,493
2497,182	0	-0,684
2498,634	-0,5	-0,958
2500,074	-14,5	-3,493
2501,52	0	-0,736
2502,966	0	-0,962
2504,412	-14,5	-3,492
2505,858	0	-0,698
2507,304	-0,5	-1,033
2508,75	-14,5	-3,491
2510,202	0	-0,73
2511,654	-0,5	-1,01
2513,094	-14,5	-3,489
2514,545	0	-0,729
2515,991	-1	-1,028
2517,437	-14,5	-3,49
2518,883	0	-0,691
2520,329	-0,5	-1,008
2521,775	-14,5	-3,492
2523,215	0	-0,782
2524,655	-0,5	-0,968
2526,101	-14,5	-3,492
2527,547	0	-0,703
2528,993	-1	-0,979
2530,445	-14,5	-3,492
2531,891	0,5	-0,657
2533,336	-0,5	-1,035
2534,788	-14,5	-3,493
2536,24	0	-0,806
2537,686	-0,5	-0,918
2539,126	-14,5	-3,492
2540,572	0	-0,733
2542,018	-0,5	-0,997
2543,464	-14,5	-3,488
2544,91	0,5	-0,641
2546,356	-1	-1,046
2547,802	-14,5	-3,49
2549,247	0,5	-0,666
2550,693	-0,5	-1,004
2552,133	-14,5	-3,488
2553,579	1,5	-0,609
2555,025	-0,5	-1,121
2556,471	-14,5	-3,486
2557,917	1,5	-0,597
2559,369	-0,5	-1,098
2560,815	-14	-3,485
2562,261	0,5	-0,578
2563,713	-1	-1,116
2565,153	-14	-3,482
2566,598	2	-0,465
2568,038	-1,5	-1,274
2569,484	-14	-3,472
2570,93	3	-0,305
2572,376	-1,5	-1,343
2573,822	-14	-3,469
2575,268	3	-0,261
2576,714	-2	-1,467
2578,154	-13,5	-3,447
2579,6	3	-0,047
2581,046	-3	-1,673
2582,492	-12,5	-3,42
2583,937	3	-0,026
2585,383	-3	-1,707
2586,829	-12	-3,397
2588,269	3	0
2589,715	-3,5	-1,779
2591,161	-12	-3,389
2592,607	2,5	-0,03
2594,053	-3	-1,668
2595,499	-13	-3,418
2596,945	3	-0,014
2598,391	-3	-1,618
2599,831	-12,5	-3,426
2601,276	3	0
2602,722	-3	-1,713
2784,824	-10,5	-2,835
2786,27	-5	-2,477
2787,716	3	-0,012
2789,156	-9,5	-2,803
2790,602	-5	-2,542
2792,048	3	-0,01
2793,493	-10	-2,878
2794,939	-4,5	-2,397
2796,385	3	-0,015
2797,831	-10,5	-2,932
2799,271	-4	-2,349
2800,717	3	-0,02
2802,163	-11,5	-2,989
2803,609	-4	-2,286
2805,055	3	-0,02
2806,501	-12	-3,029
2807,947	-4	-2,252
2809,393	3	-0,018
2810,833	-12	-3,07
2812,278	-3,5	-2,226
2813,724	3	-0,027
2815,17	-12	-3,077
2816,616	-3,5	-2,182
2818,062	3	-0,03
2819,502	-12,5	-3,151
2820,942	-3	-2,116
2822,388	3	-0,029
2823,834	-12,5	-3,21
2825,28	-3	-2,072
2826,726	3	-0,035
2828,172	-12,5	-3,284
2829,611	-3	-2,036
2831,057	3	-0,048
2832,497	-12,5	-3,436
2833,943	-2,5	-1,867
2835,389	2,5	-0,073
2836,835	-12,5	-3,498
2838,275	-2	-1,767
2839,721	2	-0,106
2841,167	-12,5	-3,5
2842,613	-2	-1,632
2844,053	1,5	-0,185
2845,493	-12,5	-3,499
2846,938	-1,5	-1,407
2848,384	1	-0,365
2849,824	-12,5	-3,498
2851,27	-1	-1,237
2852,716	0,5	-0,461
2854,156	-12,5	-3,498
2855,596	-0,5	-1,027
2929,32	3	-0,001
2930,766	-3	-2,046
2932,212	-8,5	-3,258
2933,657	3	-0,001
2935,109	-3,5	-2,076
2936,555	-8	-3,226
2938,001	3	-0,001
2939,447	-4	-2,134
2940,887	-7,5	-3,116
2942,339	3	-0,002
2943,779	-4,5	-2,261
2945,225	-6,5	-2,987
2946,671	3	-0,003
2948,117	-4,5	-2,375
2949,557	-6	-2,895
2951,002	3	-0,004
2952,448	-6,5	-2,581
2953,894	-5,5	-2,746
2955,346	3	-0,004
2956,792	-7,5	-2,616
2958,238	-5	-2,638
2959,684	3	-0,007
2961,124	-7,5	-2,738
2962,57	-4,5	-2,512
2964,01	3	-0,011
2965,456	-9	-2,955
2966,902	-4	-2,316
2968,347	3	-0,018
2969,787	-12	-3,174
2971,239	-3	-2,16
2972,679	2,5	-0,028
2974,125	-12	-3,201
2975,577	-3	-2,116
2977,023	3	-0,036
2978,463	-12,5	-3,346
2979,903	-2,5	-1,901
2981,349	2,5	-0,071
2982,795	-12,5	-3,5
2984,241	-2	-1,766
2985,687	2	-0,093
2987,132	-12	-3,499
2988,578	-2	-1,617
2990,024	1,5	-0,175
2991,464	-12,5	-3,499
2992,91	-1,5	-1,458
2994,356	1	-0,252
2995,802	-12,5	-3,499
2997,248	-1,5	-1,457
2998,694	1,5	-0,249
3000,14	-12,5	-3,499
3001,58	-1,5	-1,516
3003,026	1	-0,256
3004,471	-12,5	-3,499
3005,917	-1,5	-1,387
3007,363	1	-0,332
3008,809	-12,5	-3,498
3010,255	-1,5	-1,3
3011,695	1	-0,41
3013,141	-12,5	-3,498
3014,587	-1	-1,164
3016,033	0,5	-0,56
3017,479	-12,5	-3,497
3018,931	-0,5	-1,086
3020,377	0	-0,628
3021,828	-12	-3,497
3023,268	-0,5	-0,984
3024,714	0	-0,704
3026,16	-12,5	-3,496
3027,612	-0,5	-1,076
3029,058	0	-0,658
3030,504	-12	-3,496
3031,944	0	-0,832
3033,39	0	-0,966
3034,836	-12	-3,491
3036,282	0,5	-0,699
3037,728	-0,5	-1,009
3039,173	-12	-3,492
3040,613	0	-0,726
3042,059	0	-0,95
3043,505	-12	-3,493
3044,951	0	-0,773
3046,397	0	-0,978
3047,843	-12	-3,49
3049,283	0,5	-0,652
3050,735	0	-0,995
3052,175	-12	-3,489
3053,621	1,5	-0,581
3055,073	-0,5	-1,14
3056,518	-11,5	-3,484
3057,964	1	-0,618
3059,41	0	-1,067
3060,856	-11,5	-3,488
3062,302	2	-0,496
3063,748	-0,5	-1,227
3065,194	-11,5	-3,482
3066,64	3	-0,416
3068,086	-1	-1,404
3069,532	-11	-3,463
3070,972	3	-0,165
3072,418	-2	-1,615
3073,863	-10	-3,437
3075,309	3	-0,113
3076,755	-1,5	-1,644
3078,201	-10	-3,425
3079,647	3	-0,002
3081,093	-1,5	-1,666
3082,533	-10	-3,428
3083,979	3	-0,077
3085,425	-1,5	-1,59
3086,877	-10	-3,446
3088,323	3	-0,041
3089,775	-1,5	-1,623
3091,214	-10	-3,417
3092,66	3	0
3094,106	-2,5	-1,855
3095,552	-8,5	-3,35
3096,998	3	-0,001
3098,444	-3,5	-2,059
3099,89	-8	-3,286
3101,33	3	-0,001
3102,776	-3	-2
3104,222	-7,5	-3,261
3105,668	3	-0,002
3107,108	-4	-2,244
3108,553	-6	-3,042
3109,999	3	-0,002
3111,445	-4	-2,287
3112,891	-6	-3,01
3114,343	3	-0,002
3115,789	-4,5	-2,364
3117,241	-5,5	-2,947
3118,687	3	-0,003
3120,133	-5	-2,474
3121,573	-5	-2,852
3123,019	3	-0,004
3124,471	-5,5	-2,603
3125,916	-4,5	-2,716
3127,362	3	-0,005
3128,808	-6	-2,668
3130,26	-4,5	-2,675
3131,7	3	-0,006
3133,146	-6,5	-2,743
3134,598	-4	-2,637
3136,038	3	-0,006
3137,484	-6,5	-2,759
3138,93	-4	-2,585
3140,376	3	-0,008
3141,816	-7,5	-2,802
3143,261	-3,5	-2,441
3144,707	3	-0,014
3182,253	-1	-1,345
3183,699	0,5	-0,343
3185,145	-10,5	-3,498
3186,597	-1	-1,391
3188,043	0,5	-0,319
3189,489	-10,5	-3,498
3190,935	-1	-1,272
3192,381	0,5	-0,458
3193,827	-10,5	-3,498
3195,273	-0,5	-1,191
3196,718	0	-0,56
3198,164	-10,5	-3,498
3199,616	-1	-1,098
3201,056	0	-0,646
3202,502	-10,5	-3,497
3203,948	-0,5	-0,986
3205,394	0	-0,706
3206,846	-10,5	-3,496
3208,298	-0,5	-1,02
3209,738	0	-0,746
3211,178	-10,5	-3,496
3212,624	0	-0,867
3214,063	0	-0,876
3215,509	-10,5	-3,493
3216,955	0,5	-0,688
3218,395	0	-1,078
3219,841	-10	-3,486
3221,281	1	-0,526
3222,727	0	-1,236
3224,173	-9,5	-3,479
3225,619	2	-0,402
3227,059	-0,5	-1,378
3228,505	-9,5	-3,465
3229,951	3	-0,191
3231,396	-1	-1,523
3232,842	-9	-3,448
3234,288	3	-0,018
3235,728	-1,5	-1,704
3237,174	-8,5	-3,427
3238,62	2,5	0
3240,084	-1,5	-1,684
3241,53	-8,5	-3,422
3242,976	3	-0,012
3244,416	-1,5	-1,699
3245,862	-8,5	-3,405
3247,308	3	0
3248,753	-1,5	-1,785
3250,199	-8,5	-3,416
3251,645	3	0