File: ensaios_Ciclicos/_20perc/_1gap/entrada/_3.txt
Time (s)	Load (N)	Displacement (mm)
0	0,5	-0,046
2,27	-1	-0,634
4,664	-12	-1,817
7,087	-25,5	-3,245
9,499	-32	-3,497
11,905	-30	-3,045
14,295	-17	-1,914
16,705	-4,5	-0,661
19,129	2,5	-0,015
21,535	2,5	-0,114
23,89	-5	-1,171
26,247	-14,5	-2,234
28,561	-22,5	-3,064
30,972	-30,5	-3,493
33,306	-30,5	-3,5
35,706	-20,5	-2,313
38,057	-9,5	-1,364
40,319	-3,5	-0,708
42,749	3	-0,012
45,149	3	-0,174
47,867	-21,5	-3,077
50,207	-29,5	-3,477
52,499	-30	-3,498
54,785	-29,5	-3,366
57,185	-17	-2,149
59,56	-6	-1,088
61,93	1,5	-0,087
64,343	3	-0,001
66,646	2,5	-0,377
68,992	-6	-1,397
71,338	-14	-2,334
74,044	-29	-3,499
76,414	-23	-2,752
78,764	-12,5	-1,753
81,063	-5	-0,92
83,335	-0,5	-0,301
85,599	2,5	-0,049
87,927	3	-0,004
90,219	3	-0,001
92,528	-2	-0,912
94,763	-6	-1,354
97,112	-14	-2,38
99,794	-28,5	-3,499
102,14	-25,5	-2,963
104,438	-16	-2,19
106,7	-10,5	-1,552
108,974	-4,5	-1,01
111,313	1,5	-0,11
113,593	3,5	-0,018
115,897	3,5	-0,001
118,165	2,5	-0,395
120,481	-5,5	-1,31
122,743	-9,5	-1,94
125,13	-22	-3,229
127,8	-25	-2,894
130,074	-16,5	-2,21
132,354	-8,5	-1,493
134,628	-2	-0,687
136,944	3	-0,048
139,236	3,5	-0,003
141,552	2,5	-0,382
143,826	-3,5	-1,149
146,153	-10	-2,043
148,409	-15,5	-2,686
150,731	-26	-3,436
152,987	-27,5	-3,493
155,297	-27	-3,497
157,583	-22	-2,685
159,833	-15	-2,16
162,137	-6	-1,258
164,392	-1,5	-0,653
166,666	2	-0,098
168,94	3,5	-0,009
171,172	3,5	-0,001
173,452	2	-0,406
175,719	-4	-1,138
177,975	-7,5	-1,744
180,28	-14,5	-2,614
182,938	-27	-3,5
185,23	-20,5	-2,75
187,461	-16	-2,276
189,723	-9	-1,605
191,967	-3,5	-1,044
194,205	-1	-0,636
196,496	3	-0,061
198,746	3,5	-0,01
200,978	4	-0,002
203,253	3,5	-0,221
205,532	-3	-1,048
207,812	-8	-1,839
210,056	-12	-2,384
212,282	-16	-2,87
214,532	-23,5	-3,382
216,782	-26	-3,476
219,013	-26,5	-3,494
221,233	-26,5	-3,498
223,429	-26,5	-3,499
225,661	-26,5	-3,439
227,899	-23,5	-2,868
230,149	-16	-2,372
232,38	-11,5	-1,888
234,534	-10	-1,788
236,742	-6,5	-1,493
238,944	-3,5	-1,12
241,17	-0,5	-0,592
243,396	0,5	-0,238
245,58	1,5	-0,122
247,782	3,5	-0,045
249,984	3,5	-0,016
252,173	3,5	-0,008
254,435	4	-0,001
256,686	3,5	-0,322
258,929	0	-0,681
261,173	-4	-1,158
263,387	-5,5	-1,497
265,655	-9,5	-2,115
267,88	-12,5	-2,436
270,136	-17	-2,998
272,374	-22	-3,386
274,63	-25,5	-3,474
276,898	-25,5	-3,496
279,082	-25,5	-3,498
281,362	-26	-3,471
283,647	-19,5	-2,769
285,867	-17	-2,429
288,135	-10,5	-1,898
290,379	-5,5	-1,412
292,569	-4,5	-1,174
294,819	-1	-0,669
297,021	0	-0,318
299,211	1,5	-0,167
301,781	4	-0,147
304,046	-0,5	-0,799
306,23	-2,5	-1,033
308,366	-2,5	-1,058
310,544	-4,5	-1,3
312,71	-5	-1,588
314,888	-6	-1,772
317,078	-7,5	-2,017
319,273	-9	-2,185
321,464	-11,5	-2,447
323,671	-14,5	-2,817
325,873	-18	-3,184
328,063	-21	-3,348
330,301	-25	-3,474
332,533	-25	-3,493
334,741	-25	-3,495
336,931	-25	-3,497
339,102	-25	-3,498
341,334	-25	-3,499
343,506	-25	-3,5
345,666	-25	-3,498
347,886	-24	-3,056
350,1	-19	-2,678
352,284	-16,5	-2,475
354,516	-11,5	-2,049
356,693	-10,5	-1,861
358,896	-7,5	-1,628
361,079	-6	-1,452
363,641	4	-0,015
365,825	4	-0,008
368,021	4	-0,005
370,235	4	-0,002
372,37	4	-0,002
374,554	4	-0,001
376,72	4	-0,001
378,904	4	0
381,106	4	-0,208
383,254	3,5	-0,154
385,45	2	-0,52
387,634	0	-0,699
389,787	0,5	-0,703
391,941	0	-0,756
394,107	0	-0,793
396,675	-16	-2,952
398,841	-16,5	-3,053
400,989	-18	-3,145
403,149	-18	-3,247
405,309	-19	-3,34
407,456	-21	-3,358
409,616	-22	-3,406
411,824	-23,5	-3,455
414,008	-24	-3,479
416,21	-24,5	-3,493
418,37	-24,5	-3,495
420,524	-24,5	-3,497
422,696	-25	-3,498
424,849	-24,5	-3,498
427,003	-24,5	-3,498
429,169	-24,5	-3,499
431,323	-24,5	-3,499
433,459	-24,5	-3,499
435,631	-24,5	-3,5
437,803	-24,5	-3,462
439,957	-24,5	-3,394
442,098	-24,5	-3,286
444,276	-24	-3,206
446,45	-22,5	-3,064
448,614	-21,5	-2,949
450,774	-20	-2,853
452,904	-21	-2,872
455,094	-16,5	-2,521
457,266	-14	-2,333
459,467	-11,5	-2,126
461,609	-10,5	-2,028
463,769	-9,5	-1,929
465,947	-8,5	-1,715
468,1	-7,5	-1,643
470,249	-6,5	-1,63
472,397	-6	-1,504
474,542	-6	-1,506
476,68	-5,5	-1,418
478,876	-4	-1,193
481,018	-3,5	-1,152
483,161	-4	-1,214
485,32	-3	-1,105
487,474	-3	-1,138
489,658	-2	-0,863
491,794	-1,5	-0,807
493,96	-0,5	-0,618
496,119	-0,5	-0,568
498,255	-0,5	-0,643
500,397	-0,5	-0,645
502,557	0	-0,5
504,711	0	-0,443
506,847	0	-0,49
508,977	0	-0,527
511,123	0	-0,527
513,266	0	-0,503
515,384	0	-0,561
517,52	-0,5	-0,599
519,656	0	-0,499
521,792	0	-0,538
523,928	0	-0,523
526,058	0	-0,482
528,194	0	-0,548
530,329	-0,5	-0,628
532,459	-1	-0,702
534,631	0	-0,506
537,146	4	-0,002
539,293	4	-0,001
541,441	4	-0,001
543,595	4	-0,001
545,755	4	-0,001
547,896	4	-0,001
550,038	4	-0,001
552,186	4	0
554,328	4	-0,001
556,47	4	-0,001
558,606	4	-0,001
560,73	4	-0,001
562,872	4	-0,001
565,025	4	-0,001
567,173	4	-0,001
569,273	4	-0,002
571,421	4	-0,001
573,569	4	-0,001
576,107	-4,5	-1,559
578,279	-5	-1,675
580,403	-5	-1,618
582,557	-5	-1,639
584,716	-6	-1,823
586,84	-6	-1,804
588,994	-6	-1,878
591,13	-6	-1,902
593,302	-8	-2,118
595,414	-6,5	-1,941
597,549	-6,5	-1,929
599,667	-6	-1,832
601,797	-6	-1,928
603,915	-6	-1,85
606,081	-7	-1,977
608,217	-6,5	-1,939
610,377	-7,5	-2,08
612,525	-8	-2,128
614,644	-7,5	-2,062
616,802	-8,5	-2,188
618,938	-7,5	-2,151
621,038	-6,5	-1,932
623,204	-7,5	-2,067
625,34	-8	-2,123
627,488	-8	-2,151
629,612	-7	-2,063
631,736	-7	-2,002
633,859	-7	-1,952
636,001	-7	-1,981
638,125	-6,5	-1,958
640,273	-7,5	-2,113
642,409	-7,5	-2,128
644,557	-8,5	-2,198
646,681	-7,5	-2,17
648,823	-8,5	-2,257
650,935	-7,5	-2,198
653,076	-8	-2,155
655,218	-8	-2,173
657,378	-9,5	-2,357
659,508	-8,5	-2,278
661,668	-9,5	-2,403
663,786	-9	-2,355
665,928	-8,5	-2,347
668,052	-8	-2,323
670,176	-9	-2,252
672,281	-7	-2,063
674,399	-7	-1,984
676,535	-7	-1,988
678,677	-7	-2,007
680,813	-6,5	-2,048
682,937	-6,5	-1,928
685,09	-6,5	-2,013
687,22	-7,5	-2,104
689,356	-7,5	-2,072
691,48	-7,5	-2,049
693,604	-6	-1,964
695,704	-5,5	-1,758
697,84	-5,5	-1,737
699,946	-4,5	-1,586
702,46	-18,5	-3,367
704,595	-20	-3,364
706,719	-19,5	-3,334
708,831	-16,5	-3,203
710,949	-15	-3,053
713,091	-16	-3,066
715,227	-15,5	-3,104
717,327	-14	-2,907
719,433	-13	-2,713
721,544	-12	-2,62
723,674	-11,5	-2,588
725,768	-9,5	-2,399
727,88	-8,5	-2,231
730,004	-8,5	-2,238
732,104	-7	-2,068
734,204	-6	-1,867
736,34	-6	-1,903
738,458	-6	-1,822
740,569	-5	-1,622
742,693	-4,5	-1,535
744,811	-4	-1,427
746,923	-3	-1,233
749,059	-3	-1,158
751,171	-3	-1,048
753,289	-2,5	-0,962
755,401	-0,5	-0,788
757,513	0	-0,636
759,606	3	-0,397
761,718	3,5	-0,264
763,812	4	0
765,948	4	-0,002
768,066	4	0
770,184	4	-0,001
772,29	4	-0,002
774,395	4	-0,003
776,537	4	-0,002
778,649	4	-0,004
780,732	4	-0,012
782,849	4	-0,013
784,967	4	-0,019
787,097	4	-0,021
789,209	4	-0,036
791,333	3,5	-0,054
793,427	2	-0,129
795,55	1,5	-0,2
798,064	4	0
800,152	4	-0,001
802,27	4	-0,002
804,376	4	-0,003
806,482	4	-0,006
808,6	4	-0,009
810,699	4	-0,023
812,817	3,5	-0,035
814,917	3	-0,056
817,029	3	-0,079
819,147	2,5	-0,117
821,265	1,5	-0,195
823,365	0,5	-0,366
825,477	0	-0,477
827,588	0	-0,454
829,718	0	-0,405
831,824	0	-0,624
833,918	-1,5	-0,834
836,036	-2	-0,973
838,142	-3	-1,157
840,266	-3,5	-1,281
842,354	-5,5	-1,57
844,465	-5,5	-1,59
846,565	-7	-1,802
848,713	-7,5	-1,812
850,795	-10,5	-2,12
852,919	-12	-2,239
855,037	-13,5	-2,404
857,125	-16,5	-2,72
859,231	-19	-2,87
861,336	-21,5	-2,994
863,46	-22,5	-3,116
865,542	-22,5	-3,36
867,642	-22,5	-3,395
869,76	-22,5	-3,499
871,866	-22,5	-3,499
873,96	-23	-3,497
876,06	-22,5	-3,495
878,171	-22,5	-3,494
880,295	-22,5	-3,491
882,395	-22,5	-3,482
884,501	-22,5	-3,473
886,601	-21,5	-3,452
888,713	-20	-3,416
890,816	-18	-3,338
892,913	-16	-3,213
895,013	-14	-3,018
897,113	-13	-2,87
899,218	-10,5	-2,633
901,366	-10,5	-2,612
903,508	-10,5	-2,625
905,614	-8	-2,368
907,732	-7,5	-2,268
909,826	-6	-1,997
911,92	-5	-1,798
914,014	-3,5	-1,502
916,095	-2,5	-1,184
918,189	-1,5	-0,973
920,301	0	-0,778
922,389	2	-0,556
924,483	4	-0,274
926,577	4	-0,042
928,659	4,5	-0,001
930,752	4	-0,001
932,846	4	-0,002
934,94	4	-0,007
937,028	4	-0,016
939,14	4	-0,036
941,24	3,5	-0,065
943,34	2,5	-0,108
945,458	2	-0,16
947,57	0,5	-0,306
949,657	0	-0,541
951,751	-1	-0,838
953,827	-3	-1,208
955,957	-3	-1,227
958,051	-4,5	-1,474
960,157	-5	-1,614
962,264	-7	-1,862
964,375	-9	-1,972
966,48	-9	-2,053
968,598	-10	-2,187
970,686	-13,5	-2,449
972,786	-15,5	-2,656
974,886	-18,5	-2,884
976,968	-22,5	-3,211
979,092	-22,5	-3,285
981,168	-22,5	-3,499
983,274	-22,5	-3,499
985,355	-22,5	-3,498
987,455	-22,5	-3,496
989,591	-22,5	-3,495
991,685	-22,5	-3,491
993,773	-22	-3,477
995,855	-21	-3,438
997,943	-18,5	-3,355
1000,043	-15,5	-3,207
1002,136	-13,5	-2,949
1004,224	-11	-2,704
1006,324	-9	-2,458
1008,424	-7,5	-2,257
1010,53	-6	-2,062
1012,636	-5,5	-1,892
1014,73	-4,5	-1,712
1016,848	-4	-1,616
1018,959	-3,5	-1,431
1021,071	-3	-1,267
1023,165	-1,5	-1,036
1025,271	0	-0,827
1027,365	1	-0,702
1029,477	2	-0,521
1031,559	4	-0,269
1033,653	4	0
1035,771	4	-0,001
1037,864	4	-0,001
1039,947	4	-0,003
1042,064	4	-0,006
1044,152	4	-0,017
1046,252	4	-0,035
1048,358	3,5	-0,066
1050,44	2	-0,152
1052,522	0	-0,431
1054,615	-0,5	-0,705
1056,715	-1	-0,849
1058,815	-2	-1,104
1060,915	-3	-1,354
1063,009	-4,5	-1,603
1065,109	-6	-1,819
1067,209	-7,5	-1,985
1069,309	-9	-2,133
1071,396	-11,5	-2,326
1073,484	-15	-2,62
1075,596	-17	-2,827
1077,696	-20	-3,023
1080,174	-3,5	-1,334
1082,286	-4	-1,44
1084,386	-5,5	-1,62
1086,474	-6,5	-1,854
1088,567	-8,5	-2,088
1090,655	-11,5	-2,26
1092,767	-12	-2,403
1094,873	-13,5	-2,531
1096,973	-15	-2,713
1099,073	-18,5	-2,952
1101,167	-20,5	-3,121
1103,261	-22	-3,289
1105,361	-22	-3,492
1107,448	-22	-3,499
1109,542	-22	-3,499
1111,636	-22	-3,498
1113,718	-22	-3,495
1115,806	-22	-3,491
1117,894	-22	-3,478
1119,988	-21,5	-3,466
1122,088	-20	-3,429
1124,187	-20	-3,41
1126,269	-17	-3,283
1128,363	-15	-3,176
1130,457	-12,5	-2,913
1132,533	-10,5	-2,622
1134,639	-9	-2,483
1136,727	-7,5	-2,263
1138,827	-6	-2,057
1140,92	-5,5	-1,952
1143,008	-4,5	-1,652
1145,114	-4	-1,528
1147,214	-3	-1,358
1149,32	-3	-1,245
1151,426	-2	-1,099
1153,526	-1,5	-0,881
1155,602	1,5	-0,607
1157,684	3	-0,346
1159,777	4	-0,154
1161,871	4	0
1163,977	4	0
1166,077	4	-0,001
1168,153	4	-0,003
1170,253	4	-0,006
1172,353	4	-0,012
1174,441	4	-0,025
1176,516	3,5	-0,063
1178,622	3	-0,113
1180,74	2	-0,142
1182,84	1,5	-0,214
1184,922	0,5	-0,449
1187,01	0	-0,69
1189,116	-1	-0,836
1191,216	-1,5	-0,904
1193,309	-2	-1,115
1195,404	-3	-1,326
1197,503	-4	-1,512
1199,591	-5,5	-1,732
1201,691	-7	-1,913
1203,791	-8,5	-2,061
1205,867	-11	-2,341
1207,955	-13,5	-2,528
1210,055	-15	-2,693
1212,143	-20	-2,935
1214,248	-20	-3,011
1216,366	-21,5	-3,118
1218,454	-21,5	-3,364
1220,542	-21,5	-3,5
1222,648	-21,5	-3,499
1224,73	-21,5	-3,498
1226,812	-21,5	-3,497
1228,905	-21,5	-3,494
1231,011	-21,5	-3,493
1233,123	-21,5	-3,49
1235,217	-21	-3,483
1237,311	-21	-3,473
1239,411	-20,5	-3,456
1241,493	-19	-3,414
1243,587	-17	-3,33
1245,668	-15	-3,115
1247,768	-13	-2,933
1249,856	-10,5	-2,752
1251,968	-10	-2,604
1254,062	-8,5	-2,372
1256,15	-6,5	-2,158
1258,238	-6	-1,991
1260,338	-5	-1,853
1262,432	-4	-1,601
1264,525	-3,5	-1,379
1266,607	-2,5	-1,113
1268,701	-1,5	-0,913
1270,801	0	-0,743
1272,889	3,5	-0,427
1274,995	4	-0,202
1277,095	4	0
1279,189	4	-0,001
1281,264	4	-0,002
1283,358	4	-0,005
1285,446	4	-0,012
1287,534	3,5	-0,029
1289,634	3,5	-0,054
1291,746	3	-0,081
1293,834	1,5	-0,145
1295,91	0,5	-0,315
1298,003	0	-0,492
1300,091	-0,5	-0,735
1302,197	-1	-0,832
1304,291	-2	-1,002
1306,367	-2,5	-1,166
1308,467	-4	-1,413
1310,585	-4	-1,457
1312,691	-5	-1,554
1314,779	-6,5	-1,838
1316,879	-7,5	-1,959
1318,966	-10	-2,195
1321,042	-13	-2,464
1323,142	-15	-2,665
1325,23	-19,5	-2,949
1327,33	-21	-3,083
1329,424	-21,5	-3,306
1331,506	-21,5	-3,5
1333,599	-21,5	-3,499
1335,687	-21,5	-3,498
1337,793	-21,5	-3,496
1339,875	-21,5	-3,495
1341,975	-21,5	-3,491
1344,093	-21	-3,489
1346,199	-21	-3,484
1348,269	-20	-3,456
1350,362	-18,5	-3,413
1352,45	-16,5	-3,36
1354,544	-15	-3,246
1356,62	-12,5	-2,957
1358,702	-10,5	-2,745
1360,808	-9	-2,588
1362,896	-7,5	-2,369
1364,99	-6	-2,174
1367,114	-6	-2,112
1369,196	-4,5	-1,752
1371,301	-3	-1,538
1373,377	-2,5	-1,205
1375,477	-1,5	-1,014
1377,559	0,5	-0,732
1379,659	3	-0,465
1381,765	4	-0,319
1383,847	4	0
1385,941	4	-0,001
1388,034	4	-0,002
1390,122	4	-0,003
1392,222	4	-0,005
1394,304	4	-0,018
1396,398	3,5	-0,042
1398,486	3	-0,082
1400,586	1,5	-0,173
1402,674	0,5	-0,365
1404,755	0	-0,609
1406,843	-1	-0,854
1408,943	-2	-1,009
1411,025	-3	-1,294
1413,119	-4	-1,491
1415,201	-6	-1,778
1417,283	-7,5	-1,99
1419,365	-11	-2,325
1421,464	-14	-2,57
1423,57	-15,5	-2,779
1425,658	-19,5	-3,047
1427,74	-21	-3,325
1429,834	-21	-3,5
1431,916	-21	-3,499
1434,004	-21,5	-3,497
1436,08	-21	-3,493
1438,174	-21	-3,489
1440,255	-20,5	-3,476
1442,337	-19,5	-3,439
1444,425	-18	-3,381
1446,513	-15	-3,255
1448,631	-15	-3,21
1450,713	-12	-2,919
1452,813	-10,5	-2,77
1454,901	-8,5	-2,551
1456,988	-6,5	-2,246
1459,088	-6	-2,123
1461,176	-4,5	-1,835
1463,282	-4	-1,727
1465,358	-3	-1,448
1467,458	-2,5	-1,288
1469,558	-1,5	-1,117
1471,646	-1,5	-0,969
1473,733	0	-0,78
1475,833	1,5	-0,587
1477,915	4	-0,267
1480,015	4	-0,102
1482,115	4	-0,004
1484,191	4	-0,001
1486,273	4	-0,002
1488,373	4	-0,003
1490,455	4	-0,008
1492,554	4	-0,013
1494,642	4	-0,03
1496,736	3,5	-0,054
1498,812	2	-0,142
1500,912	1	-0,229
1503,012	0	-0,429
1505,094	-0,5	-0,714
1507,182	-1,5	-1,031
1509,269	-3	-1,26
1511,369	-3,5	-1,42
1513,463	-5	-1,695
1515,545	-7	-2,003
1517,645	-9	-2,194
1519,739	-12	-2,394
1521,827	-15	-2,72
1523,903	-18	-3,005
1526,002	-20	-3,14
1528,084	-21	-3,349
1530,178	-21	-3,5
1532,278	-21	-3,499
1534,372	-21	-3,499
1536,46	-21	-3,497
1538,574	-21	-3,496
1540,66	-21	-3,492
1542,73	-20,5	-3,479
1544,811	-19,5	-3,453
1546,905	-18	-3,39
1548,993	-15	-3,27
1551,081	-13,5	-3,027
1553,181	-10,5	-2,767
1555,281	-9,5	-2,617
1557,369	-7,5	-2,382
1559,469	-6	-2,143
1561,55	-4,5	-1,824
1563,65	-3,5	-1,628
1565,756	-3	-1,445
1567,844	-2,5	-1,194
1569,938	-1,5	-0,988
1572,014	0,5	-0,692
1574,108	3	-0,482
1576,184	4	-0,17
1578,295	4	0
1580,383	4	-0,001
1582,471	4	-0,002
1584,577	4	-0,004
1586,659	4	-0,01
1588,747	4	-0,02
1590,841	3,5	-0,042
1592,935	2,5	-0,097
1595,023	1,5	-0,277
1597,111	0	-0,492
1599,192	-0,5	-0,786
1601,274	-2	-1,127
1603,362	-3	-1,24
1605,468	-4	-1,498
1607,544	-5,5	-1,84
1609,638	-7,5	-2,062
1611,714	-12	-2,41
1613,807	-13,5	-2,6
1615,919	-14,5	-2,732
1617,989	-19	-3,031
1620,095	-20	-3,194
1622,207	-20,5	-3,31
1624,319	-21	-3,494
1626,401	-20,5	-3,499
1628,495	-20,5	-3,498
1630,582	-20,5	-3,496
1632,67	-20,5	-3,491
1634,752	-20	-3,479
1636,84	-20	-3,467
1638,94	-19,5	-3,446
1641,04	-18	-3,407
1643,122	-16	-3,311
1645,222	-14	-3,166
1647,298	-11	-2,838
1649,385	-9	-2,619
1651,467	-6,5	-2,322
1653,555	-5,5	-2,012
1655,637	-3,5	-1,629
1657,719	-3	-1,369
1659,807	-1,5	-1,059
1661,895	0	-0,764
1663,983	2,5	-0,518
1666,077	3,5	-0,311
1668,158	4	0
1670,252	4	-0,001
1672,322	4,5	-0,003
1674,41	4	-0,006
1676,498	4	-0,015
1678,598	4	-0,028
1680,686	3,5	-0,057
1682,78	2,5	-0,131
1684,849	0,5	-0,362
1686,949	0	-0,554
1689,031	-0,5	-0,914
1691,12	-1,5	-1,128
1693,201	-3	-1,436
1695,289	-5	-1,719
1697,365	-7	-2,015
1699,471	-8	-2,176
1701,558	-10,5	-2,395
1703,652	-12,5	-2,617
1705,728	-20	-2,96
1707,822	-20	-3,185
1709,898	-20,5	-3,5
1711,992	-20,5	-3,499
1714,08	-20,5	-3,498
1716,21	-20,5	-3,498
1718,298	-20,5	-3,497
1720,397	-20,5	-3,494
1722,473	-20,5	-3,484
1724,567	-20	-3,476
1726,649	-20	-3,457
1728,737	-17,5	-3,406
1730,825	-15	-3,258
1732,907	-12,5	-2,948
1734,988	-10,5	-2,7
1737,076	-8	-2,458
1739,146	-6	-2,059
1741,216	-4	-1,749
1743,322	-3,5	-1,54
1745,398	-2,5	-1,308
1747,486	-2	-1,015
1749,568	-0,5	-0,75
1751,662	1,5	-0,549
1753,731	3,5	-0,232
1755,819	4	0
1757,913	4	-0,001
1759,995	4	-0,002
1762,083	4	-0,004
1764,159	4	-0,012
1766,265	4	-0,023
1768,341	3	-0,061
1770,428	2,5	-0,118
1772,522	1	-0,209
1774,61	0	-0,421
1776,692	-0,5	-0,693
1778,78	-1,5	-0,964
1780,868	-2	-1,189
1782,95	-3,5	-1,471
1785,02	-5	-1,69
1787,108	-7,5	-2,027
1789,201	-12	-2,318
1791,277	-13,5	-2,608
1793,365	-15	-2,79
1795,453	-18	-2,961
1797,541	-20	-3,247
1799,629	-20	-3,492
1801,729	-20	-3,499
1803,823	-20	-3,499
1805,91	-20,5	-3,498
1807,998	-20	-3,495
1810,098	-20	-3,491
1812,168	-19,5	-3,468
1814,256	-19	-3,447
1816,326	-16	-3,351
1818,816	-20	-3,499
1820,892	-20	-3,498
1823,003	-20,5	-3,497
1825,079	-20,5	-3,492
1827,167	-20	-3,48
1829,255	-19	-3,455
1831,331	-17	-3,398
1833,431	-15	-3,312
1835,519	-12	-3,091
1837,607	-11	-2,898
1839,701	-10	-2,777
1841,776	-7,5	-2,509
1843,876	-6	-2,307
1845,946	-5	-1,96
1848,034	-3,5	-1,675
1850,116	-2,5	-1,369
1852,204	-1,5	-1,075
1854,28	0	-0,791
1856,356	3,5	-0,473
1858,432	4	-0,101
1860,525	4	-0,001
1862,637	4	-0,001
1864,719	4	-0,002
1866,795	4	-0,008
1868,889	4	-0,017
1870,971	3,5	-0,055
1873,059	2,5	-0,142
1875,129	0,5	-0,366
1877,21	-0,5	-0,688
1879,298	-0,5	-0,861
1881,398	-1,5	-1,089
1883,48	-2,5	-1,28
1885,574	-4	-1,508
1887,65	-5,5	-1,777
1889,75	-7	-1,958
1891,826	-9	-2,232
1893,907	-12	-2,481
1896,001	-13,5	-2,638
1898,083	-16,5	-2,926
1900,171	-20	-3,173
1902,247	-20	-3,483
1904,323	-20,5	-3,499
1906,405	-20	-3,497
1908,475	-20	-3,493
1910,563	-20	-3,483
1912,632	-18,5	-3,448
1914,708	-15,5	-3,34
1916,826	-14,5	-3,249
1918,926	-12	-3,038
1921,002	-10	-2,775
1923,084	-7,5	-2,482
1925,472	-18	-3,437
1927,548	-15	-3,317
1929,642	-12,5	-3,081
1931,712	-9,5	-2,741
1933,811	-8	-2,565
1935,893	-6	-2,298
1937,969	-5	-2,047
1940,069	-3,5	-1,769
1942,145	-2,5	-1,473
1944,245	-2	-1,224
1946,315	-0,5	-0,84
1948,39	3	-0,54
1950,46	4,5	-0,21
1952,542	4,5	-0,001
1954,63	4,5	-0,001
1956,706	4,5	-0,002
1958,782	4	-0,007
1960,87	4	-0,015
1962,946	4	-0,041
1965,033	3,5	-0,081
1967,109	1,5	-0,204
1969,209	0,5	-0,401
1971,285	0	-0,717
1973,361	-1	-1,028
1975,443	-2,5	-1,33
1977,513	-4	-1,662
1979,588	-7	-2,037
1981,676	-8,5	-2,267
1983,746	-13,5	-2,651
1985,816	-16	-2,948
1987,898	-19,5	-3,273
1989,974	-19,5	-3,5
1992,044	-19,5	-3,498
1994,132	-19,5	-3,496
1996,208	-19,5	-3,492
1998,283	-19	-3,478
2000,365	-18	-3,442
2002,435	-15,5	-3,342
2004,511	-12,5	-3,077
2006,599	-10,5	-2,868
2008,675	-7,5	-2,509
2010,757	-6	-2,238
2012,827	-4	-1,934
2014,897	-3,5	-1,647
2016,973	-2,5	-1,355
2019,054	-1,5	-1,101
2021,142	-0,5	-0,86
2023,243	1	-0,68
2025,318	3,5	-0,372
2027,4	4	-0,012
2029,476	4,5	-0,001
2031,552	4	-0,003
2033,621	4,5	-0,007
2035,703	4	-0,026
2037,773	3,5	-0,081
2039,861	1,5	-0,22
2041,961	1	-0,378
2044,037	0	-0,624
2046,107	-0,5	-0,977
2048,183	-2	-1,256
2050,258	-3,5	-1,562
2052,334	-5	-1,826
2054,422	-7	-2,072
2056,498	-9	-2,32
2058,598	-11	-2,533
2060,674	-15	-2,864
2062,744	-18,5	-3,122
2064,826	-19	-3,365
2066,908	-19,5	-3,499
2069,019	-19,5	-3,499
2071,089	-19,5	-3,498
2073,195	-19,5	-3,496
2075,271	-19,5	-3,488
2077,341	-19	-3,467
2079,447	-18	-3,447
2081,523	-15	-3,34
2083,623	-13	-3,197
2085,699	-10	-2,843
2087,774	-7,5	-2,559
2089,856	-6	-2,304
2091,944	-5	-2,037
2094,026	-4	-1,792
2096,096	-3	-1,51
2098,178	-2	-1,254
2100,278	-1,5	-1,073
2102,354	0	-0,715
2104,423	3	-0,405
2106,505	4	-0,036
2108,575	4	-0,001
2110,675	4	-0,001
2112,751	4	-0,003
2114,827	4	-0,008
2116,903	4	-0,02
2118,979	3,5	-0,057
2121,055	2,5	-0,12
2123,136	1,5	-0,27
2125,212	0	-0,62
2127,312	0	-0,8
2129,388	-0,5	-1,006
2131,476	-1,5	-1,226
2133,564	-2,5	-1,483
2135,64	-4,5	-1,724
2137,71	-6	-2,082
2139,785	-9	-2,362
2141,861	-11,5	-2,641
2143,931	-18	-3,046
2146,013	-19	-3,284
2148,089	-19	-3,5
2150,159	-19	-3,499
2152,241	-19	-3,497
2154,317	-19	-3,492
2156,386	-18,5	-3,475
2158,48	-18	-3,454
2196,842	-13,5	-3,393
2198,93	-14	-3,277
2201	-11	-2,968
2203,076	-8	-2,678
2205,152	-6	-2,403
2207,228	-5	-2,092
2209,304	-3,5	-1,818
2211,391	-3	-1,518
2213,461	-2	-1,221
2215,543	-1	-0,902
2217,619	1	-0,596
2219,689	4	-0,183
2221,777	4	0
2223,847	4	-0,001
2225,923	4,5	-0,003
2227,998	4	-0,012
2230,08	4	-0,024
2232,15	3,5	-0,068
2234,238	2	-0,179
2236,326	0,5	-0,393
2238,402	0	-0,71
2240,484	-0,5	-0,998
2242,566	-1,5	-1,235
2244,635	-2,5	-1,557
2246,741	-3,5	-1,717
2248,811	-5,5	-2,005
2250,881	-9	-2,363
2252,975	-10	-2,51
2255,045	-14,5	-2,824
2257,121	-18	-3,149
2259,203	-18	-3,483
2261,279	-18,5	-3,499
2263,348	-18	-3,497
2265,43	-18	-3,494
2267,518	-18	-3,488
2269,594	-17,5	-3,465
2271,676	-15,5	-3,4
2273,746	-12	-3,238
2275,84	-10	-2,978
2277,909	-7,5	-2,686
2279,98	-5,5	-2,354
2282,061	-4,5	-2,072
2284,131	-3	-1,71
2286,201	-2	-1,347
2288,313	-2	-1,269
2290,389	-0,5	-0,973
2292,465	1	-0,705
2294,547	3,5	-0,401
2296,616	4,5	-0,015
2298,686	4,5	-0,001
2300,762	4,5	-0,003
2302,833	4,5	-0,01
2304,908	4	-0,024
2306,984	3,5	-0,062
2309,09	3	-0,087
2311,166	1,5	-0,203
2313,253	1	-0,395
2315,341	0	-0,614
2317,411	0	-0,899
2319,499	-1	-1,159
2321,569	-2,5	-1,549
2323,639	-4,5	-1,842
2325,715	-6	-2,159
2327,803	-8,5	-2,347
2329,873	-11,5	-2,683
2331,954	-14,5	-2,906
2334,03	-17,5	-3,21
2336,106	-18	-3,447
2338,194	-18	-3,499
2340,264	-18	-3,498
2342,334	-18	-3,495
2344,416	-18	-3,492
2346,498	-17,5	-3,485
2348,567	-16,5	-3,452
2350,655	-15	-3,406
2352,725	-12,5	-3,295
2354,795	-10,5	-3,09
2356,877	-9	-2,872
2358,965	-7	-2,622
2361,041	-5,5	-2,395
2363,117	-4,5	-2,078
2365,193	-3,5	-1,804
2367,262	-2,5	-1,51
2369,344	-2	-1,325
2371,42	-1	-1,056
2373,496	0	-0,813
2375,572	3	-0,481
2377,648	4,5	-0,168
2379,718	4,5	-0,001
2381,8	4,5	-0,002
2383,875	4,5	-0,004
2385,945	4,5	-0,01
2388,027	4	-0,016
2390,103	3,5	-0,04
2392,173	3	-0,116
2394,255	1,5	-0,284
2396,325	0,5	-0,629
2398,395	0	-0,998
2400,471	-1	-1,282
2402,552	-2	-1,447
2404,622	-3,5	-1,729
2406,698	-5	-2,03
2408,78	-7,5	-2,344
2410,85	-10	-2,663
2412,92	-14,5	-2,969
2415,002	-16,5	-3,297
2417,102	-16	-3,499
2419,171	-16,5	-3,499
2421,254	-16,5	-3,497
2423,329	-16,5	-3,493
2425,399	-15,5	-3,481
2427,487	-15	-3,452
2429,563	-14	-3,389
2431,633	-10,5	-3,17
2433,709	-8	-2,848
2435,796	-6	-2,596
2437,884	-5,5	-2,403
2439,966	-4,5	-2,128
2442,048	-3	-1,904
2444,118	-2,5	-1,612
2446,194	-1,5	-1,288
2448,282	-1	-1,011
2450,352	1,5	-0,67
2452,428	3,5	-0,384
2454,503	4,5	-0,077
2456,573	4,5	-0,001
2458,667	4,5	-0,002
2460,737	4,5	-0,006
2462,813	4,5	-0,014
2464,895	4	-0,032
2466,971	3,5	-0,08
2469,041	2	-0,228
2471,116	0,5	-0,567
2473,198	0	-0,811
2475,274	-0,5	-1,101
2477,368	-1	-1,302
2479,438	-2,5	-1,643
2481,532	-3	-1,81
2483,62	-4	-2,056
2485,69	-6	-2,366
2487,76	-9	-2,729
2489,835	-14	-3,068
2491,905	-15	-3,483
2493,981	-15	-3,499
2496,087	-15	-3,498
2498,158	-15	-3,496
2500,233	-15	-3,491
2502,321	-14,5	-3,479
2504,391	-13,5	-3,447
2506,467	-12	-3,371
2508,548	-9	-3,162
2510,618	-6,5	-2,799
2512,694	-4,5	-2,472
2514,77	-3,5	-2,139
2516,858	-3	-1,902
2518,928	-2	-1,615
2521,004	-1	-1,218
2523,08	0	-0,944
2525,155	2,5	-0,59
2527,231	4,5	-0,243
2529,319	4,5	0
2531,401	4,5	-0,001
2533,471	4,5	-0,002
2535,559	4,5	-0,005
2537,641	4,5	-0,008
2539,741	4,5	-0,014
2541,816	4	-0,043
2543,886	3	-0,108
2545,962	1,5	-0,303
2548,05	1	-0,57
2550,126	0	-0,908
2552,226	0	-1,153
2554,302	-1	-1,512
2556,372	-2	-1,822
2558,441	-3,5	-2,184
2560,517	-4,5	-2,42
2562,599	-6,5	-2,634
2564,669	-10,5	-2,975
2566,739	-12,5	-3,376
2568,827	-13	-3,5
2570,903	-13	-3,498
2572,979	-12,5	-3,496
2575,067	-13	-3,492
2577,137	-12,5	-3,478
2579,206	-11	-3,424
2581,294	-10	-3,334
2583,364	-7	-3,036
2585,434	-5,5	-2,732
2587,51	-4	-2,479
2589,61	-3,5	-2,315
2591,686	-3	-2,008
2593,755	-2,5	-1,754
2595,849	-1,5	-1,483
2597,937	-1	-1,22
2600,013	0	-0,866
2602,089	2	-0,576
2604,165	4	-0,284
2606,253	4	-0,002
2608,323	4	-0,001
2610,398	4	-0,002
2612,474	4	-0,007
2614,556	4	-0,017
2616,626	3,5	-0,045
2618,696	3	-0,119
2620,796	2	-0,182
2622,884	1,5	-0,339
2624,972	1	-0,586
2627,048	0	-0,887
2629,124	0	-1,171
2631,205	-0,5	-1,416
2633,275	-1,5	-1,789
2635,345	-3	-2,124
2637,439	-4	-2,352
2639,515	-6	-2,637
2641,591	-7,5	-2,852
2643,661	-12	-3,126
2645,743	-12	-3,377
2647,812	-12	-3,499
2649,894	-12	-3,498
2651,982	-12	-3,497
2654,058	-12	-3,494
2656,134	-12	-3,486
2658,204	-11	-3,453
2660,28	-9,5	-3,373
2662,362	-7,5	-3,241
2664,431	-5,5	-2,858
2666,519	-4,5	-2,6
2668,589	-3	-2,269
2670,665	-2,5	-1,915
2672,753	-1,5	-1,595
2674,823	-1	-1,274
2676,893	0	-0,864
2678,975	1,5	-0,619
2681,05	4	-0,241
2683,126	4,5	-0,001
2685,202	4,5	-0,002
2687,284	4,5	-0,006
2689,354	4,5	-0,015
2691,43	4	-0,056
2693,518	3	-0,115
2695,588	1,5	-0,443
2697,694	1	-0,639
2699,775	0,5	-0,968
2701,857	0	-1,297
2703,927	-0,5	-1,698
2706,009	-2	-2,016
2708,079	-4	-2,368
2710,149	-5,5	-2,735
2712,237	-10	-2,999
2714,313	-11	-3,339
2716,382	-11	-3,499
2718,47	-11,5	-3,498
2720,546	-11,5	-3,495
2722,628	-11,5	-3,486
2724,704	-10,5	-3,466
2726,798	-9,5	-3,418
2728,874	-7	-3,206
2730,95	-5,5	-2,875
2733,037	-4,5	-2,644
2735,113	-3	-2,237
2737,189	-2	-1,845
2739,277	-1,5	-1,605
2741,353	-1	-1,298
2743,423	0	-0,985
2745,505	1	-0,74
2747,581	3,5	-0,461
2749,651	4,5	-0,113
2751,726	4,5	-0,001
2753,808	4,5	-0,002
2755,878	4,5	-0,005
2757,954	4	-0,012
2760,042	4	-0,026
2762,112	3	-0,08
2764,188	2	-0,185
2766,264	1,5	-0,472
2768,339	0,5	-0,795
2770,409	0	-1,115
2772,485	0	-1,518
2774,573	-1	-1,789
2776,649	-2	-2,059
2778,725	-3,5	-2,375
2780,807	-5	-2,641
2782,889	-7,5	-2,89
2784,965	-10,5	-3,176
2787,058	-10,5	-3,344
2789,134	-10,5	-3,499
2791,21	-10,5	-3,498
2793,28	-10,5	-3,495
2795,362	-10,5	-3,488
2797,438	-10	-3,475
2799,514	-9	-3,429
2801,59	-6,5	-3,288
2803,671	-5,5	-3,092
2805,741	-4,5	-2,826
2807,823	-4	-2,624
2809,893	-3	-2,389
2811,981	-2,5	-2,175
2814,069	-2	-1,95
2816,145	-1,5	-1,644
2818,215	-1	-1,387
2820,302	-0,5	-1,199
2822,378	0	-0,905
2824,454	1,5	-0,688
2826,536	3,5	-0,471
2828,606	4,5	-0,131
2830,682	4,5	-0,001
2832,758	4,5	-0,002
2834,84	4,5	-0,004
2836,91	4	-0,009
2838,985	4	-0,022
2841,085	4	-0,04
2843,161	3,5	-0,078
2845,237	2	-0,228
2847,325	1	-0,528
2849,431	0,5	-0,648
2851,507	0,5	-0,932
2853,589	0	-1,245
2855,665	0	-1,546
2857,74	-1	-1,858
2859,81	-2,5	-2,231
2861,898	-3,5	-2,487
2863,974	-6	-2,793
2866,044	-9,5	-3,119
2868,15	-10	-3,345
2870,22	-10	-3,499
2872,308	-10	-3,498
2874,396	-10	-3,496
2876,471	-10	-3,493
2878,553	-10	-3,484
2880,629	-9,5	-3,462
2882,699	-7,5	-3,377
2884,775	-5,5	-3,136
2886,857	-5	-2,934
2888,933	-3,5	-2,644
2891,02	-3	-2,424
2893,108	-2,5	-2,194
2895,178	-2	-1,868
2897,255	-1	-1,52
2899,324	-0,5	-1,264
2901,4	0	-0,985
2903,476	1	-0,678
2905,546	4	-0,384
2907,621	4,5	-0,002
2909,691	4,5	-0,001
2911,761	4	-0,003
2913,843	4	-0,007
2915,925	4	-0,016
2917,995	4	-0,037
2920,071	3	-0,083
2922,141	1,5	-0,243
2924,229	1	-0,486
2926,304	0,5	-0,759
2928,38	0	-1,044
2930,456	0	-1,275
2932,532	-0,5	-1,618
2934,608	-1,5	-1,967
2936,696	-2	-2,155
2938,766	-4,5	-2,609
2940,842	-7,5	-2,946
2942,917	-10	-3,228
2944,999	-10	-3,471
2947,075	-10	-3,499
2949,151	-10	-3,497
2951,227	-10	-3,493
2953,297	-10	-3,482
2955,367	-9	-3,451
2957,443	-7,5	-3,388
2959,525	-5,5	-3,211
2961,594	-4	-2,838
2963,67	-3	-2,548
2965,752	-2,5	-2,251
2967,828	-1,5	-2,014
2969,904	-1	-1,708
2971,974	-0,5	-1,313
2974,056	0	-0,995
2976,126	1,5	-0,675
2978,195	4	-0,336
2980,289	4	-0,115
2982,365	4,5	-0,001
2984,435	4,5	-0,002
2986,511	4	-0,011
2988,593	4	-0,036
2990,681	3	-0,092
2992,769	1,5	-0,228
2994,839	1	-0,565
2996,914	0,5	-0,952
2998,99	0	-1,284
3001,066	-0,5	-1,596
3003,142	-1	-1,929
3005,212	-2	-2,264
3007,336	-2,5	-2,251
3009,412	-4	-2,609
3011,482	-7	-2,914
3013,576	-9	-3,154
3015,651	-10	-3,456
3017,721	-10	-3,499
3019,791	-10	-3,498
3021,867	-10	-3,495
3023,937	-10	-3,488
3026,013	-9,5	-3,468
3028,083	-8	-3,411
3030,171	-6,5	-3,312
3032,247	-5	-2,978
3034,328	-4	-2,74
3036,404	-3	-2,449
3038,474	-2	-2,13
3040,544	-1,5	-1,793
3042,632	-1	-1,584
3044,708	-0,5	-1,315
3046,778	0	-0,973
3048,853	1	-0,636
3050,941	3,5	-0,384
3053,029	4	-0,071
3055,123	4	0
3057,199	4	-0,001
3059,275	4	-0,002
3061,345	4	-0,008
3063,433	4	-0,016
3065,508	4	-0,04
3067,578	2,5	-0,098
3069,654	2	-0,199
3071,73	1	-0,493
3073,806	0,5	-0,756
3075,882	0	-1,04
3077,964	0	-1,37
3080,04	-0,5	-1,608
3082,116	-1	-1,966
3084,197	-1,5	-2,147
3086,274	-3	-2,431
3088,355	-4,5	-2,675
3090,437	-7,5	-2,99
3092,519	-9	-3,299
3094,589	-9	-3,5
3096,671	-9,5	-3,499
3098,747	-9,5	-3,497
3100,817	-9	-3,494
3102,887	-9	-3,483
3104,98	-9	-3,471
3107,05	-8	-3,429
3109,126	-6	-3,321
3111,208	-5	-3,056
3113,278	-3,5	-2,789
3115,348	-2,5	-2,41
3117,436	-2	-2,174
3119,511	-1	-1,842
3121,587	-0,5	-1,499
3123,657	-0,5	-1,268
3125,739	0	-0,956
3127,809	1	-0,694
3129,885	3	-0,42
3131,961	4	-0,125
3134,043	4	-0,001
3136,118	4	-0,002
3138,2	4	-0,004
3140,276	4	-0,009
3142,358	4	-0,024
3144,428	3	-0,073
3146,516	2	-0,167
3148,598	1	-0,469
3150,668	0,5	-0,86
3152,744	0	-1,165
3154,819	0	-1,482
3156,901	-0,5	-1,764
3158,977	-1	-2,049
3161,047	-2,5	-2,389
3163,123	-4	-2,722
3165,199	-7	-3,077
3167,269	-9	-3,489
3169,345	-9	-3,499
3171,462	-9	-3,499
3173,538	-9	-3,498
3175,608	-9	-3,495
3177,696	-8,5	-3,49
3179,772	-8,5	-3,475
3181,848	-7,5	-3,436
3183,918	-6	-3,32
3186	-4,5	-3,098
3188,069	-3	-2,741
3190,145	-2	-2,461
3192,227	-1,5	-2,201
3194,315	-1	-1,95
3196,385	-0,5	-1,651
3198,455	-0,5	-1,293
3200,525	0	-1,138
3202,607	0	-0,851
3204,683	2	-0,545
3206,68	4	-0,001