File: ensaios_Ciclicos/_50perc/_4gap/entrada/_2.txt
Time (s)	Load (N)	Displacement (mm)
0	0	-0,03
2,188	0,5	-0,03
4,354	1	-0,076
6,675	-2,5	-1,046
8,841	-1,5	-0,961
11,001	-1,5	-0,91
13,167	-1,5	-0,975
15,327	-0,5	-0,822
17,493	-0,5	-0,823
19,665	-1,5	-0,955
21,831	-1	-0,906
23,99	0	-0,786
26,162	0	-0,663
28,335	0,5	-0,591
30,512	0,5	-0,621
32,678	0	-0,691
34,838	0	-0,725
37,016	0	-0,657
39,176	0	-0,67
41,353	1	-0,651
43,513	1,5	-0,567
45,673	2	-0,421
47,845	2	-0,419
50,005	2,5	-0,363
52,177	1,5	-0,366
54,343	2	-0,34
56,521	1,5	-0,476
58,686	1,5	-0,502
60,852	0,5	-0,599
63,03	1	-0,66
65,222	0	-0,785
67,38	0	-0,862
69,552	-1	-0,977
71,724	-0,5	-1,013
73,896	-1	-1,06
76,079	-2	-1,234
78,245	-2,5	-1,315
80,413	-2	-1,311
82,589	-2,5	-1,366
84,755	-3	-1,408
86,927	-3	-1,492
89,111	-4	-1,668
91,283	-4,5	-1,713
93,442	-4	-1,694
95,608	-4	-1,737
97,774	-5	-1,796
99,952	-5,5	-1,963
102,142	-6,5	-2,169
104,332	-7,5	-2,374
106,504	-7,5	-2,389
108,676	-8,5	-2,482
110,853	-9	-2,575
113,025	-9	-2,658
115,197	-9,5	-2,64
117,369	-9,5	-2,65
119,543	-10	-2,76
121,713	-10,5	-2,796
123,891	-10,5	-2,824
126,068	-11	-2,852
128,246	-10,5	-2,95
130,412	-11,5	-3,009
132,584	-11,5	-3,03
134,768	-12,5	-3,13
136,958	-13	-3,236
139,142	-13,5	-3,314
141,32	-14,5	-3,368
143,498	-14,5	-3,386
145,675	-15	-3,407
147,859	-15,5	-3,44
150,031	-16	-3,456
152,207	-16	-3,462
154,387	-16	-3,474
156,553	-16,5	-3,474
158,732	-16,5	-3,482
160,909	-16,5	-3,484
163,08	-16,5	-3,489
165,258	-16,5	-3,492
167,436	-16,5	-3,494
169,608	-16,5	-3,495
171,78	-16,5	-3,496
173,964	-16,5	-3,497
176,136	-16,5	-3,498
178,314	-16,5	-3,498
180,491	-16,5	-3,498
182,681	-16,5	-3,498
184,847	-16,5	-3,498
187,025	-16	-3,499
189,209	-16	-3,499
191,381	-16	-3,499
193,559	-16	-3,499
195,731	-16	-3,499
197,914	-16	-3,499
200,098	-16	-3,499
202,276	-16	-3,499
204,454	-16	-3,5
206,638	-16	-3,462
208,822	-16	-3,365
210,994	-15,5	-3,269
213,166	-15,5	-3,205
215,343	-15	-3,122
217,527	-14,5	-2,994
219,693	-15	-3,069
221,871	-15	-3,008
224,049	-14,5	-2,979
226,233	-13	-2,809
228,405	-12,5	-2,788
230,583	-12,5	-2,793
232,766	-12	-2,723
234,944	-11,5	-2,658
237,104	-12	-2,693
239,288	-12	-2,682
241,472	-10,5	-2,517
243,644	-10	-2,492
245,828	-10,5	-2,534
248,018	-10	-2,409
250,195	-10	-2,418
252,367	-9,5	-2,382
254,545	-9,5	-2,375
256,729	-9	-2,317
258,907	-8,5	-2,277
261,079	-9	-2,299
263,257	-8,5	-2,202
265,435	-8	-2,163
267,624	-7,5	-2,133
269,802	-6,5	-1,988
271,986	-6	-1,924
274,164	-6	-1,968
276,348	-6	-1,9
278,52	-5,5	-1,859
280,71	-5	-1,734
282,888	-5	-1,754
285,066	-5	-1,768
287,237	-5,5	-1,753
289,415	-5	-1,768
291,599	-4,5	-1,729
293,783	-4	-1,613
295,961	-3	-1,489
298,139	-3	-1,408
300,317	-3	-1,309
302,5	-2	-1,219
304,678	-1,5	-1,153
306,856	-1,5	-1,072
309,04	-1	-1,044
311,212	-1	-0,968
313,384	0	-0,835
315,562	0	-0,765
317,758	0,5	-0,562
319,941	1,5	-0,396
322,113	1,5	-0,313
324,291	2	-0,181
326,469	2,5	-0,161
328,653	3	-0,098
330,831	3,5	-0,067
333,003	4	-0,044
335,181	4	-0,035
337,353	4	-0,026
339,524	4	-0,016
341,702	4	-0,009
343,886	4	-0,005
346,064	4	-0,004
348,242	4	-0,004
350,414	4	-0,003
352,598	4	-0,002
354,775	4	-0,002
356,959	4	-0,001
359,131	4	-0,001
361,309	4	-0,001
363,493	4	0
365,671	4,5	0
367,861	4	-0,198
370,045	3,5	-0,34
372,223	3	-0,481
374,4	2,5	-0,631
376,572	2	-0,726
378,744	2,5	-0,656
380,928	2,5	-0,624
383,106	2,5	-0,582
385,284	1,5	-0,735
387,456	1,5	-0,7
389,639	1	-0,866
391,811	1,5	-0,864
393,989	1,5	-0,864
396,161	1	-0,859
398,333	0,5	-0,88
400,517	0,5	-1,027
402,683	0	-1,012
404,861	0	-1,12
407,02	0	-1,139
409,204	-0,5	-1,25
411,376	-0,5	-1,27
413,554	-1	-1,346
415,726	-1,5	-1,46
417,904	-2,5	-1,637
420,082	-3	-1,722
422,254	-3	-1,807
424,443	-4	-1,968
426,609	-4,5	-2,032
428,793	-6	-2,324
430,965	-6	-2,392
433,143	-6,5	-2,473
435,315	-7,5	-2,606
437,493	-8	-2,671
439,676	-9	-2,84
441,854	-10	-3,002
444,032	-10,5	-3,094
446,204	-10,5	-3,151
448,382	-10,5	-3,21
450,56	-10,5	-3,184
452,738	-11,5	-3,255
454,922	-12	-3,309
457,094	-13	-3,371
459,265	-13	-3,402
461,449	-14	-3,425
463,621	-13,5	-3,422
465,793	-14	-3,419
467,965	-13,5	-3,413
470,137	-14	-3,436
472,303	-13,5	-3,426
474,475	-14,5	-3,45
476,658	-15	-3,468
478,824	-14,5	-3,465
480,996	-15	-3,478
483,174	-15	-3,482
485,358	-15	-3,487
487,536	-15	-3,492
489,702	-15	-3,491
491,886	-15	-3,495
494,058	-15	-3,496
496,247	-14,5	-3,498
498,419	-15	-3,498
500,597	-15	-3,499
502,775	-15	-3,499
504,953	-15	-3,5
507,119	-14,5	-3,5
509,303	-14,5	-3,389
511,474	-15	-3,301
513,67	-14	-3,089
515,842	-14,5	-3,105
518,014	-13,5	-3,011
520,198	-13	-2,926
522,376	-12	-2,855
524,548	-11	-2,758
526,732	-10,5	-2,664
528,903	-9,5	-2,587
531,075	-9	-2,375
533,253	-7,5	-2,172
535,437	-6	-2,076
537,609	-6	-2,035
539,787	-5	-1,928
541,965	-5	-1,867
544,131	-5	-1,819
546,314	-4,5	-1,707
548,492	-4	-1,646
550,67	-3	-1,489
552,842	-2	-1,338
555,026	-1,5	-1,162
557,198	-0,5	-1,046
559,382	0	-0,877
561,554	0	-0,777
563,731	0,5	-0,653
565,921	1,5	-0,495
568,093	1,5	-0,428
570,277	1,5	-0,327
572,449	2,5	-0,272
574,633	3,5	-0,135
576,811	4	-0,097
578,995	4	-0,059
581,172	4,5	-0,04
583,35	4,5	-0,029
585,534	4,5	-0,022
587,706	4,5	-0,014
589,89	4,5	-0,008
592,074	4,5	-0,005
594,234	4,5	-0,005
596,406	4,5	-0,003
598,578	4,5	-0,002
600,743	4,5	-0,002
602,915	4,5	-0,001
605,099	4,5	-0,001
607,271	4,5	0
609,443	4,5	-0,113
611,615	4,5	-0,197
613,793	4	-0,347
615,964	4	-0,394
618,142	4	-0,491
620,314	4	-0,56
622,486	3	-0,686
624,658	3	-0,712
626,83	2	-0,863
629,002	1,5	-0,936
631,174	1	-0,967
633,346	0,5	-1,082
635,511	0,5	-1,11
637,683	0	-1,192
639,867	0	-1,283
642,039	-1	-1,495
644,205	-1	-1,5
646,383	-1,5	-1,587
648,555	-2	-1,734
650,727	-2	-1,701
652,898	-2,5	-1,753
655,076	-3	-1,887
657,254	-3	-1,996
659,426	-3,5	-2,041
661,604	-4	-2,129
663,776	-4	-2,159
665,948	-4,5	-2,264
668,126	-5	-2,362
670,291	-5	-2,421
672,463	-6	-2,51
674,635	-6	-2,551
676,813	-6,5	-2,67
678,985	-7,5	-2,785
681,163	-7,5	-2,851
683,329	-8	-2,888
685,501	-8	-2,918
687,672	-8	-2,944
689,856	-9,5	-3,082
692,034	-9,5	-3,094
694,206	-9,5	-3,114
696,378	-10	-3,17
698,55	-9,5	-3,21
700,722	-10,5	-3,251
702,894	-11	-3,285
705,071	-10,5	-3,319
707,243	-11,5	-3,369
709,415	-12	-3,386
711,587	-12	-3,4
713,765	-12,5	-3,422
715,937	-13	-3,43
718,109	-12,5	-3,436
720,281	-13	-3,443
722,453	-13	-3,443
724,63	-13,5	-3,458
726,796	-13,5	-3,46
728,98	-14	-3,482
731,146	-13,5	-3,482
733,318	-14	-3,488
735,484	-14	-3,487
737,656	-14	-3,491
739,833	-14	-3,494
742,023	-14	-3,495
744,195	-13,5	-3,496
746,367	-14	-3,497
748,539	-14	-3,498
750,711	-13,5	-3,498
752,889	-14	-3,498
755,061	-14	-3,498
757,233	-13,5	-3,499
759,41	-13,5	-3,499
761,582	-13,5	-3,499
763,76	-13,5	-3,499
765,932	-13,5	-3,5
768,104	-13,5	-3,5
770,276	-13,5	-3,421
772,448	-13,5	-3,315
774,619	-13,5	-3,222
776,791	-13	-3,147
778,963	-13	-3,078
781,135	-12	-3,011
783,307	-10,5	-2,911
785,473	-11	-2,895
787,639	-10,5	-2,842
789,811	-10,5	-2,838
791,988	-9,5	-2,766
794,16	-9,5	-2,673
796,338	-9,5	-2,601
798,504	-9	-2,58
800,694	-7,5	-2,406
802,866	-6	-2,302
805,038	-6,5	-2,261
807,204	-6,5	-2,213
809,381	-5,5	-2,084
811,553	-5	-2,063
813,737	-4,5	-1,963
815,915	-4	-1,811
818,087	-3	-1,706
820,253	-3	-1,626
822,425	-2	-1,528
824,597	-1,5	-1,394
826,762	-1,5	-1,337
828,934	-1,5	-1,349
831,106	-1	-1,292
833,29	-1	-1,297
835,462	-1	-1,245
837,628	-0,5	-1,213
839,806	0	-1,132
841,972	0	-1,052
844,149	0	-0,954
846,333	0	-0,832
848,505	0,5	-0,822
850,671	0,5	-0,833
852,855	1	-0,668
855,027	1,5	-0,605
857,199	1	-0,602
859,371	2	-0,498
861,548	2	-0,448
863,714	1,5	-0,4
865,898	2	-0,335
868,07	3	-0,262
870,242	3	-0,296
872,426	3,5	-0,204
874,598	3,5	-0,166
876,77	3,5	-0,134
878,941	4	-0,126
881,131	4	-0,081
883,297	4	-0,08
885,475	4,5	-0,07
887,653	4,5	-0,062
889,825	4,5	-0,066
892,003	4,5	-0,052
894,175	4,5	-0,04
896,346	4,5	-0,024
898,518	4,5	-0,024
900,69	5	-0,017
902,862	5	-0,01
905,034	5	-0,011
907,206	5	-0,009
909,372	5	-0,007
911,544	5	-0,007
913,727	4,5	-0,004
915,899	5	-0,003
918,071	5	-0,003
920,249	4,5	-0,001
922,415	4,5	-0,001
924,587	5	-0,001
926,759	5	-0,001
928,937	5	-0,022
931,108	5	-0,07
933,286	4,5	-0,19
935,464	4,5	-0,394
937,636	4	-0,542
939,814	3	-0,74
941,986	1,5	-0,936
944,164	0,5	-1,038
946,336	1	-1,052
948,513	0,5	-1,108
950,679	0	-1,172
952,851	0	-1,245
955,023	0	-1,28
957,195	-0,5	-1,466
959,361	-1	-1,514
961,533	-1	-1,56
963,711	-1	-1,656
965,883	-2	-1,79
968,054	-2	-1,813
970,238	-3	-1,924
972,416	-3	-1,992
974,588	-3	-2,096
976,76	-4,5	-2,254
978,938	-4,5	-2,32
981,11	-4,5	-2,376
983,282	-5	-2,428
985,453	-5	-2,447
987,625	-5,5	-2,483
989,803	-5,5	-2,565
991,969	-5,5	-2,522
994,135	-6	-2,555
996,307	-6	-2,639
998,479	-6	-2,659
1000,65	-6	-2,78
1002,822	-7	-2,89
1005	-7,5	-2,976
1007,172	-8	-3,103
1009,338	-9	-3,182
1011,51	-9	-3,208
1013,676	-10	-3,299
1015,866	-11	-3,405
1018,037	-12	-3,432
1020,203	-11,5	-3,435
1022,381	-12	-3,439
1024,559	-12	-3,453
1026,725	-12,5	-3,463
1028,897	-12,5	-3,476
1031,075	-13	-3,487
1033,241	-13	-3,49
1035,413	-13	-3,491
1037,585	-13	-3,492
1039,75	-13	-3,492
1041,922	-13	-3,494
1044,094	-13	-3,495
1046,26	-13	-3,496
1048,438	-13	-3,496
1050,604	-13	-3,498
1052,782	-13	-3,498
1054,953	-13	-3,498
1057,125	-12,5	-3,499
1059,291	-12,5	-3,499
1061,463	-12,5	-3,499
1063,641	-13	-3,499
1065,807	-12,5	-3,5
1067,979	-13	-3,349
1070,163	-12,5	-3,211
1072,328	-12,5	-3,237
1074,5	-12,5	-3,185
1076,672	-12	-3,079
1078,844	-12	-3,048
1081,016	-11	-2,98
1083,182	-11	-2,921
1085,36	-10	-2,834
1087,556	-9	-2,72
1089,721	-9,5	-2,694
1091,899	-9	-2,649
1094,071	-8,5	-2,635
1096,249	-8	-2,553
1098,421	-8	-2,481
1100,593	-7	-2,403
1102,759	-6,5	-2,349
1104,937	-6	-2,289
1107,108	-5	-2,135
1109,268	-4,5	-2,102
1111,446	-4	-1,988
1113,612	-4	-1,903
1115,784	-3,5	-1,765
1117,956	-3	-1,729
1120,134	-3	-1,744
1122,306	-3	-1,778
1124,483	-3	-1,69
1126,649	-2,5	-1,627
1128,821	-2,5	-1,575
1130,993	-2	-1,513
1133,165	-1	-1,354
1135,349	-0,5	-1,211
1137,527	0	-1,091
1139,693	0	-1,144
1141,865	0	-1,072
1144,048	0,5	-0,881
1146,214	0,5	-0,805
1148,386	1	-0,712
1150,552	1	-0,723
1152,73	2	-0,464
1154,902	2,5	-0,365
1157,068	2,5	-0,338
1159,24	3	-0,186
1161,411	3,5	-0,175
1163,583	4	-0,132
1165,761	4	-0,096
1167,933	4,5	-0,052
1170,105	5	-0,032
1172,277	5	-0,027
1174,449	5	-0,018
1176,62	5	-0,012
1178,786	5	-0,008
1180,952	5	-0,008
1183,124	5	-0,009
1185,29	5	-0,008
1187,474	5	-0,006
1189,64	5	-0,006
1191,812	5	-0,003
1193,977	5	-0,002
1196,161	5	-0,001
1198,333	5	-0,001
1200,499	5	-0,001
1202,671	5	-0,001
1204,849	5	-0,001
1207,021	5	-0,001
1209,193	5	-0,001
1211,358	5	0
1213,524	5	0
1215,69	5	-0,004
1217,868	5	-0,002
1220,046	5	-0,006
1222,218	5	-0,018
1224,39	5	-0,135
1226,556	5	-0,152
1228,733	5	-0,222
1230,905	5	-0,298
1233,083	4,5	-0,412
1235,255	4,5	-0,4
1237,427	4	-0,5
1239,605	3,5	-0,581
1241,777	4,5	-0,498
1243,955	4,5	-0,401
1246,127	4,5	-0,324
1248,298	4,5	-0,241
1250,476	5	-0,124
1252,648	5	-0,002
1254,82	5	-0,009
1256,992	5	-0,001
1259,17	5	-0,001
1261,336	5	-0,001
1263,507	5	-0,001
1265,679	5	-0,001
1267,863	5	-0,001
1270,035	5	-0,002
1272,201	5	-0,003
1274,373	4,5	-0,004
1276,545	5	-0,006
1278,723	5	-0,007
1280,894	5	-0,009
1283,06	5	-0,015
1285,232	5	-0,02
1287,41	5	-0,02
1289,588	5	-0,032
1291,76	5	-0,037
1293,932	4,5	-0,058
1296,098	4,5	-0,09
1298,281	4,5	-0,09
1300,459	4,5	-0,071
1302,625	4,5	-0,054
1304,797	4,5	-0,052
1306,969	4,5	-0,042
1309,141	5	-0,027
1311,313	5	-0,019
1313,479	5	-0,022
1315,651	5	-0,015
1317,828	5	-0,01
1320	5	-0,006
1322,166	5	-0,006
1324,344	5,5	-0,005
1326,51	5	-0,005
1328,676	5,5	-0,005
1330,842	5	-0,007
1333,02	5,5	-0,007
1335,185	5	-0,013
1337,357	5	-0,014
1339,517	5	-0,017
1341,689	5	-0,018
1343,861	5	-0,018
1346,027	5	-0,039
1348,199	4,5	-0,05
1350,365	4,5	-0,063
1352,536	4,5	-0,099
1354,702	4	-0,132
1356,874	4	-0,157
1359,04	4	-0,173
1361,218	4	-0,158
1363,39	4	-0,185
1365,556	3,5	-0,222
1367,734	4	-0,152
1369,905	3,5	-0,181
1372,083	3,5	-0,212
1374,249	3,5	-0,18
1376,421	3,5	-0,232
1378,587	3	-0,38
1380,765	2,5	-0,43
1382,937	2,5	-0,42
1385,103	3	-0,42
1387,274	2,5	-0,544
1389,446	2,5	-0,482
1391,618	3	-0,35
1393,784	3	-0,413
1395,968	3	-0,382
1398,134	3	-0,344
1400,306	3,5	-0,273
1402,472	4	-0,157
1404,643	4	-0,128
1406,809	4,5	-0,1
1408,987	4,5	-0,07
1411,153	4,5	-0,059
1413,331	5	-0,032
1415,497	5	-0,034
1417,675	5	-0,026
1419,841	5	-0,026
1422,012	5	-0,027
1424,184	5	-0,014
1426,356	5	-0,012
1428,528	5	-0,011
1430,7	5	-0,009
1432,866	5	-0,012
1435,038	5	-0,01
1437,204	5	-0,013
1439,381	5	-0,006
1441,547	5	-0,005
1443,719	5	-0,004
1445,885	5	-0,004
1448,057	5	-0,003
1450,229	5	-0,003
1452,407	5	-0,002
1454,579	5	-0,003
1456,744	5	-0,005
1458,916	5	-0,004
1461,082	5	-0,005
1463,254	5	-0,005
1465,426	5	-0,004
1467,598	5	-0,003
1469,776	5	-0,002
1471,948	5	-0,002
1474,113	5	-0,003
1476,279	5	-0,004
1478,445	5	-0,003
1480,629	5	-0,002
1482,795	5	-0,002
1484,967	5	-0,002
1487,133	5	-0,002
1489,305	5	-0,003
1491,482	5	-0,004
1493,648	5	-0,006
1495,82	5	-0,008
1497,992	5	-0,007
1500,158	5	-0,008
1502,33	5	-0,007
1504,496	5,5	-0,007
1506,668	5	-0,007
1508,839	5	-0,004
1511,011	5	-0,005
1513,189	5,5	-0,003
1515,361	5,5	-0,003
1517,533	5	-0,004
1519,705	5,5	-0,003
1521,871	5	-0,005
1524,055	5,5	-0,005
1526,22	5	-0,005
1528,386	5,5	-0,007
1530,552	5,5	-0,008
1532,724	5	-0,004
1534,902	5	-0,006
1537,074	5	-0,005
1539,24	5	-0,008
1541,418	5,5	-0,006
1543,577	5,5	-0,009
1545,755	5,5	-0,009
1547,921	5,5	-0,013
1550,093	5,5	-0,019
1552,265	5	-0,019
1554,437	5	-0,032
1556,609	5	-0,046
1558,787	5	-0,047
1560,958	4,5	-0,063
1563,124	4,5	-0,093
1565,296	4	-0,098
1567,468	4	-0,127
1569,646	4	-0,175
1571,824	3,5	-0,289
1573,99	3	-0,368
1576,168	3	-0,404
1578,333	2,5	-0,493
1580,511	2	-0,548
1582,677	2	-0,698
1584,849	1,5	-0,869
1587,015	0,5	-0,916
1589,193	1	-0,968
1591,359	0,5	-1,133
1593,531	0	-1,26
1595,696	0	-1,357
1597,874	0	-1,391
1600,04	0	-1,552
1602,218	-0,5	-1,566
1604,384	-1	-1,778
1606,556	-1	-1,81
1608,722	-1,5	-1,879
1610,894	-2,5	-2,03
1613,065	-3	-2,164
1615,237	-2,5	-2,119
1617,409	-3	-2,163
1619,581	-3	-2,149
1621,747	-3	-2,244
1623,919	-3	-2,194
1626,085	-3	-2,265
1628,257	-3	-2,24
1630,429	-3	-2,173
1632,6	-2,5	-2,085
1634,772	-2	-2,028
1636,938	-1,5	-1,947
1639,11	-2	-1,928
1641,276	-2	-2,022
1643,448	-2	-1,944
1645,62	-1,5	-1,95
1647,792	-1,5	-1,772
1649,957	-2,5	-1,995
1652,135	-2	-2,062
1654,301	-2	-2,029
1656,473	-1,5	-1,946
1658,645	-2,5	-2,029
1660,823	-2	-1,951
1662,989	-2,5	-2,084
1665,167	-2	-2,002
1667,332	-2,5	-2,092
1669,522	-2	-2,061
1671,688	-2,5	-2,157
1673,866	-3	-2,188
1676,038	-3	-2,237
1678,21	-3	-2,164
1680,382	-3	-2,245
1682,554	-3	-2,279
1684,725	-4	-2,376
1686,897	-4,5	-2,584
1689,069	-4,5	-2,575
1691,235	-4,5	-2,534
1693,407	-4,5	-2,544
1695,573	-4,5	-2,587
1697,751	-5,5	-2,782
1699,923	-6	-2,788
1702,095	-5,5	-2,726
1704,26	-6,5	-2,912
1706,432	-6,5	-2,876
1708,598	-7	-2,956
1710,77	-6	-2,904
1712,942	-6	-2,848
1715,12	-5,5	-2,803
1717,286	-6	-2,781
1719,457	-6	-2,852
1721,629	-5,5	-2,795
1723,801	-5,5	-2,795
1725,973	-5	-2,702
1728,139	-5	-2,701
1730,311	-6	-2,835
1732,483	-6	-2,886
1734,655	-6	-2,86
1736,827	-6	-2,92
1739,005	-7	-2,983
1741,17	-7,5	-3,104
1743,342	-7,5	-3,048
1745,508	-7,5	-3,052
1747,674	-7	-3,028
1749,846	-6,5	-3,016
1752,012	-7,5	-3,112
1754,183	-7,5	-3,119
1756,355	-6,5	-2,998
1758,527	-6	-2,963
1760,693	-6,5	-2,957
1762,865	-6,5	-3,033
1765,043	-7,5	-2,999
1767,215	-6,5	-2,958
1769,387	-5,5	-2,874
1771,552	-6	-2,9
1773,724	-5,5	-2,886
1775,896	-5,5	-2,824
1778,062	-5,5	-2,753
1780,234	-5,5	-2,788
1782,406	-5,5	-2,809
1784,572	-6	-2,911
1786,744	-6	-2,96
1788,909	-6	-2,96
1791,075	-6	-2,934
1793,253	-6,5	-2,862
1795,419	-5,5	-2,787
1797,591	-4,5	-2,677
1799,763	-4,5	-2,683
1801,935	-4,5	-2,643
1804,107	-4	-2,543
1806,278	-4,5	-2,577
1808,45	-3,5	-2,488
1810,622	-3	-2,366
1812,788	-2,5	-2,303
1814,954	-3	-2,303
1817,132	-2	-2,152
1819,298	-2	-2,088
1821,476	-1,5	-2,022
1823,641	-1,5	-2,042
1825,819	-1	-1,902
1827,991	-1	-1,867
1830,163	-0,5	-1,848
1832,329	-0,5	-1,762
1834,495	-1	-1,734
1836,667	-0,5	-1,673
1838,833	0	-1,587
1841,01	0	-1,469
1843,176	0	-1,394
1845,354	0	-1,232
1847,52	0,5	-1,215
1849,686	1	-1,14
1851,864	1	-1,038
1854,036	1	-1,013
1856,208	1	-1,03
1858,374	1	-1,045
1860,545	1,5	-0,957
1862,711	1,5	-0,929
1864,895	1,5	-0,765
1867,061	2	-0,7
1869,239	2,5	-0,555
1871,405	3	-0,444
1873,571	3	-0,411
1875,742	3	-0,349
1877,908	3	-0,316
1880,086	3,5	-0,203
1882,246	3,5	-0,186
1884,412	3,5	-0,17
1886,584	4	-0,127
1888,762	4,5	-0,093
1890,928	4	-0,091
1893,094	4	-0,084
1895,265	4	-0,075
1897,431	4	-0,092
1899,603	4	-0,092
1901,769	4	-0,091
1903,941	4,5	-0,073
1906,113	4,5	-0,064
1908,279	4,5	-0,066
1910,451	4,5	-0,058
1912,622	4,5	-0,042
1914,794	4,5	-0,036
1916,96	4,5	-0,034
1919,126	4,5	-0,031
1921,298	4,5	-0,026
1923,464	5	-0,02
1925,636	5	-0,018
1927,807	5	-0,014
1929,979	5	-0,01
1932,151	5	-0,011
1934,317	5	-0,012
1936,495	5	-0,007
1938,661	5	-0,007
1940,833	5	-0,005
1942,999	5	-0,006
1945,183	5	-0,004
1947,348	5	-0,004
1949,52	5	-0,002
1951,692	5	-0,002
1953,858	5	-0,002
1956,03	5	-0,001
1958,196	5	-0,001
1960,362	4,5	-0,001
1962,534	5	-0,001
1964,699	4,5	-0,001
1966,871	4,5	-0,001
1969,037	4,5	0
1971,209	5	-0,064
1973,375	4,5	-0,186
1975,547	5	-0,25
1977,719	4,5	-0,351
1979,885	4,5	-0,34
1982,056	4	-0,366
1984,228	4	-0,487
1986,4	3,5	-0,62
1988,566	3	-0,657
1990,738	2,5	-0,735
1992,922	1,5	-0,895
1995,094	1,5	-0,91
1997,266	1,5	-0,992
1999,431	1	-1,02
2001,609	1	-1,154
2003,781	0,5	-1,212
2005,953	0	-1,262
2008,119	0	-1,29
2010,285	0	-1,402
2012,457	0	-1,47
2014,623	0	-1,544
2016,8	0	-1,663
2018,966	0	-1,706
2021,138	-0,5	-1,812
2023,31	-1	-1,911
2025,476	-1	-1,991
2027,648	-1,5	-2,086
2029,82	-1,5	-2,19
2031,998	-2	-2,266
2034,163	-2	-2,298
2036,335	-2,5	-2,339
2038,507	-2,5	-2,37
2040,673	-2,5	-2,397
2042,845	-2,5	-2,48
2045,017	-3	-2,542
2047,183	-3	-2,59
2049,361	-3	-2,694
2051,526	-3,5	-2,721
2053,704	-3	-2,727
2055,87	-3	-2,701
2058,042	-3	-2,742
2060,208	-3,5	-2,791
2062,374	-3,5	-2,823
2064,546	-4	-2,971
2066,706	-4	-2,951
2068,883	-4,5	-3,075
2071,049	-4,5	-3,107
2073,221	-4,5	-3,165
2075,387	-5	-3,222
2077,553	-5	-3,269
2079,731	-5	-3,316
2081,897	-5	-3,317
2084,063	-5	-3,336
2086,234	-5,5	-3,346
2088,418	-5,5	-3,383
2090,59	-6	-3,396
2092,762	-6	-3,422
2094,928	-6	-3,42
2097,106	-6,5	-3,446
2099,272	-7	-3,452
2101,444	-7	-3,452
2103,609	-6,5	-3,458
2105,775	-7	-3,465
2107,941	-6,5	-3,47
2110,107	-7	-3,47
2112,279	-7	-3,475
2114,445	-7	-3,481
2116,623	-7	-3,487
2118,789	-7	-3,49
2120,961	-7	-3,493
2123,132	-7	-3,493
2125,298	-7	-3,496
2127,47	-7	-3,496
2129,636	-7	-3,497
2131,802	-7	-3,498
2133,98	-7	-3,498
2136,146	-7	-3,499
2138,318	-7	-3,499
2140,489	-7	-3,499
2142,661	-6,5	-3,5
2144,833	-6,5	-3,492
2146,999	-7	-3,472
2149,171	-7	-3,378
2151,337	-6,5	-3,32
2153,509	-6,5	-3,189
2155,675	-6	-3,113
2157,84	-6	-3,124
2160,012	-6	-3,024
2162,178	-6	-2,99
2164,356	-5,5	-2,909
2166,522	-5	-2,893
2168,688	-5	-2,903
2170,86	-4,5	-2,809
2173,026	-4	-2,76
2175,191	-4,5	-2,765
2177,363	-3,5	-2,703
2179,541	-3	-2,563
2181,707	-3,5	-2,562
2183,873	-3,5	-2,574
2186,045	-3	-2,43
2188,217	-2,5	-2,309
2190,383	-1,5	-2,182
2192,555	-1,5	-2,082
2194,72	-1	-2,008
2196,898	-0,5	-1,936
2199,07	-0,5	-1,742
2201,242	0	-1,573
2203,414	0	-1,5
2205,58	0	-1,458
2207,74	0	-1,412
2209,911	0,5	-1,297
2212,077	0,5	-1,217
2214,249	1	-1,038
2216,415	1	-0,994
2218,587	1	-0,91
2220,765	1,5	-0,834
2222,931	1,5	-0,78
2225,109	1,5	-0,641
2227,28	2	-0,542
2229,452	2	-0,431
2231,624	3	-0,337
2233,79	2,5	-0,329
2235,968	3	-0,224
2238,134	3	-0,208
2240,3	3,5	-0,202
2242,472	3	-0,196
2244,637	3,5	-0,134
2246,803	3,5	-0,131
2248,975	4	-0,072
2251,141	4	-0,058
2253,313	4	-0,039
2255,479	4,5	-0,032
2257,645	4,5	-0,028
2259,817	4,5	-0,025
2261,982	4,5	-0,024
2264,154	4,5	-0,022
2266,32	4,5	-0,018
2268,492	4,5	-0,013
2270,664	4,5	-0,01
2272,836	5	-0,007
2275,014	4,5	-0,005
2277,18	4,5	-0,004
2279,345	4,5	-0,004
2281,517	4,5	-0,003
2283,683	4,5	-0,002
2285,855	4,5	-0,002
2288,021	4,5	-0,002
2290,187	4,5	-0,002
2292,365	4,5	-0,002
2294,531	4,5	-0,002
2296,696	4,5	-0,001
2298,868	4,5	-0,001
2301,04	4,5	-0,001
2303,212	4,5	0
2305,396	4,5	-0,026
2307,562	4,5	-0,173
2309,74	4,5	-0,311
2311,906	4,5	-0,388
2314,077	4	-0,465
2316,243	3,5	-0,551
2318,409	4	-0,504
2320,587	3,5	-0,617
2322,747	3,5	-0,625
2324,913	2,5	-0,694
2327,085	2,5	-0,773
2329,251	1,5	-0,863
2331,422	1	-1
2333,594	1	-1,085
2335,76	1	-1,105
2337,932	0,5	-1,184
2340,098	0,5	-1,19
2342,264	0,5	-1,222
2344,43	0	-1,323
2346,596	0	-1,34
2348,761	0	-1,361
2350,927	0	-1,387
2353,093	0	-1,5
2355,271	-0,5	-1,682
2357,437	-0,5	-1,694
2359,609	-0,5	-1,83
2361,781	-0,5	-1,914
2363,947	-1,5	-2,01
2366,118	-1	-2,13
2368,291	-1,5	-2,188
2370,456	-1,5	-2,287
2372,628	-2	-2,367
2374,794	-2	-2,459
2376,966	-2,5	-2,531
2379,132	-2,5	-2,547
2381,304	-2,5	-2,626
2383,475	-3	-2,741
2385,641	-3	-2,815
2387,807	-3,5	-2,931
2389,979	-3,5	-3,038
2392,151	-4	-3,079
2394,317	-3,5	-3,149
2396,489	-4,5	-3,252
2398,655	-4,5	-3,301
2400,82	-5	-3,355
2402,992	-5	-3,374
2405,17	-5,5	-3,42
2407,336	-5,5	-3,426
2409,496	-5,5	-3,442
2411,668	-6	-3,464
2413,834	-6	-3,473
2416,006	-6	-3,48
2418,177	-6	-3,489
2420,349	-6	-3,493
2422,521	-6	-3,495
2424,687	-6	-3,496
2426,853	-6	-3,497
2429,031	-6	-3,498
2431,197	-6	-3,498
2433,369	-6	-3,499
2435,535	-6	-3,499
2437,694	-6	-3,499
2439,872	-5,5	-3,499
2442,038	-5,5	-3,499
2444,21	-5,5	-3,5
2446,382	-5,5	-3,457
2448,548	-5,5	-3,254
2450,714	-5,5	-3,177
2452,892	-5	-3,063
2455,057	-4,5	-2,977
2457,229	-4	-2,914
2459,395	-3,5	-2,791
2461,567	-3	-2,698
2463,739	-2,5	-2,593
2465,905	-2	-2,518
2468,083	-1,5	-2,378
2470,249	-1,5	-2,367
2472,414	-1,5	-2,292
2474,586	-1,5	-2,219
2476,758	-1,5	-2,183
2478,924	-1	-2,177
2481,102	-0,5	-2,069
2483,268	-0,5	-1,963
2485,434	-0,5	-1,914
2487,606	0	-1,767
2489,777	-0,5	-1,742
2491,949	0	-1,687
2494,121	0	-1,57
2496,287	0	-1,538
2498,465	0	-1,402
2500,637	0,5	-1,292
2502,803	0,5	-1,175
2504,981	1	-1,067
2507,147	1	-0,997
2509,312	1	-0,901
2511,484	1,5	-0,812
2513,656	1,5	-0,734
2515,822	1,5	-0,707
2517,994	1,5	-0,693
2520,16	1,5	-0,639
2522,326	2	-0,516
2524,509	2,5	-0,357
2526,675	2,5	-0,278
2528,853	3	-0,164
2531,019	3,5	-0,111
2533,191	3,5	-0,079
2535,357	4	-0,047
2537,529	4	-0,038
2539,701	4,5	-0,025
2541,878	4,5	-0,02
2544,05	4,5	-0,014
2546,216	4,5	-0,011
2548,388	4,5	-0,007
2550,554	4,5	-0,006
2552,72	4,5	-0,004
2554,892	4	-0,003
2557,058	4,5	-0,002
2559,229	4,5	-0,002
2561,401	4,5	-0,001
2563,567	4,5	-0,001
2565,745	4,5	0
2567,911	4,5	-0,107
2570,077	4,5	-0,184
2572,249	4	-0,357
2574,415	3,5	-0,4
2576,586	3,5	-0,494
2578,758	2,5	-0,663
2580,924	2	-0,776
2583,09	1,5	-0,919
2585,262	1	-1,067
2587,428	0,5	-1,163
2589,6	0	-1,326
2591,766	0	-1,337
2593,932	0	-1,451
2596,103	0	-1,544
2598,269	0	-1,651
2600,441	0	-1,75
2602,613	-0,5	-1,84
2604,779	-0,5	-1,903
2606,945	-0,5	-1,988
2609,117	-1	-2,135
2611,282	-1,5	-2,264
2613,448	-1	-2,343
2615,62	-1,5	-2,454
2617,786	-1,5	-2,523
2619,964	-2	-2,7
2622,13	-2,5	-2,781
2624,296	-2,5	-2,856
2626,462	-3	-2,925
2628,627	-3	-3,026
2630,793	-3	-3,059
2632,965	-3	-3,196
2635,131	-3,5	-3,244
2637,297	-4	-3,334
2639,475	-4,5	-3,392
2641,641	-4,5	-3,418
2643,807	-5	-3,439
2645,978	-5	-3,457
2648,15	-5,5	-3,474
2650,328	-5,5	-3,485
2652,494	-5,5	-3,488
2654,66	-5,5	-3,492
2656,832	-5,5	-3,495
2658,998	-5,5	-3,496
2661,164	-5	-3,497
2663,336	-5,5	-3,498
2665,501	-5,5	-3,499
2667,673	-5,5	-3,499
2669,839	-5,5	-3,499
2672,005	-5	-3,499
2674,177	-5	-3,5
2676,343	-5	-3,5
2678,509	-5	-3,462
2680,686	-5	-3,313
2682,852	-5,5	-3,264
2685,024	-5,5	-3,176
2687,202	-4,5	-3,024
2689,368	-4	-2,976
2691,54	-4	-2,93
2693,706	-3	-2,888
2695,872	-3	-2,748
2698,05	-2,5	-2,672
2700,215	-2,5	-2,613
2702,381	-2,5	-2,559
2704,559	-1,5	-2,339
2706,725	-1	-2,206
2708,891	-1	-2,115
2711,063	-0,5	-1,969
2713,229	-0,5	-1,952
2715,395	-0,5	-1,877
2717,578	0	-1,792
2719,75	0	-1,66
2721,916	0	-1,597
2724,094	0	-1,446
2726,26	0,5	-1,308
2728,432	0,5	-1,16
2730,598	0,5	-1,101
2732,77	1	-0,938
2734,935	1,5	-0,799
2737,107	1,5	-0,725
2739,273	1,5	-0,656
2741,451	2	-0,516
2743,617	2	-0,484
2745,783	2,5	-0,362
2747,955	2,5	-0,225
2750,127	3	-0,167
2752,292	3,5	-0,117
2754,464	3,5	-0,092
2756,636	4	-0,053
2758,802	4	-0,043
2760,968	4	-0,032
2763,134	4	-0,028
2765,306	4,5	-0,021
2767,472	4,5	-0,016
2769,637	4,5	-0,015
2771,803	4,5	-0,012
2773,975	4,5	-0,008
2776,141	4,5	-0,008
2778,307	4	-0,007
2780,485	4,5	-0,004
2782,651	4,5	-0,003
2784,817	4,5	-0,003
2786,982	4	-0,002
2789,154	4	-0,002
2791,32	4	-0,001
2793,492	4	-0,001
2795,658	4,5	-0,001
2797,836	4	-0,001
2800,002	4	0
2802,168	4	-0,158
2804,345	4	-0,329
2806,511	4	-0,415
2808,677	3,5	-0,517
2810,843	3	-0,59
2813,021	2,5	-0,641
2815,187	2,5	-0,702
2817,347	2	-0,759
2819,519	1	-0,909
2821,684	1,5	-0,957
2823,85	1	-1,011
2826,022	0,5	-1,169
2828,188	0,5	-1,169
2830,36	0,5	-1,252
2832,526	0	-1,37
2834,692	0	-1,498
2836,87	0	-1,612
2839,035	0	-1,681
2841,207	0	-1,764
2843,373	-0,5	-1,891
2845,551	-0,5	-1,99
2847,723	-0,5	-2,047
2849,895	-0,5	-2,131
2852,067	-1	-2,236
2854,233	-1	-2,374
2856,41	-1,5	-2,492
2858,576	-1,5	-2,578
2860,748	-1,5	-2,608
2862,92	-2	-2,708
2865,086	-2	-2,761
2867,252	-2	-2,799
2869,424	-2,5	-2,909
2871,59	-2,5	-2,916
2873,761	-3	-2,987
2875,939	-3	-3,086
2878,105	-3	-3,112
2880,271	-3	-3,176
2882,443	-3,5	-3,288
2884,615	-4	-3,357
2886,781	-4	-3,374
2888,953	-4	-3,395
2891,118	-4,5	-3,432
2893,29	-4,5	-3,444
2895,462	-4,5	-3,452
2897,634	-4,5	-3,452
2899,806	-4,5	-3,464
2901,972	-4,5	-3,477
2904,138	-5	-3,482
2906,304	-5	-3,483
2908,476	-5	-3,485
2910,641	-4,5	-3,488
2912,813	-5	-3,49
2914,985	-4,5	-3,494
2917,157	-4,5	-3,496
2919,323	-5	-3,496
2921,495	-5	-3,498
2923,661	-4,5	-3,498
2925,827	-5	-3,498
2927,998	-4,5	-3,499
2930,164	-5	-3,499
2932,33	-4,5	-3,499
2934,508	-5	-3,499
2936,668	-4,5	-3,499
2938,84	-4,5	-3,5
2941,006	-4,5	-3,489
2943,172	-4,5	-3,378
2945,343	-4,5	-3,275
2947,515	-4	-3,164
2949,681	-4	-3,11
2951,853	-3,5	-2,988
2954,025	-3	-2,925
2956,197	-2,5	-2,756
2958,369	-2	-2,62
2960,534	-1,5	-2,55
2962,7	-1	-2,434
2964,872	-1	-2,37
2967,044	-1	-2,287
2969,21	-0,5	-2,197
2971,37	-0,5	-2,14
2973,536	-0,5	-2,061
2975,702	0	-1,917
2977,868	0	-1,831
2980,045	0	-1,708
2982,211	0	-1,69
2984,371	0	-1,651
2986,543	0	-1,525
2988,709	0	-1,439
2990,875	0,5	-1,386
2993,053	0,5	-1,14
2995,219	0,5	-1,114
2997,384	0,5	-1,065
2999,556	1	-0,992
3001,728	1	-0,946
3003,9	1	-0,899
3006,066	1	-0,85
3008,244	1,5	-0,706
3010,41	1,5	-0,684
3012,576	1,5	-0,709
3014,747	1,5	-0,706
3016,919	1,5	-0,686
3019,085	1,5	-0,633
3021,263	1,5	-0,488
3023,429	2	-0,407
3025,595	2	-0,391
3027,767	2	-0,313
3029,933	2	-0,286
3032,099	2	-0,25
3034,27	2,5	-0,198
3036,442	3	-0,153
3038,608	3	-0,122
3040,78	3	-0,089
3042,952	3,5	-0,057
3045,118	3,5	-0,045
3047,29	3,5	-0,039
3049,456	3,5	-0,035
3051,621	3,5	-0,033
3053,781	3,5	-0,028
3055,947	4	-0,024
3058,113	4	-0,02
3060,279	4	-0,014
3062,451	4	-0,008
3064,623	4	-0,006
3066,789	4	-0,006
3068,96	4	-0,004
3071,126	4	-0,003
3073,292	4	-0,003
3075,461	4	-0,003
3077,624	4	-0,002
3079,796	4	-0,002
3081,962	4	-0,002
3084,127	4	-0,002
3086,293	4	-0,001
3088,465	4	-0,001
3090,631	4	-0,001
3092,797	4	-0,001
3094,963	4	-0,001
3097,129	4	0
3099,295	4	-0,02
3101,461	4	-0,168
3103,632	4	-0,231
3105,804	3,5	-0,308
3107,97	3,5	-0,34
3110,142	3,5	-0,349
3112,314	4	-0,428
3114,48	3,5	-0,46
3116,652	3,5	-0,527
3118,817	3	-0,625
3120,983	2	-0,662
3123,149	2	-0,7
3125,315	2,5	-0,684
3127,481	1,5	-0,881
3129,647	1,5	-0,902
3131,819	1	-1,051
3133,985	0,5	-1,125
3136,15	0,5	-1,194
3138,322	0,5	-1,278
3140,494	0,5	-1,367
3142,66	0	-1,356
3144,832	0	-1,456
3146,998	0	-1,584
3149,17	0	-1,683
3151,342	0	-1,746
3153,519	0	-1,79
3155,685	0	-1,854
3157,857	0	-1,906
3160,029	-0,5	-2
3162,195	-0,5	-2,081
3164,361	-0,5	-2,15
3166,533	-0,5	-2,26
3168,699	-1	-2,308
3170,864	-1	-2,349
3173,042	-1	-2,388
3175,208	-1	-2,401
3177,374	-1	-2,439
3179,54	-1	-2,479
3181,772	-1,5	-2,796
3183,944	-1,5	-2,858
3186,11	-2	-2,99
3188,287	-2	-3,084
3190,459	-2,5	-3,13
3192,625	-2,5	-3,208
3194,797	-3	-3,242
3196,969	-3	-3,277
3199,135	-3	-3,302
3201,307	-3	-3,349
3203,473	-3	-3,32
3205,639	-3	-3,334
3207,816	-3	-3,338
3209,976	-3	-3,307
3212,142	-3	-3,314
3214,308	-3	-3,328
3216,486	-3	-3,358
3218,652	-3	-3,387
3220,818	-3,5	-3,4
3222,99	-3,5	-3,404
3225,155	-3,5	-3,416
3227,321	-3,5	-3,425
3229,493	-4	-3,421
3231,659	-3,5	-3,426
3233,831	-4	-3,448
3236,003	-4	-3,453
3238,169	-3,5	-3,453
3239,543	4	0