File: ensaios_Ciclicos/_50perc/_4gap/entrada/_3.txt
Time (s)	Load (N)	Displacement (mm)
0	0	-0,026
2,152	0	-0,126
4,311	0	-0,268
6,447	1	-0,3
8,589	0,5	-0,399
10,725	0	-0,462
12,861	0	-0,488
14,997	0	-0,482
17,133	0	-0,561
19,269	0	-0,54
21,404	0	-0,56
23,54	-0,5	-0,64
25,676	-0,5	-0,638
27,812	-1	-0,75
29,948	-1	-0,822
32,084	-1	-0,838
34,22	-2	-0,96
36,356	-2,5	-0,991
38,492	-2,5	-0,975
40,627	-2	-0,995
42,763	-3	-1,18
44,905	-3,5	-1,316
47,041	-4	-1,331
49,183	-4,5	-1,498
51,325	-4,5	-1,592
53,461	-5	-1,633
55,597	-5	-1,691
57,738	-5,5	-1,789
59,874	-6	-1,836
62,016	-6	-1,866
64,164	-6,5	-1,994
66,306	-6,5	-2,066
68,454	-7,5	-2,188
70,596	-7,5	-2,229
72,732	-8	-2,233
74,873	-8	-2,289
77,009	-8,5	-2,288
79,145	-8,5	-2,373
81,287	-9	-2,38
83,423	-8,5	-2,39
85,565	-8,5	-2,42
87,701	-8,5	-2,445
89,837	-8,5	-2,35
91,972	-8,5	-2,338
94,114	-8	-2,325
96,256	-8,5	-2,396
98,398	-9	-2,447
100,54	-9	-2,496
102,682	-9	-2,462
104,818	-8,5	-2,43
106,954	-8,5	-2,429
109,095	-8,5	-2,405
111,231	-8,5	-2,389
113,373	-8	-2,348
115,509	-7,5	-2,375
117,645	-8	-2,315
119,781	-7,5	-2,362
121,923	-7,5	-2,354
124,065	-9	-2,452
126,201	-8,5	-2,5
128,342	-9	-2,604
130,478	-10	-2,731
132,62	-10,5	-2,781
134,756	-11	-2,855
136,892	-11,5	-2,938
139,028	-11,5	-2,922
141,17	-12	-3,021
143,305	-13	-3,116
145,447	-12,5	-3,096
147,583	-13	-3,106
149,725	-13,5	-3,22
151,861	-14	-3,306
154,009	-15	-3,364
156,151	-15	-3,434
158,287	-16,5	-3,448
160,422	-16,5	-3,448
162,558	-16	-3,456
164,7	-16,5	-3,472
166,836	-17	-3,481
168,978	-16,5	-3,487
171,114	-16,5	-3,491
173,25	-16,5	-3,491
175,392	-17	-3,493
177,533	-17	-3,496
179,669	-17	-3,496
181,805	-16,5	-3,497
183,941	-16,5	-3,497
186,077	-16,5	-3,498
188,213	-16,5	-3,498
190,349	-16,5	-3,498
192,491	-16,5	-3,498
194,627	-16,5	-3,499
196,768	-16,5	-3,499
198,904	-16,5	-3,499
201,046	-16,5	-3,5
203,182	-16,5	-3,5
205,33	-16,5	-3,491
207,466	-16	-3,482
209,602	-16,5	-3,47
211,738	-16,5	-3,38
213,873	-16,5	-3,338
216,009	-16	-3,232
218,145	-16	-3,206
220,281	-15	-3,136
222,423	-15	-3,064
224,559	-14	-2,99
226,701	-13,5	-2,881
228,843	-13	-2,809
230,978	-13	-2,853
233,115	-13	-2,784
235,256	-12,5	-2,734
237,398	-12	-2,71
239,534	-12	-2,646
241,682	-11	-2,625
243,818	-11	-2,576
245,954	-11,5	-2,515
248,09	-10,5	-2,43
250,249	-9	-2,184
252,403	-8	-2,099
254,539	-7,5	-2,021
256,675	-7,5	-2,031
258,823	-6,5	-1,889
260,971	-6	-1,811
263,113	-5	-1,671
265,26	-4,5	-1,522
267,396	-4,5	-1,613
269,532	-4,5	-1,57
271,668	-4,5	-1,56
273,816	-3,5	-1,459
275,952	-4	-1,418
278,094	-3,5	-1,368
280,23	-3	-1,299
282,365	-3	-1,263
284,501	-3	-1,264
286,643	-2,5	-1,134
288,779	-2	-1,102
290,915	-2	-1,155
293,051	-2,5	-1,189
295,193	-2	-1,106
297,335	-1,5	-1,082
299,477	-1,5	-1,005
301,624	-1	-0,893
303,772	-1	-0,802
305,914	-0,5	-0,704
308,056	0	-0,544
310,198	0	-0,512
312,34	0	-0,446
314,476	0	-0,441
316,618	0	-0,406
318,76	0	-0,362
320,907	0	-0,278
323,043	0	-0,264
325,179	0	-0,304
327,315	0,5	-0,224
329,457	1	-0,17
331,593	1	-0,149
333,729	1	-0,16
335,87	1	-0,12
338,012	1,5	-0,083
340,148	1,5	-0,054
342,284	1,5	-0,052
344,42	2	-0,044
346,556	2	-0,046
348,704	2	-0,036
350,846	2	-0,04
352,981	2	-0,038
355,123	2	-0,039
357,259	2	-0,04
359,395	2	-0,038
361,537	2	-0,042
363,673	2	-0,034
365,827	1,5	-0,033
367,963	2	-0,04
370,104	2	-0,035
372,246	2	-0,024
374,388	2	-0,026
376,524	2	-0,018
378,666	2	-0,015
380,814	2,5	-0,012
382,956	2,5	-0,012
385,098	2,5	-0,011
387,239	2	-0,014
389,387	2,5	-0,013
391,529	2,5	-0,011
393,671	2,5	-0,01
395,807	2,5	-0,009
397,955	2,5	-0,008
400,091	2,5	-0,01
402,233	2,5	-0,008
404,38	2,5	-0,008
406,522	2,5	-0,008
408,664	2,5	-0,007
410,806	2,5	-0,006
412,954	2,5	-0,004
415,102	3	-0,003
417,238	2,5	-0,004
419,38	2,5	-0,003
421,522	2,5	-0,002
423,663	2,5	-0,002
425,811	2,5	-0,002
427,953	2,5	-0,002
430,101	2,5	-0,001
432,249	2,5	-0,001
434,391	2,5	0
436,545	2,5	0
438,687	2,5	0
440,822	2,5	-0,046
442,958	2,5	-0,125
445,106	2,5	-0,148
447,242	2,5	-0,131
449,384	2,5	-0,185
451,526	2,5	-0,205
453,662	2	-0,102
455,804	2,5	-0,09
457,945	2,5	-0,09
460,087	2,5	-0,114
462,235	2,5	-0,218
464,377	2	-0,26
466,519	2	-0,328
468,661	2	-0,379
470,803	1,5	-0,44
472,951	0,5	-0,59
475,098	0	-0,702
477,24	0,5	-0,684
479,382	0	-0,766
481,518	0	-0,771
483,672	-0,5	-0,93
485,808	-0,5	-0,961
487,944	-0,5	-0,886
490,086	-1	-0,951
492,239	-1	-1,089
494,387	-1	-1,095
496,523	-1,5	-1,078
498,665	-1,5	-1,086
500,801	-1,5	-1,165
502,943	-1,5	-1,168
505,091	-1,5	-1,269
507,227	-1,5	-1,28
509,363	-1,5	-1,273
511,498	-1,5	-1,236
513,646	-1,5	-1,209
515,788	-1,5	-1,233
517,93	-1,5	-1,273
520,072	-2	-1,403
522,214	-2	-1,422
524,356	-2	-1,526
526,498	-2,5	-1,586
528,633	-2,5	-1,629
530,775	-2,5	-1,61
532,911	-2,5	-1,631
535,053	-2,5	-1,687
537,195	-3	-1,721
539,337	-3	-1,803
541,485	-3	-1,788
543,627	-3	-1,765
545,768	-3,5	-1,921
547,91	-3,5	-1,992
550,058	-4,5	-2,153
552,206	-5,5	-2,335
554,348	-5,5	-2,353
556,502	-7	-2,565
558,644	-7	-2,583
560,786	-7	-2,596
562,933	-7,5	-2,683
565,075	-7	-2,653
567,217	-8,5	-2,783
569,359	-9	-2,908
571,501	-9,5	-2,976
573,637	-9,5	-2,989
575,779	-9,5	-3,003
577,933	-9,5	-3,082
580,068	-11	-3,238
582,21	-11	-3,252
584,352	-10,5	-3,228
586,488	-12	-3,332
588,642	-13	-3,381
590,778	-13	-3,366
592,926	-13	-3,394
595,068	-13	-3,391
597,221	-13,5	-3,433
599,369	-14	-3,456
601,517	-14,5	-3,468
603,653	-14,5	-3,468
605,801	-14,5	-3,472
607,943	-14,5	-3,482
610,079	-14,5	-3,48
612,215	-14,5	-3,477
614,363	-14,5	-3,487
616,504	-14,5	-3,489
618,646	-14,5	-3,489
620,794	-14,5	-3,493
622,936	-14,5	-3,494
625,084	-14,5	-3,495
627,232	-15	-3,497
629,374	-14,5	-3,498
631,516	-14,5	-3,498
633,663	-14,5	-3,498
635,805	-14,5	-3,498
637,941	-15	-3,499
640,077	-14,5	-3,499
642,219	-14,5	-3,499
644,355	-14,5	-3,499
646,491	-15	-3,499
648,639	-14,5	-3,499
650,78	-14,5	-3,499
652,922	-14,5	-3,499
655,058	-14,5	-3,5
657,194	-14,5	-3,5
659,336	-14,5	-3,486
661,484	-14,5	-3,355
663,626	-14,5	-3,336
665,768	-14,5	-3,31
667,909	-14,5	-3,229
670,057	-14	-3,196
672,205	-13,5	-3,098
674,347	-13	-2,989
676,489	-10,5	-2,757
678,625	-11	-2,785
680,761	-10,5	-2,78
682,897	-10,5	-2,814
685,05	-10	-2,766
687,192	-10,5	-2,821
689,328	-11,5	-2,828
691,464	-11	-2,819
693,606	-11	-2,794
695,742	-11	-2,815
697,884	-11,5	-2,856
700,02	-10,5	-2,804
702,155	-10,5	-2,784
704,291	-10	-2,758
706,433	-10	-2,724
708,575	-10	-2,694
710,711	-9,5	-2,689
712,847	-10,5	-2,732
714,983	-10,5	-2,755
717,125	-10	-2,71
719,272	-8,5	-2,554
721,408	-9	-2,582
723,55	-9	-2,563
725,692	-9,5	-2,581
727,84	-9,5	-2,544
729,982	-9,5	-2,556
732,124	-10	-2,586
734,266	-10,5	-2,646
736,407	-10	-2,687
738,549	-10,5	-2,737
740,703	-11	-2,76
742,851	-10,5	-2,765
744,993	-11	-2,794
747,141	-10,5	-2,68
749,277	-11	-2,81
751,413	-11,5	-2,88
753,549	-12	-2,912
755,69	-11,5	-2,905
757,838	-11,5	-2,835
759,992	-10,5	-2,697
762,14	-10,5	-2,67
764,288	-10,5	-2,734
766,424	-11,5	-2,797
768,566	-11,5	-2,811
770,702	-10,5	-2,662
772,843	-11	-2,713
774,979	-11	-2,794
777,115	-11	-2,785
779,263	-10,5	-2,65
781,405	-9	-2,594
783,547	-9	-2,592
785,683	-10	-2,587
787,831	-9,5	-2,573
789,972	-10	-2,674
792,12	-10,5	-2,674
794,262	-10	-2,607
796,41	-9	-2,521
798,558	-8,5	-2,434
800,7	-8,5	-2,416
802,842	-9	-2,489
804,99	-8,5	-2,464
807,131	-8	-2,426
809,273	-8,5	-2,416
811,421	-9	-2,485
813,569	-9	-2,528
815,705	-9	-2,55
817,847	-8	-2,441
819,989	-8	-2,445
822,137	-8,5	-2,428
824,284	-7,5	-2,384
826,426	-8	-2,435
828,574	-9	-2,493
830,716	-8,5	-2,464
832,87	-7,5	-2,353
835,012	-7,5	-2,377
837,16	-7	-2,312
839,308	-6,5	-2,232
841,456	-6,5	-2,194
843,597	-7	-2,249
845,739	-6	-2,247
847,887	-5,5	-2,103
850,035	-5,5	-2,022
852,189	-5	-1,955
854,325	-5	-1,998
856,467	-4,5	-1,93
858,615	-5,5	-1,984
860,756	-5,5	-1,986
862,892	-5,5	-1,998
865,04	-5	-2,013
867,188	-4,5	-1,894
869,33	-5	-1,93
871,478	-4	-1,838
873,62	-3,5	-1,778
875,756	-4,5	-1,836
877,891	-4,5	-1,848
880,039	-4	-1,768
882,199	-3	-1,734
884,347	-3,5	-1,695
886,501	-3	-1,622
888,649	-3	-1,564
890,797	-2,5	-1,482
892,939	-2	-1,416
895,074	-2,5	-1,449
897,222	-2	-1,395
899,37	-2	-1,33
901,512	-1,5	-1,248
903,648	-1,5	-1,227
905,79	-1,5	-1,214
907,932	-1	-1,089
910,08	-0,5	-1,051
912,227	-0,5	-0,934
914,375	0	-0,784
916,523	0	-0,729
918,671	0	-0,708
920,819	0	-0,611
922,955	0	-0,66
925,091	0	-0,619
927,239	0	-0,554
929,38	0	-0,519
931,528	0,5	-0,348
933,67	1	-0,235
935,812	1	-0,181
937,96	1,5	-0,161
940,102	1,5	-0,171
942,25	1,5	-0,118
944,392	2	-0,078
946,54	2,5	-0,051
948,687	2,5	-0,039
950,823	2,5	-0,047
952,959	2,5	-0,036
955,101	2,5	-0,029
957,243	3	-0,024
959,391	2,5	-0,024
961,539	2,5	-0,019
963,681	3	-0,016
965,822	3	-0,018
967,97	3	-0,015
970,112	3	-0,013
972,266	3	-0,012
974,408	3	-0,013
976,55	3	-0,014
978,698	3	-0,012
980,84	3	-0,012
982,981	3	-0,013
985,123	3	-0,011
987,265	3	-0,011
989,413	2,5	-0,007
991,549	3	-0,006
993,703	2,5	-0,004
995,839	3	-0,004
997,987	2,5	-0,004
1000,122	3	-0,004
1002,264	2,5	-0,004
1004,406	3	-0,004
1006,548	3	-0,003
1008,696	3	-0,002
1010,838	3	-0,002
1012,98	3	-0,002
1015,128	3	-0,001
1017,276	3	-0,001
1019,411	3	-0,001
1021,565	3	-0,001
1023,707	3	-0,001
1025,849	3	-0,001
1027,991	3	-0,001
1030,127	3	-0,001
1032,269	3	-0,001
1034,41	3	-0,001
1036,558	2,5	0
1038,7	3	0
1040,842	3	0
1042,984	3	0
1045,126	2,5	0
1047,268	2,5	0
1049,416	3	0
1051,552	3	-0,023
1053,693	2,5	0
1055,835	3	0
1057,983	3	-0,102
1060,131	3	-0,166
1062,273	3	-0,153
1064,421	3	-0,159
1066,557	3	-0,192
1068,705	3	-0,28
1070,846	2	-0,36
1073	2	-0,422
1075,142	2	-0,462
1077,296	1	-0,578
1079,438	1,5	-0,634
1081,58	0,5	-0,706
1083,716	0,5	-0,694
1085,864	0	-0,812
1088,005	0	-0,879
1090,147	0	-0,924
1092,283	-0,5	-1,025
1094,425	-0,5	-0,99
1096,573	-0,5	-1,06
1098,721	-1	-1,124
1100,857	-1	-1,092
1102,999	-0,5	-1,147
1105,14	-0,5	-1,123
1107,282	-0,5	-1,094
1109,424	-1	-1,155
1111,566	-1	-1,19
1113,708	-1	-1,219
1115,85	-1	-1,163
1118,004	-1,5	-1,28
1120,146	-1	-1,314
1122,287	-1,5	-1,433
1124,429	-1,5	-1,457
1126,571	-1,5	-1,444
1128,707	-1,5	-1,396
1130,855	-1	-1,353
1132,991	-1,5	-1,385
1135,127	-1,5	-1,378
1137,275	-1	-1,402
1139,422	-1,5	-1,423
1141,57	-1,5	-1,45
1143,712	-1,5	-1,458
1145,86	-1,5	-1,459
1148,002	-1,5	-1,531
1150,15	-1,5	-1,552
1152,298	-1,5	-1,644
1154,44	-2,5	-1,742
1156,582	-3	-1,825
1158,723	-3	-1,87
1160,865	-2,5	-1,84
1163,013	-3	-1,91
1165,161	-3	-1,948
1167,303	-3	-2,026
1169,445	-3	-1,927
1171,587	-3	-1,971
1173,735	-3	-1,989
1175,876	-3	-2,061
1178,024	-4	-2,183
1180,172	-4	-2,299
1182,314	-4	-2,299
1184,462	-5	-2,374
1186,598	-4,5	-2,356
1188,746	-4,5	-2,386
1190,882	-4,5	-2,287
1193,029	-4,5	-2,288
1195,171	-4,5	-2,329
1197,325	-5	-2,455
1199,461	-5	-2,454
1201,615	-5,5	-2,565
1203,751	-5,5	-2,591
1205,893	-5,5	-2,593
1208,035	-5	-2,516
1210,176	-5,5	-2,513
1212,324	-5,5	-2,594
1214,466	-5,5	-2,616
1216,608	-5,5	-2,594
1218,75	-5	-2,542
1220,892	-5	-2,577
1223,034	-5,5	-2,629
1225,176	-5,5	-2,642
1227,317	-6	-2,676
1229,459	-6	-2,753
1231,601	-6	-2,794
1233,743	-7	-2,876
1235,885	-7,5	-2,98
1238,021	-7,5	-3,022
1240,169	-8,5	-3,185
1242,317	-9	-3,182
1244,458	-9	-3,206
1246,6	-8,5	-3,176
1248,748	-9	-3,255
1250,896	-9,5	-3,275
1253,038	-9,5	-3,302
1255,18	-9,5	-3,306
1257,328	-9	-3,3
1259,47	-9	-3,262
1261,618	-9,5	-3,258
1263,753	-9	-3,254
1265,901	-9,5	-3,302
1268,043	-9,5	-3,314
1270,191	-10	-3,328
1272,339	-10	-3,369
1274,481	-10,5	-3,376
1276,629	-10,5	-3,4
1278,771	-10,5	-3,409
1280,918	-10,5	-3,411
1283,06	-10,5	-3,41
1285,202	-11	-3,427
1287,35	-10,5	-3,41
1289,492	-11	-3,431
1291,64	-11,5	-3,454
1293,782	-12	-3,47
1295,924	-12	-3,48
1298,071	-12	-3,486
1300,213	-12	-3,49
1302,361	-12	-3,495
1304,503	-12	-3,495
1306,645	-12	-3,496
1308,793	-12,5	-3,498
1310,929	-12,5	-3,498
1313,083	-12,5	-3,499
1315,218	-12,5	-3,499
1317,36	-12,5	-3,499
1319,508	-12,5	-3,499
1321,65	-12	-3,5
1323,792	-12	-3,372
1325,928	-12	-3,214
1328,07	-11	-3,066
1330,218	-10	-2,922
1332,359	-9	-2,818
1334,507	-8,5	-2,641
1336,649	-6,5	-2,511
1338,797	-6	-2,361
1340,945	-5,5	-2,212
1343,081	-5,5	-2,128
1345,223	-4,5	-2,014
1347,365	-3,5	-1,936
1349,507	-4	-1,934
1351,648	-3	-1,84
1353,79	-3	-1,759
1355,938	-2,5	-1,674
1358,08	-2,5	-1,633
1360,222	-2	-1,519
1362,364	-2	-1,473
1364,512	-1	-1,345
1366,654	-1	-1,294
1368,801	-1	-1,204
1370,937	-1	-1,21
1373,085	-0,5	-1,182
1375,227	-0,5	-1,116
1377,375	0	-0,999
1379,511	0	-0,957
1381,665	0	-0,786
1383,807	0	-0,714
1385,942	0	-0,68
1388,09	1	-0,418
1390,232	0,5	-0,393
1392,374	0,5	-0,386
1394,51	0,5	-0,402
1396,664	1	-0,256
1398,806	1	-0,257
1400,954	1,5	-0,143
1403,101	1,5	-0,098
1405,243	2	-0,074
1407,379	2	-0,062
1409,527	2,5	-0,045
1411,675	2,5	-0,029
1413,823	3	-0,019
1415,959	3	-0,016
1418,101	3	-0,012
1420,242	3	-0,008
1422,378	3	-0,006
1424,526	3	-0,005
1426,668	3	-0,003
1428,81	3	-0,003
1430,952	3	-0,003
1433,1	3	-0,002
1435,242	3	-0,002
1437,383	3	-0,003
1439,525	3	-0,002
1441,667	3	-0,002
1443,809	3	-0,002
1445,951	3	-0,002
1448,087	3	-0,003
1450,229	3	-0,003
1452,383	3	-0,002
1454,525	3	-0,002
1456,672	3	-0,002
1458,814	3	-0,002
1460,956	3	-0,002
1463,098	3	-0,002
1465,234	3	-0,002
1467,376	3	-0,002
1469,524	3	-0,001
1471,66	3	-0,002
1473,813	3	-0,001
1475,955	2,5	-0,001
1478,103	3	-0,001
1480,251	3	0
1482,387	3	0
1484,54	3	-0,002
1486,683	3	-0,009
1488,831	3	-0,031
1490,972	3	-0,071
1493,12	3	-0,003
1495,262	3	-0,009
1497,404	3	0
1499,546	3	-0,022
1501,694	3	-0,031
1503,836	3	-0,006
1505,978	3	0
1508,125	3	-0,002
1510,267	3	-0,015
1512,415	3	-0,018
1514,563	3	-0,026
1516,705	3	-0,012
1518,853	3	0
1520,995	3	-0,001
1523,137	3	-0,001
1525,284	3	0
1527,426	3	-0,001
1529,568	2,5	0
1531,71	2,5	0
1533,858	2,5	0
1536,006	3	0
1538,148	3	-0,001
1540,29	3	-0,001
1542,437	3	-0,001
1544,585	3	-0,001
1546,727	3	-0,001
1548,881	3	-0,001
1551,023	3	-0,001
1553,171	3	-0,001
1555,313	3	-0,001
1557,461	3	-0,001
1559,608	3	-0,001
1561,75	3	-0,001
1563,898	3	-0,001
1566,04	3	-0,001
1568,182	3	-0,001
1570,33	3	-0,001
1572,466	3	-0,001
1574,608	3	-0,001
1576,756	3	-0,001
1578,891	3	-0,001
1581,033	3	-0,001
1583,175	3	-0,001
1585,323	3	-0,001
1587,465	3	-0,001
1589,625	3	-0,001
1591,767	3	-0,001
1593,915	3	-0,001
1596,056	3	-0,001
1598,198	3	-0,001
1600,346	3	-0,001
1602,488	3	-0,001
1604,636	3	-0,001
1606,778	3	-0,001
1608,926	3	-0,001
1611,074	3	0
1613,215	3	-0,001
1615,357	3	-0,001
1617,511	3	-0,001
1619,653	3	-0,001
1621,789	3	-0,001
1623,931	3	-0,001
1626,073	3	-0,001
1628,215	3	-0,002
1630,356	3	-0,002
1632,504	3	-0,001
1634,652	3	-0,002
1636,794	3	-0,001
1638,936	3	-0,001
1641,09	3	-0,001
1643,232	3	-0,001
1645,386	3	-0,001
1647,527	3	-0,001
1649,669	3	-0,001
1651,817	3	-0,001
1653,965	3	-0,001
1656,113	3	-0,001
1658,261	3	-0,001
1660,409	3	-0,001
1662,551	3	-0,001
1664,698	3	-0,001
1666,84	3	-0,002
1668,988	3	-0,002
1671,136	3	-0,002
1673,278	3	-0,001
1675,426	3	-0,001
1677,568	3	-0,001
1679,704	3	-0,002
1681,851	3	-0,002
1683,993	3	-0,002
1686,141	3	-0,001
1688,289	3	-0,001
1690,431	3	-0,001
1692,573	3	-0,001
1694,721	3	-0,001
1696,857	3	-0,001
1698,999	3	-0,001
1701,14	3	-0,001
1703,282	3	-0,001
1705,43	3	-0,001
1707,578	3	-0,001
1709,72	3	-0,001
1711,862	3	-0,001
1714,01	3	-0,001
1716,146	3	-0,002
1718,287	3	-0,002
1720,435	3	-0,001
1722,577	3	-0,001
1724,725	3	-0,001
1726,867	3	-0,001
1729,015	3	-0,001
1731,157	3	0
1733,299	3	0
1735,44	3	0
1737,588	3	0
1739,73	3	0
1741,878	3	-0,022
1744,026	3	-0,058
1746,168	3	-0,002
1748,304	3	0
1750,452	3	-0,001
1752,599	2,5	-0,001
1754,741	3	-0,001
1756,889	2,5	-0,001
1759,031	3	-0,001
1761,179	3	0
1763,327	3	-0,001
1765,463	3	-0,001
1767,611	3	-0,001
1769,753	3	-0,002
1771,888	3	-0,002
1774,048	3	-0,002
1776,19	3	-0,003
1778,332	3	-0,004
1780,48	3	-0,005
1782,622	3	-0,01
1784,77	3	-0,014
1786,917	3	-0,018
1789,059	3	-0,02
1791,201	3	-0,038
1793,349	2,5	-0,034
1795,485	3	-0,048
1797,627	2	-0,086
1799,775	1,5	-0,15
1801,923	1,5	-0,222
1804,064	1,5	-0,271
1806,212	1,5	-0,164
1808,348	2	-0,122
1810,49	1,5	-0,158
1812,656	1,5	-0,14
1814,798	1,5	-0,168
1816,94	1,5	-0,24
1819,082	1	-0,353
1821,23	1	-0,454
1823,383	0,5	-0,513
1825,531	0,5	-0,534
1827,673	0,5	-0,574
1829,815	0,5	-0,608
1831,957	0,5	-0,648
1834,093	0	-0,84
1836,241	0	-0,881
1838,383	0	-0,944
1840,524	0	-1,004
1842,666	0	-1,103
1844,814	0	-1,193
1846,956	0	-1,296
1849,104	-0,5	-1,369
1851,246	-0,5	-1,361
1853,388	-0,5	-1,445
1855,536	0	-1,39
1857,677	-0,5	-1,44
1859,819	-0,5	-1,438
1861,961	0	-1,435
1864,109	-0,5	-1,392
1866,251	-0,5	-1,426
1868,399	-0,5	-1,496
1870,535	0	-1,479
1872,683	-0,5	-1,494
1874,83	-0,5	-1,569
1876,978	-0,5	-1,514
1879,12	-0,5	-1,534
1881,274	-0,5	-1,54
1883,41	-0,5	-1,584
1885,558	-0,5	-1,571
1887,7	-0,5	-1,559
1889,836	-1	-1,655
1891,978	-1	-1,795
1894,131	-1	-1,834
1896,267	-1,5	-1,845
1898,409	-1,5	-1,981
1900,551	-2	-2,005
1902,693	-1,5	-2,087
1904,835	-2	-2,137
1906,977	-3	-2,326
1909,119	-3,5	-2,51
1911,26	-3,5	-2,529
1913,402	-4	-2,584
1915,544	-4,5	-2,635
1917,692	-4,5	-2,719
1919,834	-4,5	-2,744
1921,976	-5	-2,784
1924,112	-5,5	-2,874
1926,26	-5,5	-2,868
1928,407	-6	-2,905
1930,549	-7	-3,025
1932,697	-7,5	-3,136
1934,839	-8	-3,059
1936,975	-7,5	-3,134
1939,123	-7,5	-3,166
1941,259	-7,5	-3,182
1943,401	-7,5	-3,132
1945,554	-7	-3,051
1947,696	-7,5	-3,141
1949,832	-7,5	-3,179
1951,98	-8	-3,31
1954,116	-8	-3,413
1956,258	-8	-3,432
1958,4	-8	-3,466
1960,542	-8	-3,5
1962,689	-8	-3,395
1964,837	-8	-3,37
1966,973	-8	-3,425
1969,115	-7,5	-3,432
1971,263	-7,5	-3,292
1973,411	-7,5	-3,343
1975,553	-7,5	-3,262
1977,695	-7,5	-3,343
1979,836	-7,5	-3,359
1981,984	-7,5	-3,419
1984,132	-7,5	-3,216
1986,274	-7,5	-3,24
1988,416	-7,5	-3,206
1990,558	-7,5	-3,229
1992,706	-7,5	-3,268
1994,842	-7,5	-3,223
1996,995	-7,5	-3,208
1999,137	-7,5	-3,29
2001,279	-7,5	-3,376
2003,421	-7,5	-3,352
2005,569	-7,5	-3,3
2007,711	-7,5	-3,466
2009,847	-7,5	-3,491
2011,995	-7,5	-3,5
2014,142	-7,5	-3,5
2016,284	-7,5	-3,5
2018,426	-7,5	-3,5
2020,568	-7,5	-3,5
2022,716	-7,5	-3,5
2024,858	-7,5	-3,496
2026,994	-7,5	-3,5
2029,142	-7,5	-3,5
2031,284	-7,5	-3,499
2033,419	-7,5	-3,499
2035,561	-7,5	-3,499
2037,703	-7,5	-3,499
2039,845	-7,5	-3,499
2041,987	-7	-3,499
2044,135	-7,5	-3,499
2046,271	-7,5	-3,498
2048,419	-7,5	-3,498
2050,584	-7	-3,498
2052,732	-7	-3,497
2054,874	-7	-3,496
2057,01	-7	-3,496
2059,152	-7	-3,496
2061,294	-7	-3,495
2063,442	-7	-3,495
2065,584	-7,5	-3,496
2067,725	-7	-3,494
2069,867	-7	-3,492
2072,009	-7	-3,489
2074,157	-7	-3,489
2076,293	-7	-3,485
2078,441	-7	-3,49
2080,577	-7	-3,489
2082,719	-7	-3,489
2084,866	-7	-3,487
2087,008	-7	-3,488
2089,15	-7	-3,488
2091,292	-7	-3,483
2093,434	-7	-3,476
2095,576	-6,5	-3,474
2097,724	-6,5	-3,476
2099,86	-6,5	-3,465
2102,002	-7	-3,471
2104,143	-6,5	-3,47
2106,285	-7	-3,485
2108,427	-7	-3,484
2110,569	-6,5	-3,483
2112,717	-7	-3,479
2114,859	-6,5	-3,479
2116,995	-6,5	-3,47
2119,137	-6	-3,45
2121,272	-6	-3,452
2123,414	-6	-3,45
2125,562	-6	-3,429
2127,704	-6	-3,441
2129,846	-6	-3,433
2131,994	-6	-3,436
2134,136	-6	-3,439
2136,284	-6,5	-3,455
2138,425	-6	-3,457
2140,573	-6,5	-3,466
2142,715	-6,5	-3,474
2144,857	-6,5	-3,484
2146,999	-6,5	-3,487
2149,135	-6,5	-3,491
2151,277	-6,5	-3,494
2153,419	-7	-3,496
2155,56	-6,5	-3,497
2157,696	-6,5	-3,497
2159,838	-6,5	-3,498
2161,986	-6,5	-3,498
2164,122	-6,5	-3,499
2166,264	-7	-3,499
2168,412	-6,5	-3,499
2170,554	-6,5	-3,5
2172,707	-6,5	-3,376
2174,849	-6,5	-3,253
2176,991	-6	-3,175
2179,133	-6	-3,096
2181,287	-5	-2,96
2183,423	-4,5	-2,886
2185,571	-3,5	-2,752
2187,713	-3	-2,626
2189,854	-2	-2,428
2191,996	-2	-2,41
2194,138	-1,5	-2,31
2196,286	-1,5	-2,182
2198,428	-1,5	-2,11
2200,57	-1,5	-2,089
2202,718	-1	-2,064
2204,866	-1	-1,952
2207,013	-0,5	-1,85
2209,161	0	-1,669
2211,303	0	-1,661
2213,445	0	-1,478
2215,593	0	-1,381
2217,735	0	-1,267
2219,877	0	-1,173
2222,025	0	-1,099
2224,166	0	-1,026
2226,308	0	-1,014
2228,45	0	-0,946
2230,598	0,5	-0,809
2232,746	0,5	-0,716
2234,888	1	-0,576
2237,036	1	-0,42
2239,178	1	-0,418
2241,32	1	-0,32
2243,467	1,5	-0,235
2245,609	1,5	-0,184
2247,751	1,5	-0,165
2249,899	1,5	-0,119
2252,041	1,5	-0,084
2254,183	2,5	-0,041
2256,331	2,5	-0,024
2258,473	2,5	-0,019
2260,614	2,5	-0,012
2262,756	2,5	-0,014
2264,904	3	-0,009
2267,046	3	-0,008
2269,194	3	-0,006
2271,336	3	-0,005
2273,484	3	-0,002
2275,626	3	-0,002
2277,773	3	-0,002
2279,915	3	-0,002
2282,057	2,5	-0,002
2284,205	3	-0,001
2286,353	3	-0,001
2288,495	2,5	0
2290,637	3	-0,001
2292,785	3	-0,093
2294,926	3	-0,137
2297,074	3	-0,233
2299,216	3	-0,301
2301,364	3	-0,34
2303,506	2,5	-0,432
2305,648	1	-0,58
2307,79	1	-0,591
2309,938	0,5	-0,721
2312,085	0	-0,871
2314,233	0	-1,052
2316,381	0	-1,09
2318,523	0	-1,109
2320,665	0	-1,138
2322,813	0	-1,314
2324,949	-0,5	-1,399
2327,091	-0,5	-1,481
2329,244	-0,5	-1,671
2331,386	-1	-1,855
2333,528	-1	-1,975
2335,67	-1	-2,062
2337,812	-1	-2,102
2339,954	-1	-2,179
2342,102	-1,5	-2,356
2344,244	-2	-2,428
2346,385	-2	-2,521
2348,533	-2	-2,579
2350,675	-2	-2,63
2352,823	-2	-2,647
2354,965	-2,5	-2,665
2357,107	-2,5	-2,743
2359,243	-2,5	-2,778
2361,397	-3	-2,964
2363,539	-3	-3,062
2365,686	-3,5	-3,147
2367,834	-4	-3,308
2369,982	-4	-3,343
2372,124	-4,5	-3,351
2374,266	-4,5	-3,383
2376,414	-4,5	-3,396
2378,556	-5	-3,418
2380,704	-5,5	-3,428
2382,851	-5,5	-3,449
2384,993	-5,5	-3,46
2387,135	-5,5	-3,468
2389,277	-5,5	-3,47
2391,419	-5,5	-3,471
2393,555	-5,5	-3,474
2395,697	-5,5	-3,479
2397,839	-6	-3,48
2399,98	-6	-3,483
2402,128	-6	-3,489
2404,27	-5,5	-3,491
2406,412	-6	-3,492
2408,56	-6	-3,494
2410,702	-6	-3,493
2412,856	-6	-3,495
2414,998	-6	-3,496
2417,139	-6	-3,497
2419,287	-6	-3,498
2421,429	-6	-3,498
2423,571	-5,5	-3,498
2425,719	-5,5	-3,499
2427,867	-5,5	-3,499
2430,003	-5,5	-3,5
2432,145	-6	-3,5
2434,293	-5,5	-3,475
2436,44	-5,5	-3,344
2438,582	-5,5	-3,202
2440,73	-5	-3,018
2442,872	-4,5	-2,956
2445,008	-4	-2,936
2447,15	-3	-2,747
2449,298	-2	-2,592
2451,44	-2	-2,474
2453,575	-2	-2,379
2455,717	-1,5	-2,295
2457,865	-1	-2,178
2460,013	-1	-2,07
2462,155	-1	-1,968
2464,297	-0,5	-1,912
2466,439	-0,5	-1,818
2468,587	-0,5	-1,685
2470,728	-0,5	-1,64
2472,876	0	-1,506
2475,018	0	-1,423
2477,154	0	-1,36
2479,296	0	-1,342
2481,444	0	-1,303
2483,58	0	-1,273
2485,722	0	-1,142
2487,869	0	-1,051
2490,005	0	-1,025
2492,147	0	-0,938
2494,295	0,5	-0,846
2496,437	0,5	-0,801
2498,579	0,5	-0,771
2500,721	0,5	-0,68
2502,863	0,5	-0,713
2505,01	0,5	-0,554
2507,152	1	-0,395
2509,294	1	-0,351
2511,442	1	-0,282
2513,584	1,5	-0,232
2515,726	1,5	-0,138
2517,88	2	-0,076
2520,028	2	-0,062
2522,169	2	-0,054
2524,311	2,5	-0,038
2526,453	2,5	-0,028
2528,595	2,5	-0,022
2530,731	2,5	-0,019
2532,879	2,5	-0,014
2535,021	2,5	-0,012
2537,163	2,5	-0,012
2539,299	2,5	-0,012
2541,446	2,5	-0,008
2543,588	3	-0,006
2545,736	2,5	-0,004
2547,884	3	-0,004
2550,026	2,5	-0,003
2552,168	2,5	-0,002
2554,31	2,5	-0,002
2556,464	3	-0,002
2558,605	2,5	-0,001
2560,747	2,5	-0,001
2562,889	2,5	0
2565,037	3	-0,006
2567,179	2,5	-0,121
2569,327	2,5	-0,29
2571,475	1,5	-0,446
2573,617	1,5	-0,502
2575,752	0,5	-0,608
2577,9	0,5	-0,7
2580,048	0,5	-0,774
2582,19	0	-0,952
2584,332	0	-1,024
2586,474	0	-1,096
2588,616	0	-1,131
2590,758	0	-1,229
2592,905	0	-1,352
2595,047	0	-1,403
2597,189	-0,5	-1,49
2599,337	0	-1,613
2601,485	-0,5	-1,699
2603,633	-0,5	-1,892
2605,769	-1	-1,976
2607,911	-1	-2,096
2610,058	-1	-2,223
2612,194	-1	-2,261
2614,336	-1,5	-2,377
2616,478	-1,5	-2,478
2618,62	-1,5	-2,556
2620,768	-2	-2,806
2622,91	-2	-2,851
2625,052	-2,5	-2,97
2627,199	-3	-3,099
2629,347	-3,5	-3,239
2631,483	-3	-3,255
2633,631	-4	-3,359
2635,779	-4	-3,383
2637,915	-4,5	-3,41
2640,063	-4,5	-3,434
2642,211	-5	-3,442
2644,353	-5	-3,449
2646,488	-5	-3,452
2648,624	-5	-3,462
2650,76	-5	-3,461
2652,908	-5	-3,476
2655,05	-5,5	-3,485
2657,192	-5	-3,486
2659,334	-5,5	-3,489
2661,476	-5,5	-3,492
2663,617	-5,5	-3,494
2665,759	-5,5	-3,494
2667,907	-5,5	-3,495
2670,049	-5	-3,497
2672,191	-5,5	-3,497
2674,339	-5,5	-3,498
2676,487	-5	-3,498
2678,629	-5	-3,498
2680,77	-5,5	-3,498
2682,918	-5,5	-3,499
2685,06	-5	-3,499
2687,202	-5,5	-3,499
2689,344	-5	-3,5
2691,486	-5	-3,394
2693,628	-5	-3,258
2695,77	-4,5	-3,152
2697,911	-4,5	-3,1
2700,059	-3,5	-2,951
2702,201	-3	-2,815
2704,337	-2,5	-2,8
2706,485	-2,5	-2,756
2708,633	-2	-2,585
2710,769	-1,5	-2,56
2712,917	-1,5	-2,351
2715,058	-1	-2,269
2717,194	-1	-2,269
2719,336	-0,5	-2,155
2721,478	-0,5	-2,105
2723,614	-0,5	-2,09
2725,762	-0,5	-2,035
2727,904	-0,5	-1,932
2730,046	0	-1,829
2732,193	0	-1,741
2734,335	0	-1,749
2736,483	-0,5	-1,776
2738,631	0	-1,675
2740,773	-0,5	-1,688
2742,915	0	-1,669
2745,063	0	-1,7
2747,211	0	-1,694
2749,359	0	-1,689
2751,494	-0,5	-1,725
2753,648	-0,5	-1,732
2755,79	0	-1,693
2757,926	0	-1,704
2760,068	0	-1,632
2762,216	0	-1,626
2764,352	0	-1,644
2766,494	0	-1,576
2768,641	0	-1,545
2770,795	0	-1,418
2772,937	0	-1,43
2775,079	0	-1,423
2777,221	0	-1,421
2779,363	0	-1,226
2781,505	0	-1,129
2783,647	0	-1,004
2785,794	0,5	-0,864
2787,942	0,5	-0,762
2790,078	0,5	-0,593
2792,22	0,5	-0,49
2794,362	0,5	-0,428
2796,504	1	-0,409
2798,646	1	-0,332
2800,794	1	-0,266
2802,935	1,5	-0,182
2805,083	1,5	-0,137
2807,225	1,5	-0,16
2809,367	1,5	-0,115
2811,503	1,5	-0,094
2813,651	1,5	-0,078
2815,793	2	-0,055
2817,929	2	-0,05
2820,076	2,5	-0,038
2822,218	2	-0,036
2824,36	2	-0,043
2826,502	2	-0,043
2828,65	2	-0,042
2830,798	2	-0,04
2832,946	2	-0,036
2835,088	2	-0,046
2837,229	2	-0,032
2839,371	2	-0,026
2841,519	2	-0,018
2843,661	2,5	-0,02
2845,803	2,5	-0,024
2847,951	2,5	-0,023
2850,093	2,5	-0,022
2852,235	2,5	-0,029
2854,376	2,5	-0,026
2856,524	2,5	-0,019
2858,666	2,5	-0,019
2860,808	2,5	-0,015
2862,956	2,5	-0,014
2865,098	2,5	-0,013
2867,24	2,5	-0,013
2869,388	2,5	-0,01
2871,536	2,5	-0,008
2873,677	3	-0,008
2875,813	2,5	-0,008
2877,961	2,5	-0,005
2880,115	2,5	-0,003
2882,257	2,5	-0,004
2884,405	2,5	-0,003
2886,547	2,5	-0,004
2888,695	3	-0,002
2890,836	2,5	-0,002
2892,978	2,5	-0,002
2895,12	2,5	-0,001
2897,268	2,5	-0,001
2899,41	2,5	-0,001
2901,546	2,5	0
2903,688	2,5	0
2905,842	2,5	0
2907,983	2,5	0
2910,125	2,5	0
2912,267	2,5	-0,001
2914,409	2,5	0
2916,557	2,5	0
2918,693	2,5	-0,001
2920,835	2,5	0
2922,977	2,5	-0,032
2925,118	2,5	-0,002
2927,26	2,5	-0,009
2929,402	2,5	0
2931,544	2,5	0
2933,686	2,5	0
2935,828	2,5	0
2937,97	2,5	-0,005
2940,124	2,5	-0,06
2942,265	2,5	-0,278
2944,407	2	-0,292
2946,549	1,5	-0,397
2948,697	1,5	-0,498
2950,845	1	-0,611
2952,993	0,5	-0,74
2955,135	0	-0,848
2957,277	0	-0,936
2959,418	0	-0,928
2961,56	0	-0,957
2963,702	0	-1,014
2965,856	0	-1,156
2967,998	0	-1,222
2970,134	0	-1,2
2972,282	0	-1,232
2974,424	0	-1,283
2976,571	0	-1,422
2978,713	0	-1,468
2980,855	0	-1,507
2982,997	0	-1,511
2985,145	0	-1,538
2987,287	0	-1,54
2989,429	0	-1,644
2991,571	0	-1,722
2993,719	-0,5	-1,753
2995,854	-0,5	-1,747
2998,002	0	-1,78
3000,144	-0,5	-1,765
3002,286	-0,5	-1,924
3004,428	-0,5	-1,979
3006,57	-0,5	-2,073
3008,718	-0,5	-2,097
3010,86	-0,5	-2,156
3013,001	-0,5	-2,255
3015,143	-0,5	-2,236
3017,285	-1	-2,233
3019,427	-1	-2,236
3021,575	-0,5	-2,215
3023,717	-0,5	-2,202
3025,865	-1	-2,314
3028,007	-1	-2,348
3030,154	-1	-2,344
3032,296	-1	-2,336
3034,432	-1	-2,282
3036,568	-1	-2,35
3038,716	-1	-2,394
3040,858	-1	-2,407
3043	-1	-2,41
3045,148	-1	-2,496
3047,295	-1	-2,581
3049,437	-1	-2,616
3051,579	-1,5	-2,698
3053,727	-1,5	-2,8
3055,875	-1,5	-2,865
3058,017	-2	-2,888
3060,159	-2	-2,929
3062,301	-2	-3,032
3064,442	-2	-3,067
3066,584	-2,5	-3,096
3068,72	-2,5	-3,102
3070,862	-3	-3,151
3073,01	-3	-3,242
3075,152	-3	-3,241
3077,294	-3	-3,264
3079,436	-3	-3,284
3081,578	-3,5	-3,336
3083,725	-3	-3,365
3085,873	-3,5	-3,386
3088,015	-3,5	-3,406
3090,157	-4	-3,405
3092,305	-4	-3,427
3094,447	-4,5	-3,463
3096,589	-4,5	-3,475
3098,731	-4,5	-3,479
3100,878	-4,5	-3,488
3103,026	-4,5	-3,49
3105,174	-4,5	-3,492
3107,316	-4,5	-3,493
3109,458	-4,5	-3,493
3111,606	-4,5	-3,494
3113,748	-4,5	-3,495
3115,884	-4,5	-3,496
3118,031	-5	-3,497
3120,179	-4,5	-3,498
3122,321	-4,5	-3,498
3124,463	-4,5	-3,498
3126,605	-4,5	-3,499
3128,741	-4,5	-3,499
3130,889	-4,5	-3,499
3133,031	-4,5	-3,499
3135,172	-4,5	-3,438
3137,314	-4,5	-3,376
3139,462	-4,5	-3,254
3141,604	-4,5	-3,23
3143,746	-4,5	-3,156
3145,894	-3,5	-3,096
3148,042	-3	-2,93
3150,184	-2,5	-2,906
3152,319	-3	-2,94
3154,461	-2,5	-2,884
3156,615	-2	-2,773
3158,757	-1,5	-2,722
3160,899	-2	-2,82
3163,041	-2,5	-2,813
3165,183	-2,5	-2,863
3167,325	-1,5	-2,653
3169,472	-1,5	-2,568
3171,614	-1,5	-2,586
3173,756	-1,5	-2,54
3175,898	-1,5	-2,544
3178,052	-1	-2,406
3180,2	-1	-2,347
3182,336	-1	-2,353
3184,49	-1	-2,274
3186,632	-0,5	-2,235
3188,779	-0,5	-2,155
3190,915	-0,5	-2,129
3193,057	0	-1,966
3195,205	-0,5	-1,96
3197,347	0	-1,884
3199,483	0	-1,846
3201,625	0	-1,85
3202,327	2	0