File: ensaios_Ciclicos/_50perc/_4gap/entrada/_4.txt
Time (s)	Load (N)	Displacement (mm)
0	0	-0,036
2,171	0	-0,268
4,289	0	-0,196
6,401	0,5	-0,066
8,513	0,5	0
10,625	0,5	-0,001
12,737	0,5	-0,001
14,849	1	-0,001
16,967	1	-0,002
19,079	1	-0,008
21,19	1	-0,009
23,308	1	-0,011
25,42	1	-0,015
27,544	1	-0,024
29,656	0,5	-0,022
31,768	1	-0,02
33,886	1	-0,025
36,01	0,5	-0,054
38,133	0,5	-0,056
40,251	1	-0,063
42,363	0,5	-0,075
44,475	0	-0,124
46,593	0	-0,142
48,723	0	-0,097
50,841	0,5	-0,111
52,959	0,5	-0,11
55,07	0,5	-0,122
57,182	0	-0,164
59,294	0	-0,15
61,412	0	-0,166
63,524	0	-0,238
65,636	-0,5	-0,3
67,748	0	-0,325
69,86	-0,5	-0,354
71,983	0	-0,256
74,107	0	-0,242
76,231	0	-0,148
78,355	0,5	-0,114
80,473	0,5	-0,094
82,585	1	-0,089
84,709	1	-0,094
86,827	1	-0,076
88,951	1	-0,068
91,068	1	-0,059
93,186	1	-0,056
95,31	1	-0,037
97,428	1,5	-0,034
99,54	1	-0,039
101,652	1	-0,039
103,764	1,5	-0,04
105,882	1	-0,038
108,005	1,5	-0,032
110,117	1	-0,045
112,247	1,5	-0,031
114,365	1,5	-0,033
116,489	1,5	-0,023
118,613	1,5	-0,018
120,725	1,5	-0,02
122,843	1,5	-0,02
124,967	1,5	-0,015
127,084	1,5	-0,012
129,196	1,5	-0,016
131,326	1,5	-0,012
133,444	1,5	-0,01
135,568	1,5	-0,008
137,686	1,5	-0,008
139,798	1,5	-0,008
141,916	1,5	-0,008
144,039	1,5	-0,007
146,151	1,5	-0,006
148,275	2	-0,005
150,393	1,5	-0,004
152,511	1,5	-0,004
154,623	1,5	-0,003
156,741	2	-0,002
158,858	1,5	-0,002
160,982	1,5	-0,002
163,1	1,5	-0,002
165,218	1,5	-0,002
167,336	1,5	-0,001
169,46	1,5	-0,001
171,59	1,5	0
173,708	1,5	-0,001
175,831	1,5	-0,031
177,943	1,5	-0,065
180,061	1,5	-0,09
182,173	1,5	-0,157
184,291	1,5	-0,152
186,415	1,5	-0,227
188,533	1,5	-0,27
190,645	1	-0,265
192,757	1,5	-0,24
194,868	1,5	-0,192
196,998	1,5	-0,275
199,116	1,5	-0,215
201,228	1,5	-0,201
203,358	1	-0,251
205,482	1,5	-0,142
207,6	1,5	-0,086
209,724	1,5	-0,132
211,836	1,5	-0,214
213,953	1,5	-0,142
216,071	1,5	-0,152
218,195	1,5	-0,078
220,325	1,5	-0,191
222,443	1,5	-0,138
224,555	1,5	-0,121
226,667	1,5	-0,13
228,796	1,5	-0,211
230,926	1,5	-0,342
233,044	1,5	-0,277
235,156	1,5	-0,268
237,274	1,5	-0,196
239,392	2	-0,18
241,522	1,5	-0,253
243,652	2	-0,291
245,776	1	-0,331
247,905	1	-0,397
250,029	1	-0,427
252,147	1,5	-0,336
254,265	1,5	-0,367
256,377	1,5	-0,369
258,495	1	-0,331
260,619	1,5	-0,388
262,749	1,5	-0,357
264,878	1,5	-0,374
267,002	1	-0,436
269,126	0,5	-0,52
271,256	0	-0,568
273,38	0	-0,694
275,504	0	-0,792
277,628	-0,5	-0,865
279,752	-1,5	-0,968
281,869	-1	-0,968
283,981	-1	-0,917
286,105	-1	-0,989
288,229	-1	-0,95
290,353	-0,5	-0,847
292,477	-0,5	-0,849
294,601	0	-0,794
296,719	0	-0,793
298,83	0	-0,732
300,954	0	-0,648
303,078	1,5	-0,476
305,196	1,5	-0,502
307,326	1	-0,572
309,438	1	-0,5
311,556	1	-0,531
313,668	1,5	-0,49
315,791	0,5	-0,541
317,909	0,5	-0,514
320,021	1,5	-0,446
322,145	1,5	-0,508
324,269	0	-0,661
326,393	0	-0,716
328,511	0	-0,71
330,623	0	-0,766
332,747	0	-0,848
334,864	0	-0,822
336,982	-0,5	-0,916
339,106	-0,5	-0,893
341,23	-1	-0,88
343,354	-1	-0,98
345,478	-1,5	-1,115
347,596	-1,5	-1,105
349,708	-1,5	-0,999
351,831	-1,5	-1,051
353,949	-1,5	-1,092
356,061	-1	-1,046
358,185	-1	-1,048
360,303	-1,5	-1,08
362,427	-1,5	-1,179
364,545	-1,5	-1,122
366,669	-1,5	-1,075
368,786	-1,5	-1,048
370,904	-0,5	-0,921
373,016	-0,5	-0,884
375,14	0	-0,861
377,252	0	-0,766
379,37	0	-0,702
381,488	0,5	-0,591
383,606	1	-0,483
385,723	2	-0,386
387,841	2	-0,366
389,959	2	-0,408
392,089	1,5	-0,409
394,213	1,5	-0,411
396,331	1,5	-0,464
398,443	1,5	-0,392
400,567	1,5	-0,398
402,697	1,5	-0,438
404,82	1,5	-0,382
406,938	1,5	-0,34
409,05	2	-0,304
411,174	1,5	-0,329
413,298	2	-0,331
415,422	2	-0,226
417,534	2,5	-0,232
419,646	2,5	-0,195
421,757	2	-0,152
423,881	2	-0,173
426,006	2	-0,192
428,123	2	-0,158
430,247	2	-0,202
432,371	2	-0,092
434,489	2	-0,036
436,613	2	-0,084
438,736	2	-0,119
440,854	2	-0,117
442,978	2	-0,108
445,09	2	-0,122
447,214	2	-0,096
449,338	2	0
451,462	2	0
453,586	2	-0,031
455,709	2	-0,09
457,833	2	-0,17
459,963	2	-0,223
462,081	2	-0,167
464,205	2	-0,254
466,329	1,5	-0,338
468,453	2	-0,34
470,577	2	-0,268
472,701	2	-0,341
474,818	1,5	-0,4
476,936	1,5	-0,394
479,054	1,5	-0,394
481,172	2	-0,302
483,296	2	-0,256
485,42	1,5	-0,308
487,544	2	-0,257
489,662	1,5	-0,376
491,779	1,5	-0,344
493,897	1,5	-0,294
496,009	1,5	-0,338
498,127	1,5	-0,365
500,251	1,5	-0,336
502,369	2	-0,136
504,493	2	0
506,611	2	0
508,729	2	-0,001
510,846	2	-0,001
512,97	2	-0,001
515,088	2,5	-0,002
517,2	2,5	-0,002
519,318	2	-0,001
521,436	2	-0,002
523,56	2	-0,002
525,677	2	-0,006
527,801	2	-0,006
529,925	2	-0,005
532,055	2	-0,007
534,173	2	-0,006
536,285	2	-0,008
538,403	2	-0,008
540,521	2	-0,008
542,633	2	-0,008
544,75	2,5	-0,004
546,862	2	-0,006
548,98	2	-0,004
551,098	2	-0,004
553,246	2	-0,002
555,376	2	-0,002
557,494	2	-0,001
559,624	2	-0,001
561,747	2	0
563,877	2	-0,005
565,995	2	-0,042
568,119	2	-0,142
570,237	2	-0,222
572,367	2,5	-0,266
574,485	2	-0,32
576,597	1,5	-0,321
578,714	1,5	-0,332
580,832	1,5	-0,364
582,956	1,5	-0,36
585,092	1,5	-0,451
587,21	1,5	-0,557
589,334	0	-0,624
591,464	0	-0,707
593,582	0	-0,716
595,7	0	-0,811
597,829	0	-0,961
599,953	-1	-1,066
602,083	-1	-1,141
604,207	-1,5	-1,15
606,331	-1,5	-1,195
608,455	-1,5	-1,245
610,573	-1,5	-1,246
612,709	-1,5	-1,42
614,839	-2,5	-1,559
616,962	-2,5	-1,578
619,086	-2,5	-1,624
621,21	-3	-1,74
623,334	-3,5	-1,805
625,452	-4	-1,9
627,576	-3,5	-1,922
629,694	-4	-1,951
631,805	-3	-1,798
633,923	-3	-1,776
636,047	-3,5	-1,86
638,165	-3,5	-1,928
640,289	-4	-1,888
642,413	-3,5	-1,902
644,531	-4	-1,955
646,655	-4	-1,985
648,772	-4	-1,979
650,896	-4	-1,993
653,02	-4	-2,033
655,138	-3,5	-1,942
657,256	-4	-2,032
659,374	-4	-2,021
661,486	-3,5	-2,04
663,61	-4	-1,978
665,727	-4	-2,005
667,851	-4,5	-2,103
669,975	-4,5	-2,116
672,093	-4,5	-2,202
674,205	-4,5	-2,24
676,329	-5	-2,27
678,447	-5,5	-2,301
680,571	-5	-2,341
682,695	-5,5	-2,397
684,812	-5,5	-2,455
686,93	-6	-2,488
689,054	-6,5	-2,612
691,167	-6,5	-2,598
693,284	-6,5	-2,662
695,402	-7,5	-2,746
697,52	-7,5	-2,804
699,65	-7,5	-2,752
701,767	-7,5	-2,757
703,879	-7,5	-2,838
705,997	-7,5	-2,817
708,121	-8,5	-2,974
710,233	-8,5	-2,991
712,357	-9	-3,095
714,475	-9	-3,079
716,599	-9,5	-3,131
718,722	-9	-3,112
720,834	-9	-3,071
722,964	-10	-3,131
725,082	-9,5	-3,146
727,2	-9	-3,092
729,324	-10	-3,154
731,448	-10	-3,194
733,566	-10	-3,194
735,683	-10,5	-3,224
737,801	-10	-3,258
739,919	-10,5	-3,332
742,043	-11,5	-3,334
744,155	-10,5	-3,311
746,267	-11	-3,286
748,397	-11,5	-3,366
750,515	-12	-3,38
752,645	-13	-3,415
754,768	-13	-3,428
756,886	-13	-3,43
759,016	-12,5	-3,428
761,134	-12,5	-3,439
763,252	-12,5	-3,426
765,376	-12,5	-3,44
767,494	-12	-3,423
769,618	-12	-3,43
771,747	-12,5	-3,432
773,865	-13	-3,439
775,995	-13	-3,45
778,113	-13	-3,458
780,237	-13	-3,458
782,355	-13	-3,456
784,473	-13	-3,462
786,597	-13	-3,473
788,708	-13,5	-3,474
790,832	-13,5	-3,474
792,944	-13	-3,466
795,062	-13,5	-3,464
797,18	-13	-3,466
799,298	-13,5	-3,462
801,422	-13,5	-3,466
803,54	-13,5	-3,467
805,664	-13	-3,462
807,787	-13	-3,464
809,905	-13,5	-3,475
812,029	-13	-3,475
814,147	-13	-3,475
816,271	-13,5	-3,479
818,401	-13,5	-3,482
820,525	-13,5	-3,482
822,649	-13,5	-3,485
824,766	-13,5	-3,488
826,884	-13,5	-3,491
828,996	-13,5	-3,49
831,114	-13,5	-3,49
833,238	-13,5	-3,491
835,35	-13,5	-3,49
837,468	-13,5	-3,491
839,598	-13,5	-3,492
841,715	-13,5	-3,491
843,839	-13,5	-3,493
845,957	-13,5	-3,493
848,075	-13,5	-3,494
850,193	-13,5	-3,494
852,305	-13,5	-3,494
854,423	-13,5	-3,494
856,541	-13,5	-3,494
858,658	-13,5	-3,495
860,782	-13,5	-3,497
862,906	-13,5	-3,497
865,03	-13,5	-3,497
867,154	-13,5	-3,497
869,272	-13,5	-3,497
871,396	-13,5	-3,498
873,508	-13,5	-3,498
875,631	-13,5	-3,498
877,749	-13,5	-3,498
879,873	-13,5	-3,498
881,985	-13,5	-3,497
884,109	-13,5	-3,497
886,227	-13,5	-3,498
888,357	-13,5	-3,498
890,481	-13,5	-3,498
892,599	-13,5	-3,499
894,723	-13,5	-3,499
896,84	-13,5	-3,499
898,952	-13,5	-3,499
901,07	-13,5	-3,499
903,2	-13,5	-3,5
905,318	-13,5	-3,5
907,436	-13,5	-3,5
909,554	-13,5	-3,491
911,677	-13,5	-3,471
913,789	-13,5	-3,445
915,913	-13,5	-3,338
918,037	-13,5	-3,284
920,155	-13,5	-3,23
922,273	-13	-3,186
924,385	-13,5	-3,245
926,503	-13,5	-3,196
928,614	-13	-3,146
930,738	-13	-3,036
932,856	-11,5	-2,972
934,974	-11	-2,93
937,086	-12	-2,945
939,216	-11	-2,933
941,328	-11,5	-2,914
943,452	-10,5	-2,901
945,57	-10,5	-2,875
947,693	-11	-2,936
949,805	-12,5	-3,042
951,929	-13	-3,254
954,041	-13	-3,433
956,165	-13,5	-3,332
958,283	-13,5	-3,279
960,413	-13	-3,182
962,531	-12,5	-3,115
964,66	-12	-3,042
966,778	-12,5	-3,118
968,896	-12,5	-3,119
971,02	-13	-3,115
973,138	-12	-3,062
975,262	-12,5	-3,102
977,38	-12,5	-3,07
979,504	-12	-3,046
981,627	-11,5	-3,011
983,746	-12,5	-3,091
985,857	-12,5	-3,074
987,987	-11	-2,97
990,105	-12,5	-3,084
992,229	-12	-3,082
994,347	-12	-3,07
996,465	-13	-3,13
998,576	-12,5	-3,085
1000,7	-13	-3,261
1002,828	-13	-3,296
1004,942	-13	-3,432
1007,06	-13,5	-3,497
1009,178	-13	-3,5
1011,296	-13	-3,499
1013,408	-13	-3,499
1015,531	-13	-3,5
1017,661	-13	-3,5
1019,779	-13	-3,5
1021,897	-13,5	-3,5
1024,021	-13	-3,499
1026,133	-13	-3,499
1028,251	-13	-3,499
1030,369	-13	-3,499
1032,487	-13	-3,499
1034,604	-13	-3,499
1036,722	-13	-3,499
1038,834	-13	-3,499
1040,958	-13	-3,499
1043,076	-13	-3,5
1045,2	-13	-3,5
1047,312	-13	-3,499
1049,43	-13	-3,5
1051,541	-13	-3,499
1053,659	-13	-3,499
1055,783	-13	-3,5
1057,895	-13	-3,499
1060,025	-13	-3,5
1062,149	-13	-3,5
1064,267	-13	-3,5
1066,391	-13	-3,499
1068,508	-13	-3,499
1070,62	-13	-3,499
1072,738	-13	-3,499
1074,856	-13	-3,499
1076,98	-13	-3,499
1079,092	-13	-3,499
1081,21	-13	-3,499
1083,328	-13	-3,498
1085,445	-13	-3,499
1087,563	-13	-3,498
1089,687	-13	-3,498
1091,811	-13	-3,498
1093,935	-13	-3,499
1096,059	-12,5	-3,499
1098,177	-13	-3,498
1100,289	-13	-3,498
1102,407	-13	-3,498
1104,518	-13	-3,497
1106,642	-13	-3,498
1108,754	-13	-3,497
1110,872	-13	-3,496
1112,99	-12,5	-3,496
1115,108	-12,5	-3,495
1117,22	-12,5	-3,494
1119,344	-12,5	-3,491
1121,455	-12,5	-3,486
1123,573	-12	-3,463
1125,691	-12	-3,468
1127,809	-12	-3,469
1129,933	-12,5	-3,474
1132,057	-12,5	-3,48
1134,181	-12,5	-3,479
1136,299	-12,5	-3,481
1138,423	-12,5	-3,475
1140,54	-12,5	-3,474
1142,664	-12,5	-3,483
1144,788	-12,5	-3,485
1146,906	-12,5	-3,482
1149,024	-12,5	-3,472
1151,136	-12	-3,476
1153,248	-12	-3,474
1155,378	-12	-3,475
1157,495	-12,5	-3,473
1159,613	-12	-3,47
1161,737	-12	-3,45
1163,861	-12	-3,446
1165,985	-12	-3,447
1168,109	-12	-3,461
1170,239	-12	-3,468
1172,357	-12	-3,46
1174,474	-12	-3,452
1176,592	-12	-3,462
1178,71	-12	-3,468
1180,834	-12	-3,477
1182,958	-12	-3,48
1185,076	-12	-3,48
1187,194	-12	-3,479
1189,306	-12	-3,476
1191,429	-12	-3,468
1193,547	-12	-3,468
1195,665	-12	-3,475
1197,783	-12	-3,478
1199,907	-12	-3,478
1202,025	-12	-3,484
1204,143	-12	-3,486
1206,261	-12	-3,49
1208,378	-12	-3,488
1210,502	-12	-3,488
1212,614	-12	-3,48
1214,732	-12	-3,479
1216,856	-12	-3,48
1218,974	-12	-3,475
1221,092	-11,5	-3,47
1223,21	-11,5	-3,463
1225,328	-11,5	-3,466
1227,457	-11,5	-3,46
1229,575	-11,5	-3,459
1231,687	-11,5	-3,461
1233,811	-11,5	-3,468
1235,935	-12	-3,471
1238,059	-12	-3,477
1240,183	-12	-3,482
1242,307	-12	-3,48
1244,424	-11,5	-3,475
1246,542	-12	-3,478
1248,666	-12	-3,48
1250,784	-11,5	-3,477
1252,914	-12	-3,478
1255,032	-11,5	-3,469
1257,15	-11,5	-3,452
1259,274	-11,5	-3,451
1261,385	-11	-3,438
1263,509	-11	-3,417
1265,627	-10,5	-3,396
1267,751	-10,5	-3,408
1269,869	-10	-3,382
1271,993	-9,5	-3,356
1274,111	-9,5	-3,335
1276,229	-9,5	-3,329
1278,352	-9,5	-3,325
1280,464	-9	-3,331
1282,588	-9,5	-3,336
1284,712	-9,5	-3,326
1286,83	-10	-3,381
1288,948	-10	-3,373
1291,072	-10	-3,369
1293,19	-9,5	-3,33
1295,302	-8	-3,2
1297,425	-8	-3,228
1299,549	-8,5	-3,206
1301,667	-8	-3,185
1303,797	-8	-3,24
1305,909	-8	-3,134
1308,033	-7,5	-3,091
1310,151	-7,5	-3,11
1312,275	-7,5	-3,114
1314,398	-7,5	-3,169
1316,51	-7,5	-3,138
1318,634	-8	-3,19
1320,758	-7,5	-3,198
1322,876	-8	-3,214
1325	-7,5	-3,201
1327,118	-8	-3,206
1329,242	-7,5	-3,162
1331,359	-7	-3,032
1333,477	-6	-2,896
1335,595	-6,5	-2,932
1337,713	-6	-2,868
1339,843	-5,5	-2,857
1341,961	-6	-2,857
1344,079	-6	-2,846
1346,203	-6	-2,897
1348,327	-6	-2,878
1350,45	-6	-2,908
1352,562	-6	-2,91
1354,68	-6	-2,92
1356,804	-6,5	-2,933
1358,928	-6	-2,916
1361,046	-5,5	-2,799
1363,164	-5,5	-2,74
1365,282	-5	-2,723
1367,405	-5,5	-2,684
1369,523	-5,5	-2,716
1371,647	-6	-2,83
1373,765	-5,5	-2,777
1375,889	-5,5	-2,785
1378,013	-5,5	-2,819
1380,137	-5,5	-2,855
1382,255	-5,5	-2,827
1384,378	-5	-2,697
1386,49	-5	-2,692
1388,614	-5	-2,712
1390,732	-5	-2,717
1392,862	-5	-2,719
1394,986	-5,5	-2,785
1397,098	-5,5	-2,815
1399,216	-5	-2,756
1401,327	-4,5	-2,651
1403,451	-5	-2,653
1405,569	-4,5	-2,556
1407,693	-4	-2,502
1409,817	-4,5	-2,538
1411,929	-4	-2,396
1414,047	-4	-2,331
1416,165	-4	-2,319
1418,282	-3,5	-2,292
1420,406	-3,5	-2,252
1422,518	-3	-2,159
1424,642	-3	-2,13
1426,754	-2,5	-2,015
1428,878	-3	-2,034
1431,002	-2,5	-2,026
1433,12	-2,5	-1,946
1435,238	-2,5	-1,892
1437,355	-2	-1,876
1439,473	-2	-1,796
1441,597	-2,5	-1,794
1443,715	-2	-1,751
1445,839	-1,5	-1,611
1447,957	-1,5	-1,572
1450,069	-1,5	-1,545
1452,193	-1	-1,465
1454,31	-1	-1,481
1456,434	-1	-1,49
1458,552	-1	-1,399
1460,67	-1	-1,362
1462,8	-0,5	-1,304
1464,912	-0,5	-1,22
1467,042	-0,5	-1,295
1469,16	-0,5	-1,241
1471,271	-0,5	-1,158
1473,395	-0,5	-1,242
1475,513	-0,5	-1,283
1477,637	-0,5	-1,254
1479,755	-0,5	-1,276
1481,873	-0,5	-1,291
1484,003	-0,5	-1,256
1486,121	-0,5	-1,232
1488,239	-0,5	-1,18
1490,356	-0,5	-1,084
1492,474	0	-1,02
1494,592	0	-0,945
1496,71	0	-0,96
1498,84	0	-0,913
1500,958	0	-0,775
1503,082	0	-0,842
1505,206	0	-0,802
1507,323	0	-0,748
1509,447	0,5	-0,742
1511,565	0,5	-0,714
1513,683	0,5	-0,671
1515,801	0,5	-0,663
1517,925	0,5	-0,727
1520,043	0	-0,753
1522,161	0	-0,758
1524,284	0	-0,782
1526,402	0	-0,712
1528,532	0	-0,714
1530,65	0,5	-0,708
1532,768	0,5	-0,7
1534,886	1,5	-0,559
1537,004	1,5	-0,436
1539,128	2	-0,331
1541,245	2,5	-0,165
1543,369	2,5	-0,026
1545,493	2	-0,003
1547,617	2,5	0
1549,735	2	0
1551,859	2,5	0
1553,977	2	0
1556,089	2,5	-0,001
1558,213	2,5	-0,001
1560,324	2,5	-0,001
1562,448	2,5	-0,001
1564,572	3	-0,001
1566,69	2,5	-0,001
1568,808	2,5	-0,001
1570,926	2,5	-0,001
1573,05	2,5	-0,001
1575,161	2,5	-0,002
1577,279	2,5	-0,002
1579,397	2,5	-0,002
1581,515	2,5	-0,002
1583,633	2,5	-0,002
1585,757	2,5	-0,002
1587,881	2,5	-0,002
1589,999	2,5	-0,002
1592,123	2,5	-0,002
1594,24	2,5	-0,002
1596,358	2,5	-0,002
1598,47	3	-0,002
1600,588	2,5	-0,002
1602,712	2,5	-0,002
1604,824	2,5	-0,002
1606,948	2,5	-0,002
1609,066	2,5	-0,004
1611,189	2,5	-0,004
1613,301	2,5	-0,004
1615,425	2,5	-0,004
1617,537	2,5	-0,006
1619,655	2,5	-0,006
1621,773	2,5	-0,007
1623,891	2,5	-0,008
1626,009	2,5	-0,008
1628,127	2,5	-0,008
1630,238	2,5	-0,009
1632,368	3	-0,007
1634,486	2,5	-0,007
1636,604	2,5	-0,008
1638,722	3	-0,008
1640,84	2,5	-0,009
1642,958	2,5	-0,011
1645,082	2,5	-0,011
1647,205	2,5	-0,009
1649,323	2,5	-0,01
1651,447	2,5	-0,01
1653,565	2,5	-0,013
1655,683	2,5	-0,016
1657,801	2,5	-0,017
1659,925	2,5	-0,018
1662,043	2,5	-0,015
1664,166	2,5	-0,018
1666,284	2,5	-0,017
1668,402	2,5	-0,019
1670,52	2,5	-0,023
1672,644	2,5	-0,028
1674,762	2	-0,029
1676,88	2,5	-0,032
1678,998	2	-0,036
1681,121	2,5	-0,034
1683,239	2,5	-0,03
1685,357	2	-0,032
1687,481	2	-0,043
1689,599	2	-0,047
1691,717	2	-0,062
1693,841	1,5	-0,049
1695,965	2	-0,045
1698,083	2	-0,057
1700,2	1,5	-0,058
1702,318	2	-0,051
1704,436	2	-0,042
1706,554	2,5	-0,037
1708,678	2,5	-0,04
1710,796	2	-0,034
1712,914	2	-0,036
1715,038	2	-0,026
1717,161	2,5	-0,028
1719,285	2,5	-0,019
1721,403	2,5	-0,021
1723,521	2,5	-0,024
1725,639	2	-0,021
1727,763	2,5	-0,023
1729,881	2,5	-0,018
1732,005	2,5	-0,013
1734,122	2,5	-0,01
1736,246	2,5	-0,008
1738,364	2,5	-0,008
1740,488	2,5	-0,007
1742,612	2,5	-0,006
1744,73	2,5	-0,006
1746,842	2,5	-0,004
1748,966	2,5	-0,004
1751,078	2,5	-0,005
1753,195	2,5	-0,005
1755,325	2,5	-0,004
1757,443	2,5	-0,004
1759,567	2,5	-0,003
1761,691	2,5	-0,002
1763,803	2,5	-0,002
1765,921	2,5	-0,002
1768,051	2,5	-0,002
1770,168	2,5	-0,002
1772,286	2,5	-0,001
1774,404	2,5	-0,001
1776,528	2,5	-0,001
1778,64	2,5	-0,001
1780,764	2,5	-0,001
1782,876	2,5	-0,001
1784,994	2,5	-0,002
1787,117	2,5	-0,001
1789,235	2	-0,001
1791,359	2,5	-0,001
1793,471	2,5	-0,001
1795,589	2,5	-0,001
1797,707	2,5	-0,001
1799,837	2,5	-0,001
1801,949	2,5	-0,001
1804,072	2,5	-0,001
1806,19	2,5	0
1808,308	2,5	0
1810,426	2,5	-0,003
1812,55	2,5	-0,012
1814,668	2,5	-0,009
1816,786	2,5	-0,012
1818,91	2,5	-0,007
1821,021	2,5	-0,042
1823,139	2,5	-0,103
1825,257	2,5	-0,11
1827,387	2,5	-0,258
1829,505	2,5	-0,308
1831,623	2,5	-0,242
1833,747	2,5	-0,212
1835,865	2,5	-0,184
1837,983	2,5	-0,211
1840,112	2	-0,331
1842,23	2,5	-0,336
1844,348	2,5	-0,33
1846,472	2	-0,327
1848,59	2,5	-0,301
1850,714	2	-0,3
1852,826	2,5	-0,262
1854,938	2,5	-0,242
1857,049	2,5	-0,163
1859,173	2,5	-0,242
1861,291	2,5	-0,247
1863,409	2,5	-0,284
1865,533	2	-0,32
1867,651	2	-0,362
1869,769	2,5	-0,309
1871,893	2	-0,366
1874,011	2,5	-0,289
1876,134	2	-0,298
1878,258	2	-0,361
1880,376	2	-0,344
1882,494	2,5	-0,328
1884,618	2,5	-0,315
1886,736	2	-0,373
1888,86	2	-0,344
1890,977	2	-0,36
1893,101	2	-0,346
1895,225	1,5	-0,441
1897,343	2	-0,445
1899,473	1,5	-0,505
1901,585	1	-0,635
1903,703	1,5	-0,527
1905,827	1,5	-0,574
1907,951	1	-0,602
1910,068	0,5	-0,683
1912,198	0	-0,78
1914,316	0	-0,8
1916,434	0	-0,79
1918,552	0	-0,731
1920,67	0,5	-0,688
1922,794	1	-0,611
1924,918	1	-0,603
1927,029	1,5	-0,487
1929,147	2	-0,418
1931,259	2,5	-0,317
1933,383	2	-0,465
1935,501	2	-0,421
1937,619	2	-0,368
1939,743	2	-0,344
1941,861	2,5	-0,36
1943,984	2	-0,443
1946,102	2,5	-0,288
1948,226	1,5	-0,404
1950,344	2	-0,435
1952,462	2	-0,412
1954,58	2,5	-0,326
1956,698	2,5	-0,262
1958,822	2,5	-0,33
1960,945	2	-0,305
1963,063	2,5	-0,19
1965,175	2,5	-0,186
1967,299	2,5	-0,26
1969,417	2,5	-0,189
1971,541	3	-0,269
1973,665	2,5	-0,201
1975,783	2,5	-0,184
1977,9	2,5	-0,137
1980,018	2,5	-0,176
1982,142	2,5	-0,224
1984,266	2,5	-0,195
1986,384	2,5	-0,176
1988,508	2,5	-0,175
1990,626	2,5	-0,208
1992,744	2,5	-0,157
1994,868	2,5	-0,206
1996,985	2,5	-0,114
1999,103	2,5	-0,032
2001,227	2,5	-0,037
2003,345	3	-0,015
2005,463	3	-0,078
2007,587	3	-0,027
2009,705	2,5	-0,027
2011,823	3	-0,001
2013,946	2,5	0
2016,07	2,5	0
2018,188	2,5	-0,053
2020,306	2,5	-0,026
2022,43	2,5	-0,002
2024,548	2,5	0
2026,666	2,5	0
2028,796	2,5	0
2030,914	2,5	0
2033,031	2,5	0
2035,161	2,5	-0,001
2037,303	2,5	-0,189
2039,421	2,5	-0,2
2041,533	2,5	-0,207
2043,657	2,5	-0,147
2045,775	2,5	-0,053
2047,892	2,5	-0,072
2050,016	2,5	-0,168
2052,134	2,5	-0,277
2054,252	2	-0,304
2056,382	2	-0,288
2058,5	2	-0,273
2060,618	2,5	-0,194
2062,742	2	-0,258
2064,86	2	-0,332
2066,983	2,5	-0,283
2069,107	2,5	-0,302
2071,219	2,5	-0,239
2073,337	2	-0,304
2075,455	2	-0,34
2077,573	2,5	-0,314
2079,697	2	-0,273
2081,815	2,5	-0,251
2083,938	2,5	-0,216
2086,056	2,5	-0,159
2088,18	2,5	-0,196
2090,298	2,5	-0,24
2092,422	2	-0,275
2094,54	2,5	-0,27
2096,658	2,5	-0,208
2098,788	2,5	-0,212
2100,905	2,5	-0,186
2103,029	2,5	-0,141
2105,147	2,5	-0,126
2107,265	2,5	-0,12
2109,383	2,5	-0,019
2111,507	2,5	-0,036
2113,625	2,5	-0,065
2115,749	2,5	-0,095
2117,872	2,5	-0,2
2119,99	2,5	-0,142
2122,108	2,5	-0,136
2124,226	2,5	-0,168
2126,35	2,5	-0,078
2128,474	2,5	-0,11
2130,592	2,5	-0,159
2132,71	2,5	-0,192
2134,828	2,5	-0,17
2136,945	2,5	-0,136
2139,069	2,5	-0,237
2141,193	2	-0,318
2143,311	2	-0,361
2145,43	2	-0,418
2147,553	1,5	-0,475
2149,671	1	-0,624
2151,795	0,5	-0,638
2153,924	0,5	-0,676
2156,042	0,5	-0,692
2158,154	0,5	-0,607
2160,272	1	-0,618
2162,396	1	-0,61
2164,508	0,5	-0,702
2166,626	0,5	-0,756
2168,75	0	-0,876
2170,873	0	-0,942
2172,985	0	-0,96
2175,103	0	-0,986
2177,227	0	-1,021
2179,345	0	-1,011
2181,463	0	-1,014
2183,587	0	-1,091
2185,705	0	-1,071
2187,823	0	-1,049
2189,946	0	-1,029
2192,064	0	-0,999
2194,182	0	-0,966
2196,3	0	-1,025
2198,418	0	-1,013
2200,542	0	-1,064
2202,66	0	-1,047
2204,784	0	-1,024
2206,901	0	-1,104
2209,019	0	-1,093
2211,149	0	-1,12
2213,267	0	-1,124
2215,379	0	-1,032
2217,503	0	-1,103
2219,621	0	-1,162
2221,739	0	-1,14
2223,862	0	-1,147
2225,98	0	-1,073
2228,104	0	-1,018
2230,222	0	-0,889
2232,346	0	-0,828
2234,464	0	-0,833
2236,582	0	-0,754
2238,7	0,5	-0,742
2240,823	0,5	-0,644
2242,947	1	-0,563
2245,071	1	-0,554
2247,201	1	-0,62
2249,319	1	-0,582
2251,431	1,5	-0,472
2253,543	1,5	-0,42
2255,667	1,5	-0,407
2257,779	2	-0,334
2259,896	2	-0,312
2262,02	2,5	-0,266
2264,132	2,5	-0,191
2266,25	2,5	-0,202
2268,368	2	-0,278
2270,492	2,5	-0,227
2272,616	2,5	-0,234
2274,734	2	-0,294
2276,857	2	-0,329
2278,975	2	-0,335
2281,093	2	-0,312
2283,211	2	-0,269
2285,329	2	-0,3
2287,447	2	-0,247
2289,559	2,5	-0,17
2291,683	2	-0,196
2293,8	2,5	-0,058
2295,918	2,5	-0,089
2298,036	2	-0,031
2300,154	2,5	-0,015
2302,272	2,5	-0,042
2304,39	2	0
2306,514	2,5	0
2308,638	2,5	0
2310,755	2	-0,042
2312,873	2,5	-0,032
2314,991	2,5	0
2317,103	2,5	0
2319,221	2	-0,004
2321,339	2,5	0
2323,457	2,5	0
2325,575	2,5	0
2327,693	2,5	0
2329,81	2	0
2331,928	2,5	0
2334,046	2,5	-0,09
2336,17	2,5	-0,083
2338,282	2,5	-0,084
2340,406	2,5	-0,019
2342,524	2	-0,006
2344,648	2	0
2346,765	2	-0,002
2348,883	2,5	-0,002
2351,013	2,5	-0,121
2353,131	2,5	-0,102
2355,249	2,5	-0,077
2357,373	2,5	-0,165
2359,491	2,5	-0,204
2361,609	2,5	-0,216
2363,726	2	-0,308
2365,856	2,5	-0,276
2367,98	2	-0,252
2370,098	2,5	-0,208
2372,222	2,5	-0,212
2374,34	2	-0,205
2376,458	2,5	-0,036
2378,576	2,5	-0,031
2380,706	2,5	-0,007
2382,823	2,5	0
2384,941	2,5	-0,001
2387,059	2,5	-0,001
2389,183	2,5	-0,001
2391,307	2	-0,001
2393,425	2,5	-0,001
2395,543	2	-0,001
2397,667	2,5	-0,001
2399,784	2,5	-0,001
2401,902	2,5	-0,002
2404,032	2,5	-0,002
2406,156	2,5	-0,002
2408,274	2,5	-0,002
2410,392	2,5	-0,002
2412,51	2,5	-0,002
2414,628	2,5	-0,003
2416,745	2,5	-0,003
2418,863	2,5	-0,004
2420,981	2,5	-0,002
2423,099	2,5	-0,002
2425,217	2,5	-0,002
2427,335	2	-0,002
2429,459	2	-0,002
2431,577	2,5	-0,002
2433,694	2	-0,002
2435,818	2,5	-0,002
2437,93	2,5	-0,002
2440,042	2,5	-0,002
2442,16	2,5	-0,003
2444,284	2,5	-0,003
2446,402	2,5	-0,002
2448,52	2,5	-0,002
2450,638	2,5	-0,002
2452,761	2,5	-0,002
2454,885	2,5	-0,001
2457,003	2,5	-0,001
2459,121	2	-0,002
2461,245	2,5	-0,001
2463,363	2,5	-0,001
2465,481	2,5	-0,001
2467,599	2,5	-0,001
2469,722	2,5	-0,001
2471,84	2	-0,001
2473,958	2	-0,001
2476,082	2,5	-0,001
2478,2	2,5	-0,001
2480,318	2,5	-0,001
2482,436	2,5	-0,001
2484,56	2	-0,001
2486,677	2	-0,001
2488,801	2,5	-0,001
2490,919	2	-0,001
2493,043	2,5	-0,001
2495,167	2	-0,001
2497,285	2	-0,001
2499,415	2,5	-0,001
2501,533	2	-0,001
2503,656	2	-0,001
2505,774	2	-0,001
2507,892	2	-0,001
2510,01	2	-0,001
2512,128	2	-0,001
2514,246	2	-0,001
2516,37	2,5	-0,001
2518,488	2,5	-0,002
2520,612	2,5	-0,002
2522,729	2,5	-0,001
2524,859	2,5	-0,001
2526,977	2,5	-0,002
2529,095	2	-0,002
2531,213	2	-0,001
2533,337	2,5	-0,002
2535,455	2	-0,002
2537,573	2	-0,002
2539,702	2	-0,002
2541,82	2,5	-0,002
2543,938	2	-0,002
2546,05	2	-0,002
2548,18	2,5	-0,002
2550,298	2	-0,002
2552,422	2	-0,002
2554,54	2	-0,002
2556,669	2,5	-0,001
2558,793	2,5	-0,001
2560,911	2,5	-0,002
2563,029	2,5	-0,002
2565,153	2,5	-0,002
2567,271	2,5	-0,002
2569,389	2	-0,002
2571,513	2	-0,001
2573,63	2	-0,001
2575,748	2	-0,001
2577,866	2	-0,001
2579,996	2	-0,001
2582,114	2	-0,001
2584,232	2	-0,001
2586,35	2	-0,001
2588,474	2,5	-0,001
2590,591	2	-0,001
2592,709	2,5	-0,002
2594,833	2	-0,002
2596,951	2,5	-0,002
2599,069	2	-0,001
2601,187	2	-0,001
2603,311	2	-0,001
2605,429	2	-0,001
2607,547	2	-0,001
2609,664	2	-0,002
2611,794	2	-0,001
2613,912	2	-0,002
2616,03	2	-0,002
2618,148	2	-0,003
2620,26	2	-0,003
2622,372	2	-0,004
2624,49	2	-0,003
2626,607	2	-0,004
2628,725	2	-0,005
2630,855	2,5	-0,005
2632,973	2	-0,005
2635,091	2	-0,006
2637,209	2	-0,006
2639,333	2	-0,006
2641,451	2,5	-0,006
2643,575	2	-0,004
2645,698	2	-0,004
2647,816	2	-0,005
2649,934	2,5	-0,006
2652,052	2	-0,006
2654,17	2	-0,008
2656,288	2,5	-0,009
2658,406	2,5	-0,012
2660,523	2,5	-0,013
2662,647	2	-0,012
2664,771	2,5	-0,012
2666,895	2,5	-0,01
2669,007	2,5	-0,011
2671,119	2	-0,012
2673,237	2,5	-0,013
2675,361	2	-0,013
2677,473	2	-0,014
2679,602	2	-0,012
2681,72	2	-0,012
2683,832	2	-0,012
2685,95	2	-0,012
2688,074	2	-0,012
2690,192	2	-0,011
2692,31	2	-0,01
2694,428	2,5	-0,01
2696,551	2	-0,012
2698,663	2	-0,014
2700,781	2	-0,016
2702,899	2	-0,016
2705,023	2	-0,012
2707,141	2	-0,01
2709,259	2	-0,011
2711,377	2	-0,008
2713,5	2	-0,008
2715,612	2	-0,009
2717,724	2,5	-0,01
2719,842	2	-0,011
2721,96	2	-0,013
2724,078	2	-0,014
2726,19	2	-0,016
2728,302	2	-0,018
2730,42	2	-0,016
2732,531	2	-0,017
2734,649	2	-0,015
2736,773	2	-0,01
2738,891	2,5	-0,01
2741,009	2	-0,011
2743,127	2,5	-0,011
2745,245	2	-0,01
2747,363	2	-0,009
2749,48	2,5	-0,006
2751,604	2,5	-0,005
2753,722	2	-0,006
2755,846	2,5	-0,005
2757,964	2	-0,005
2760,082	2	-0,006
2762,194	2,5	-0,005
2764,318	2,5	-0,006
2766,435	2	-0,007
2768,553	2,5	-0,005
2770,665	2,5	-0,006
2772,789	2	-0,005
2774,913	2,5	-0,003
2777,031	2,5	-0,003
2779,149	2,5	-0,002
2781,273	2,5	-0,002
2783,396	2,5	-0,001
2785,52	2,5	-0,002
2787,638	2	-0,001
2789,762	2	-0,001
2791,88	2	0
2794,004	2,5	0
2796,122	2	0
2798,24	2	-0,003
2800,363	2,5	-0,012
2802,481	2	-0,077
2804,599	2,5	-0,11
2806,711	2,5	-0,213
2808,835	2	-0,196
2810,959	2,5	-0,212
2813,077	2	-0,19
2815,195	2	-0,148
2817,319	2	-0,192
2819,442	2	-0,228
2821,56	2	-0,207
2823,678	2	-0,282
2825,796	2	-0,356
2827,914	2	-0,39
2830,032	1,5	-0,441
2832,15	1,5	-0,399
2834,274	1,5	-0,434
2836,391	1,5	-0,37
2838,509	1,5	-0,438
2840,628	1,5	-0,517
2842,745	1,5	-0,512
2844,863	1,5	-0,511
2846,981	1,5	-0,463
2849,105	1,5	-0,476
2851,217	2	-0,402
2853,34	1,5	-0,417
2855,458	1,5	-0,512
2857,576	1	-0,551
2859,688	1	-0,498
2861,812	1	-0,533
2863,93	0,5	-0,576
2866,048	0,5	-0,602
2868,166	1,5	-0,585
2870,29	0,5	-0,577
2872,413	1	-0,565
2874,531	1	-0,548
2876,643	1,5	-0,534
2878,767	1	-0,532
2880,885	1,5	-0,436
2883,003	1,5	-0,456
2885,115	1,5	-0,474
2887,233	1,5	-0,511
2889,356	1,5	-0,519
2891,474	1,5	-0,502
2893,592	1	-0,556
2895,716	0,5	-0,643
2897,846	0,5	-0,693
2899,964	1	-0,633
2902,082	0,5	-0,671
2904,206	0	-0,716
2906,329	0	-0,772
2908,447	0,5	-0,815
2910,565	0	-0,867
2912,683	0	-0,878
2914,813	0	-0,932
2916,925	0	-0,917
2919,043	0	-0,938
2921,161	0	-0,89
2923,285	0	-0,912
2925,402	0	-0,909
2927,52	0	-0,897
2929,638	0	-0,913
2931,762	0	-0,938
2933,874	0	-0,848
2935,992	0	-0,8
2938,11	0	-0,848
2940,234	0	-0,936
2942,351	0	-0,952
2944,475	0	-1,014
2946,593	0	-1,028
2948,711	0	-1,092
2950,835	0	-1,18
2952,959	0	-1,22
2955,083	0	-1,271
2957,201	0	-1,246
2959,318	0	-1,207
2961,436	0	-1,238
2963,554	0	-1,207
2965,672	0	-1,173
2967,796	0	-1,182
2969,92	0	-1,222
2972,038	0	-1,28
2974,15	0	-1,239
2976,267	0	-1,25
2978,379	0	-1,214
2980,503	0	-1,275
2982,621	0	-1,286
2984,739	0	-1,248
2986,851	0	-1,153
2988,969	0	-1,263
2991,093	0	-1,295
2993,21	0	-1,316
2995,328	0	-1,327
2997,446	0	-1,4
2999,57	0	-1,371
3001,688	0	-1,35
3003,812	0	-1,358
3005,93	0	-1,374
3008,06	0	-1,481
3010,178	0	-1,47
3012,296	0	-1,47
3014,413	0	-1,481
3016,537	0	-1,483
3018,661	0	-1,529
3020,779	0	-1,55
3022,897	-0,5	-1,64
3025,015	-0,5	-1,633
3027,139	-0,5	-1,657
3029,256	-0,5	-1,626
3031,38	-0,5	-1,639
3033,498	-0,5	-1,56
3035,616	0	-1,559
3037,734	0	-1,537
3039,858	-0,5	-1,53
3041,976	0	-1,46
3044,088	0	-1,339
3046,211	0	-1,364
3048,329	0	-1,321
3050,447	0	-1,357
3052,571	0	-1,334
3054,695	0	-1,347
3056,807	0	-1,312
3058,925	0	-1,343
3061,043	0	-1,392
3063,161	0	-1,374
3065,284	0	-1,341
3067,402	0	-1,234
3069,52	0	-1,201
3071,644	0	-1,108
3073,762	0	-1,034
3075,892	0	-1,104
3078,01	0	-1,104
3080,128	0	-1,157
3082,245	0	-1,125
3084,357	0	-1,105
3086,475	0	-1,088
3088,587	0	-1,09
3090,705	0	-1,073
3092,823	0	-1,147
3094,947	0	-1,129
3097,065	0	-0,996
3099,188	0	-1,004
3101,306	0	-1,009
3103,43	0	-1,064
3105,548	0	-1,112
3107,666	0	-1,097
3109,784	0	-1,139
3111,908	0	-1,227
3114,032	0	-1,203
3116,149	0	-1,181
3118,267	0	-1,191
3120,391	0	-1,194
3122,509	0	-1,252
3124,633	0	-1,331
3126,751	0	-1,356
3128,869	0	-1,42
3130,987	0	-1,409
3133,099	0	-1,411
3135,216	0	-1,437
3137,334	0	-1,462
3139,452	0	-1,446
3141,57	-0,5	-1,495
3143,694	0	-1,45
3145,818	0	-1,496
3147,942	0	-1,461
3150,066	0	-1,464
3152,177	0	-1,364
3154,301	0	-1,341
3156,419	0	-1,218
3158,537	0	-1,175
3160,661	0	-1,13
3162,779	0	-1,024
3164,903	0	-1,016
3167,015	0	-0,975
3169,132	0	-0,942
3171,25	0	-0,911
3173,368	0	-0,867
3175,498	0	-0,912
3177,616	0	-0,896
3179,566	2	0