File: ensaios_Ciclicos/_40perc/_4gap/entrada/_1.txt
Time (s)	Load (N)	Displacement (mm)
36,225	1	-0,001
38,193	1	-0,013
40,167	0	-0,117
42,141	-3,5	-0,793
44,115	-7,5	-1,481
46,095	-14	-2,204
48,069	-21	-3,105
50,036	-21,5	-3,498
52,004	-21	-3,486
53,972	-18	-3,352
55,948	-11	-2,486
57,92	-5,5	-1,697
59,889	-1,5	-0,78
61,862	1,5	-0,001
63,829	1,5	-0,008
65,798	0,5	-0,078
67,777	-1,5	-0,532
69,757	-5	-1,149
71,731	-9,5	-1,82
73,717	-14,5	-2,454
75,691	-21	-3,186
77,659	-21	-3,498
79,639	-21	-3,49
81,607	-18,5	-3,394
83,574	-10,5	-2,562
85,548	-5,5	-1,651
87,522	-3	-1,016
89,496	1,5	-0,255
91,485	1,5	-0,002
93,456	1,5	-0,018
95,431	0	-0,26
97,41	-4,5	-1,133
99,384	-9	-1,83
101,351	-15	-2,608
103,337	-20,5	-3,29
105,317	-20,5	-3,498
107,297	-20	-3,476
109,271	-15,5	-3,284
111,245	-9,5	-2,392
113,225	-5	-1,611
115,199	-1	-0,806
117,167	1,5	-0,001
119,146	1,5	-0,017
121,126	0	-0,195
123,094	-3,5	-0,973
125,068	-9	-1,884
127,042	-16,5	-2,861
129,01	-20	-3,499
130,99	-20	-3,494
132,964	-18	-3,394
134,944	-11,5	-2,702
136,917	-5,5	-1,748
138,909	-1,5	-0,857
140,883	1,5	0
142,865	1,5	-0,008
144,843	0,5	-0,152
146,829	-3	-0,904
148,815	-7	-1,616
150,795	-12,5	-2,371
152,763	-19,5	-3,467
154,748	-19,5	-3,496
156,734	-19	-3,46
158,714	-13,5	-3,064
160,694	-7	-2,166
162,692	-3	-1,278
164,672	1,5	-0,369
166,66	1,5	-0,002
168,638	1,5	-0,032
170,623	-0,5	-0,432
172,603	-3,5	-1,175
174,583	-10	-2,127
176,569	-18,5	-3,065
178,549	-19,5	-3,499
180,523	-19	-3,48
218,741	-5	-1,776
220,709	-1,5	-0,887
222,688	1,5	-0,036
224,668	1,5	-0,004
226,654	1,5	-0,071
228,622	-1,5	-0,764
230,608	-6	-1,616
232,594	-10,5	-2,346
234,574	-19	-3,291
236,542	-19	-3,498
238,528	-18,5	-3,476
240,508	-13,5	-3,153
242,487	-7,5	-2,267
244,467	-3,5	-1,422
246,453	0	-0,587
248,439	1,5	-0,001
250,413	2	-0,013
252,387	0	-0,3
254,361	-3,5	-1,201
256,329	-9,5	-2,148
258,308	-18	-3,069
260,288	-19	-3,499
262,288	-18,5	-3,488
264,272	-15	-3,335
266,252	-9	-2,471
268,238	-4,5	-1,646
270,212	-0,5	-0,717
272,186	2	0
274,178	2	-0,008
276,157	1	-0,114
278,137	-1,5	-0,823
280,123	-6,5	-1,764
282,115	-12,5	-2,59
284,095	-18,5	-3,48
286,081	-18,5	-3,496
288,055	-17,5	-3,449
290,035	-12	-2,998
292,021	-6	-2,094
293,994	-2,5	-1,139
295,975	1,5	-0,298
297,96	2	-0,002
299,952	2	-0,044
301,926	-1	-0,64
303,906	-5	-1,559
305,886	-11	-2,345
307,866	-18,5	-3,235
309,852	-18	-3,498
311,849	-18	-3,482
313,823	-13	-3,194
315,803	-7,5	-2,329
317,783	-3	-1,331
319,763	1	-0,453
321,743	2	-0,002
323,729	2	-0,022
325,71	0	-0,356
327,694	-3	-1,183
329,674	-8	-2,08
331,654	-15	-2,925
333,634	-18	-3,499
335,614	-18	-3,488
337,594	-13,5	-3,254
339,574	-9	-2,546
341,554	-4	-1,638
343,54	-0,5	-0,781
345,519	2	0
347,493	2	-0,014
349,473	0,5	-0,223
351,447	-1,5	-1,023
353,427	-7	-1,958
355,41	-13,5	-2,813
357,387	-18	-3,5
359,373	-17,5	-3,495
361,359	-16,5	-3,433
399,624	-3	-1,326
401,604	1	-0,449
403,596	2,5	-0,002
405,582	2	-0,032
407,568	0	-0,441
409,554	-3,5	-1,405
411,534	-10	-2,382
413,508	-17,5	-3,402
415,499	-17,5	-3,498
417,485	-17	-3,472
419,471	-12	-3,062
421,457	-6	-2,131
423,431	-3	-1,32
425,423	1	-0,438
427,397	2	-0,002
429,371	2	-0,024
431,357	0	-0,458
433,336	-2,5	-1,19
435,316	-9	-2,216
437,296	-17	-3,191
439,288	-17,5	-3,499
441,274	-17	-3,485
443,26	-14,5	-3,33
445,24	-8,5	-2,573
447,232	-4	-1,687
449,211	0	-0,743
451,197	2,5	0
453,183	2	-0,012
455,163	1,5	-0,098
457,149	-1	-0,849
459,13	-5,5	-1,769
461,121	-12	-2,666
463,107	-17	-3,472
465,081	-17,5	-3,496
467,072	-16,5	-3,455
469,053	-10,5	-2,884
471,032	-5	-2,006
473,012	-2,5	-1,253
474,992	1,5	-0,376
476,978	2,5	-0,002
478,964	2	-0,027
480,962	0	-0,42
482,936	-3,5	-1,422
484,927	-8	-2,202
486,907	-17	-3,165
488,893	-17	-3,498
490,873	-16,5	-3,484
492,853	-12	-3,188
494,839	-6,5	-2,305
496,825	-3	-1,452
498,805	1,5	-0,465
500,779	2,5	-0,002
502,764	2	-0,026
504,744	0	-0,398
506,73	-3	-1,302
508,71	-9,5	-2,238
510,69	-15,5	-2,992
512,67	-17	-3,499
514,656	-17	-3,487
516,636	-13,5	-3,3
518,616	-6,5	-2,34
520,595	-3,5	-1,585
522,581	0	-0,66
524,561	2	-0,001
526,547	2	-0,02
528,521	0	-0,372
530,507	-3	-1,23
532,487	-8	-2,139
534,473	-15,5	-2,996
536,453	-17	-3,499
538,432	-16,5	-3,492
540,412	-14,5	-3,401
542,392	-7,5	-2,557
544,366	-3	-1,564
546,334	-0,5	-0,814
548,32	2	0
550,306	2	-0,007
552,286	1	-0,118
554,259	-1	-0,836
556,245	-5	-1,667
558,231	-10,5	-2,38
560,211	-16,5	-3,156
562,191	-17	-3,498
564,177	-16,5	-3,477
566,163	-13	-3,319
568,155	-7,5	-2,473
570,135	-3	-1,497
572,114	0	-0,602
574,106	2	-0,001
576,086	2	-0,011
578,078	1,5	-0,068
580,052	-0,5	-0,718
582,038	-4,5	-1,641
584,024	-10,5	-2,44
586,01	-16,5	-3,161
587,99	-16,5	-3,498
589,976	-16,5	-3,486
591,949	-12,5	-3,309
593,935	-8	-2,633
595,915	-5	-2,024
597,901	-2,5	-1,289
599,881	1,5	-0,507
601,861	2,5	-0,001
603,841	2	-0,017
605,827	1	-0,148
607,806	-2	-1,056
609,78	-6	-1,937
611,766	-13,5	-2,768
613,746	-16,5	-3,5
615,738	-16,5	-3,492
653,956	-3	-1,492
655,936	1,5	-0,434
657,916	2	-0,002
659,895	2	-0,045
661,869	-0,5	-0,59
663,849	-4	-1,594
665,835	-9	-2,324
667,815	-16,5	-3,366
669,795	-16,5	-3,497
671,769	-15,5	-3,444
673,755	-9,5	-2,913
675,741	-5,5	-2,216
677,708	-2	-1,178
679,694	2	-0,2
681,674	2,5	-0,004
683,666	1,5	-0,07
685,646	-0,5	-0,773
687,638	-5	-1,749
689,612	-13	-2,82
691,598	-16,5	-3,499
693,578	-16,5	-3,491
695,557	-12	-3,26
697,543	-5,5	-2,333
699,529	-3	-1,429
701,515	1,5	-0,464
703,495	2	-0,002
705,475	2	-0,025
707,461	0	-0,409
709,435	-3	-1,336
711,421	-8,5	-2,214
713,4	-16	-3,216
715,386	-16,5	-3,498
717,36	-15,5	-3,459
719,346	-10	-2,962
721,332	-5,5	-2,163
723,306	-2	-1,225
725,292	1,5	-0,41
727,272	2	-0,002
729,251	2	-0,037
731,231	0	-0,484
733,205	-2,5	-1,273
735,197	-6	-1,909
737,171	-12	-2,773
739,169	-16	-3,476
741,149	-16,5	-3,496
743,129	-15,5	-3,458
745,109	-10,5	-3,049
747,094	-5,5	-2,224
749,068	-2,5	-1,376
751,048	1,5	-0,317
753,03	2	-0,003
755,008	2	-0,051
756,976	0	-0,56
758,962	-3	-1,364
760,942	-7	-2,144
762,916	-14	-2,92
764,895	-16	-3,499
766,881	-16	-3,494
768,855	-15	-3,43
770,835	-9,5	-2,956
772,821	-5,5	-2,126
774,801	-3	-1,403
776,775	0,5	-0,598
778,755	2	-0,001
780,729	2,5	-0,01
782,708	1	-0,124
784,688	-0,5	-0,749
786,668	-3,5	-1,516
788,648	-8,5	-2,279
790,628	-15	-3,066
792,608	-16	-3,499
794,588	-15,5	-3,489
796,568	-13,5	-3,382
798,548	-8	-2,729
800,527	-4,5	-2,023
802,513	-2	-1,225
804,493	1,5	-0,459
806,479	2,5	-0,001
808,453	2	-0,012
810,439	1,5	-0,075
812,419	0	-0,631
814,399	-3	-1,439
816,385	-7,5	-2,221
818,364	-14	-2,969
820,344	-15,5	-3,499
822,33	-15,5	-3,491
824,304	-14	-3,397
826,29	-8	-2,727
828,27	-4,5	-1,983
830,244	-2	-1,183
832,224	1,5	-0,407
834,204	2,5	-0,001
836,183	2,5	-0,017
838,163	1	-0,178
840,137	-1	-0,9
842,123	-4,5	-1,775
844,103	-10	-2,552
846,079	-16	-3,364
848,057	-16	-3,496
850,037	-15	-3,468
852,016	-11	-3,112
853,996	-6	-2,359
855,97	-3	-1,553
857,956	-0,5	-0,797
859,93	2,5	0
861,91	2,5	-0,005
863,89	1,5	-0,065
865,864	0	-0,633
867,844	-2,5	-1,383
869,817	-7	-2,16
871,803	-13,5	-2,96
873,783	-15,5	-3,499
875,757	-15,5	-3,49
877,737	-14	-3,397
879,711	-8	-2,839
881,691	-4,5	-2,058
883,665	-2	-1,268
885,645	1,5	-0,44
887,618	2	-0,001
889,598	2,5	-0,014
891,578	1	-0,15
893,552	-1	-0,874
895,538	-3,5	-1,63
897,512	-9	-2,498
899,498	-15,5	-3,238
901,472	-16	-3,497
903,47	-15,5	-3,479
905,449	-12,5	-3,325
907,435	-7,5	-2,614
909,415	-4,5	-1,917
911,389	-1,5	-1,134
913,369	1,5	-0,405
915,349	2	-0,001
917,323	2	-0,015
919,315	1	-0,15
921,289	-1	-0,831
923,268	-4	-1,666
925,248	-9,5	-2,468
927,228	-15,5	-3,263
929,202	-16	-3,497
931,188	-15,5	-3,471
933,168	-10,5	-3,131
935,142	-6	-2,298
937,122	-3	-1,55
939,096	-1	-0,766
941,075	2	0
943,061	2	-0,005
945,035	1,5	-0,078
947,021	-0,5	-0,655
948,995	-3	-1,434
950,975	-6,5	-2,093
952,949	-12,5	-2,925
954,935	-15,5	-3,499
956,908	-15,5	-3,491
958,894	-14	-3,391
960,868	-8	-2,657
962,848	-4	-1,877
964,822	-1,5	-1,056
966,808	1,5	-0,358
968,788	2,5	-0,001
970,768	2,5	-0,01
972,748	1,5	-0,11
974,722	-1	-0,846
976,701	-4	-1,595
978,681	-8,5	-2,344
980,661	-13,5	-2,96
982,641	-15,5	-3,5
984,621	-15,5	-3,494
986,595	-14,5	-3,425
988,575	-8,5	-2,826
990,549	-4,5	-2,068
992,528	-2	-1,245
994,508	1	-0,517
996,488	2	-0,001
998,462	2	-0,013
1000,448	1,5	-0,113
1002,422	-1	-0,784
1004,402	-4	-1,574
1006,394	-8,5	-2,327
1008,374	-14,5	-3,028
1010,353	-15	-3,499
1012,339	-15	-3,486
1014,325	-12,5	-3,324
1016,299	-6	-2,472
1018,279	-3	-1,633
1020,253	0	-0,754
1022,233	2	0
1024,213	2,5	-0,006
1026,193	1,5	-0,072
1028,166	-0,5	-0,727
1030,152	-3	-1,493
1032,126	-9	-2,437
1034,1	-15,5	-3,247
1036,08	-15	-3,497
1038,054	-15	-3,47
1040,034	-9,5	-3,042
1042,014	-5	-2,203
1043,987	-2	-1,328
1045,967	1	-0,506
1047,941	2	-0,001
1049,921	2	-0,013
1051,895	1	-0,121
1053,875	-1	-0,867
1055,849	-4,5	-1,731
1057,823	-10	-2,547
1059,797	-15	-3,356
1061,777	-15	-3,497
1063,75	-15	-3,471
1065,73	-10	-3,076
1067,704	-5,5	-2,286
1069,69	-2,5	-1,382
1071,664	1	-0,496
1073,638	2	-0,001
1075,624	2	-0,018
1077,598	0,5	-0,222
1079,577	-1,5	-1,069
1081,557	-5,5	-1,934
1083,537	-12	-2,768
1085,511	-15	-3,499
1087,492	-15	-3,49
1089,465	-13,5	-3,384
1091,451	-7,5	-2,736
1093,431	-3,5	-1,912
1095,411	-1,5	-1,137
1097,384	2	-0,357
1099,364	2	-0,002
1101,338	2	-0,025
1103,324	0	-0,397
1105,298	-3	-1,271
1107,278	-6,5	-2,105
1109,252	-13,5	-2,938
1111,232	-15	-3,499
1113,206	-15	-3,486
1115,191	-12	-3,337
1117,165	-6	-2,503
1119,139	-3	-1,701
1121,113	-0,5	-0,812
1159,247	2	-0,04
1161,227	0	-0,502
1163,207	-2,5	-1,399
1165,187	-7,5	-2,292
1167,161	-15	-3,206
1169,134	-15	-3,498
1171,114	-15	-3,47
1173,088	-9,5	-3,052
1175,074	-5,5	-2,242
1177,048	-2	-1,421
1179,028	1,5	-0,57
1181,002	2	-0,001
1182,976	2,5	-0,006
1184,956	1	-0,115
1186,929	-0,5	-0,736
1188,909	-4	-1,634
1190,883	-9	-2,493
1192,863	-15	-3,262
1194,843	-15	-3,497
1196,823	-15	-3,467
1198,803	-10,5	-3,132
1200,783	-5,5	-2,272
1202,756	-2,5	-1,376
1204,73	1,5	-0,485
1206,716	2	-0,001
1208,69	2	-0,016
1210,676	1	-0,169
1212,65	-1,5	-0,998
1214,63	-4,5	-1,815
1216,61	-10,5	-2,654
1218,578	-15	-3,496
1220,557	-15	-3,496
1222,531	-14,5	-3,45
1224,511	-9	-2,933
1226,485	-4,5	-2,095
1228,459	-1,5	-1,227
1230,445	1,5	-0,421
1232,425	2,5	-0,001
1234,411	2	-0,017
1236,385	0,5	-0,263
1238,364	-1	-1,023
1240,338	-4,5	-1,865
1242,324	-10	-2,654
1244,292	-15	-3,5
1246,266	-15	-3,494
1248,252	-14	-3,426
1250,232	-8,5	-2,843
1252,212	-4,5	-2,03
1254,191	-1,5	-1,174
1256,165	2	-0,294
1258,157	2,5	-0,002
1260,137	2,5	-0,018
1262,117	0,5	-0,193
1264,091	-1	-0,96
1266,071	-4	-1,799
1268,045	-10	-2,649
1270,025	-15	-3,432
1272,005	-15	-3,496
1273,984	-14,5	-3,46
1275,958	-9	-2,989
1277,932	-5	-2,275
1279,912	-3	-1,573
1281,886	0	-0,71
1283,872	2,5	-0,001
1285,846	2,5	-0,008
1287,826	1,5	-0,111
1289,799	-0,5	-0,819
1291,789	-3,5	-1,58
1293,759	-7,5	-2,322
1295,733	-14,5	-3,156
1297,713	-15	-3,498
1299,693	-15	-3,479
1301,667	-11	-3,22
1303,647	-5,5	-2,377
1305,621	-2,5	-1,518
1307,618	-0,5	-0,811
1309,592	2,5	0
1311,572	2,5	-0,006
1313,546	1,5	-0,104
1315,538	-0,5	-0,778
1317,518	-4	-1,664
1319,492	-9,5	-2,513
1321,472	-15	-3,238
1323,451	-15	-3,497
1325,419	-14,5	-3,451
1327,399	-9	-2,968
1329,373	-4,5	-2,066
1331,347	-1,5	-1,262
1333,333	1,5	-0,35
1335,307	2	-0,002
1337,287	2	-0,03
1339,261	0	-0,439
1341,229	-2	-1,311
1343,208	-6	-2,124
1345,182	-12,5	-2,892
1347,162	-15	-3,499
1349,136	-15	-3,488
1351,11	-12,5	-3,365
1353,09	-7,5	-2,668
1355,064	-3,5	-1,792
1357,056	-1	-0,982
1359,03	2	-0,113
1361,003	2	-0,003
1362,989	1,5	-0,036
1364,963	0	-0,491
1366,949	-2,5	-1,37
1368,923	-7	-2,297
1370,897	-14,5	-3,11
1372,883	-15	-3,498
1374,857	-14,5	-3,478
1376,837	-10,5	-3,288
1378,816	-6	-2,421
1380,796	-2,5	-1,529
1382,77	0	-0,637
1384,744	2	-0,001
1386,724	2	-0,011
1388,704	1	-0,155
1390,678	-1	-0,964
1392,658	-4	-1,706
1394,631	-9	-2,538
1396,617	-15	-3,377
1398,597	-15	-3,497
1400,571	-14,5	-3,452
1402,557	-9	-3,021
1404,531	-4,5	-2,195
1406,511	-2	-1,339
1408,491	1	-0,515
1410,471	2	-0,001
1412,445	2,5	-0,018
1414,436	0,5	-0,218
1416,41	-1	-1,005
1418,384	-5	-1,812
1420,364	-10	-2,67
1422,35	-15	-3,5
1424,336	-15	-3,496
1426,31	-14,5	-3,448
1428,284	-9	-2,933
1430,263	-5	-2,173
1432,243	-2	-1,382
1434,217	1,5	-0,54
1436,197	2	-0,001
1438,177	2,5	-0,014
1440,151	1	-0,178
1442,125	-1	-1,009
1444,099	-3,5	-1,776
1446,073	-10	-2,656
1448,052	-15	-3,486
1450,02	-15	-3,495
1452,006	-14	-3,445
1453,98	-8,5	-2,93
1455,954	-4	-2,066
1457,928	-1,5	-1,223
1459,902	1,5	-0,342
1461,876	2,5	-0,001
1463,856	2	-0,019
1465,835	1	-0,172
1467,815	-0,5	-0,894
1469,789	-4	-1,778
1471,769	-10	-2,686
1473,749	-15	-3,5
1475,723	-15	-3,494
1477,691	-12,5	-3,412
1479,671	-6,5	-2,726
1481,644	-3	-1,868
1483,618	-1	-1,029
1485,592	2	-0,052
1487,572	2	-0,004
1489,552	1,5	-0,052
1491,532	0	-0,568
1493,506	-2,5	-1,374
1495,48	-6,5	-2,127
1497,46	-13	-2,976
1499,433	-15	-3,499
1501,413	-15	-3,488
1503,393	-12	-3,367
1505,367	-6	-2,6
1507,347	-3	-1,826
1509,327	-1	-1,049
1511,301	2	-0,306
1513,275	2,5	-0,002
1515,261	2	-0,019
1517,234	0,5	-0,23
1519,208	-1,5	-1,064
1521,188	-4,5	-1,765
1523,168	-9,5	-2,53
1525,148	-15	-3,348
1527,122	-15	-3,497
1529,096	-14,5	-3,471
1531,076	-10	-3,2
1533,05	-5,5	-2,472
1535,023	-2,5	-1,673
1537,003	-0,5	-0,823
1538,977	2,5	-0,012
1540,951	2,5	-0,005
1542,937	1,5	-0,055
1544,911	0	-0,56
1546,891	-2	-1,361
1548,865	-6,5	-2,173
1550,839	-13,5	-3,031
1552,812	-15	-3,498
1554,792	-14,5	-3,481
1556,772	-10,5	-3,24
1558,752	-5,5	-2,473
1560,732	-2,5	-1,682
1562,706	0	-0,834
1564,674	2	0
1566,66	2,5	-0,005
1568,634	1,5	-0,066
1570,613	0	-0,592
1572,587	-3	-1,456
1574,561	-7,5	-2,298
1576,535	-13,5	-3,067
1578,515	-14,5	-3,498
1580,489	-14,5	-3,479
1582,463	-9,5	-3,209
1584,443	-5	-2,338
1586,417	-2,5	-1,529
1588,39	0	-0,728
1590,364	2,5	0
1592,338	2,5	-0,005
1594,318	1,5	-0,082
1596,298	0	-0,692
1598,272	-2,5	-1,503
1600,252	-7	-2,326
1602,226	-14,5	-3,144
1604,199	-14,5	-3,498
1606,173	-14,5	-3,48
1608,153	-10	-3,224
1610,127	-5,5	-2,403
1612,107	-2,5	-1,58
1614,087	-0,5	-0,831
1616,061	2	0
1618,035	2,5	-0,006
1620,015	1,5	-0,079
1622	0	-0,634
1623,974	-3	-1,492
1625,954	-7	-2,32
1627,928	-14	-3,166
1629,902	-14,5	-3,498
1631,894	-14,5	-3,483
1633,868	-10,5	-3,276
1635,842	-5,5	-2,464
1637,822	-2,5	-1,693
1639,795	-0,5	-0,898
1641,775	2,5	-0,084
1643,761	2,5	-0,003
1645,735	2	-0,044
1647,709	0	-0,471
1649,689	-2	-1,308
1651,663	-6,5	-2,19
1653,637	-13,5	-3,029
1655,623	-14,5	-3,499
1657,596	-14,5	-3,488
1659,57	-11	-3,325
1661,556	-6	-2,619
1663,536	-3	-1,732
1665,51	-0,5	-0,846
1667,484	2,5	0
1669,464	2,5	-0,005
1671,444	1,5	-0,071
1673,418	0	-0,706
1675,403	-2,5	-1,468
1677,377	-7,5	-2,332
1679,351	-14	-3,133
1681,337	-14,5	-3,499
1683,311	-14,5	-3,482
1685,285	-10,5	-3,22
1687,259	-5	-2,374
1689,239	-2,5	-1,582
1691,219	0	-0,727
1693,186	2,5	-0,001
1695,166	2,5	-0,009
1697,14	1,5	-0,095
1699,12	-0,5	-0,798
1701,1	-3,5	-1,642
1703,086	-7,5	-2,434
1705,06	-14,5	-3,254
1707,04	-14,5	-3,497
1709,013	-14	-3,47
1710,987	-9	-3,056
1712,967	-5	-2,308
1714,953	-2	-1,541
1716,927	0	-0,645
1718,901	2,5	-0,001
1720,881	2,5	-0,011
1722,861	1	-0,164
1724,835	-0,5	-0,896
1726,814	-3,5	-1,719
1728,788	-8,5	-2,509
1730,768	-14,5	-3,403
1732,742	-14,5	-3,496
1734,716	-13,5	-3,442
1736,69	-7,5	-2,812
1738,664	-3,5	-1,97
1740,638	-1	-1,085
1742,63	2,5	-0,282
1744,603	2,5	-0,002
1746,577	2	-0,035
1748,551	0	-0,55
1750,525	-2,5	-1,42
1752,505	-6	-2,227
1754,479	-13,5	-3,13
1756,459	-14,5	-3,498
1758,433	-14	-3,47
1760,407	-9	-3,096
1762,386	-4,5	-2,282
1764,366	-2	-1,524
1766,334	0,5	-0,618
1768,308	2,5	-0,001
1770,288	2,5	-0,013
1772,262	1	-0,154
1810,408	-6	-2,21
1812,388	-13	-3,001
1814,361	-14,5	-3,499
1816,347	-14,5	-3,489
1818,321	-12	-3,365
1820,301	-6	-2,604
1822,269	-3	-1,736
1824,243	-1	-0,947
1826,217	2	-0,143
1828,197	2,5	-0,002
1830,171	2	-0,043
1832,144	0	-0,481
1834,124	-2	-1,274
1836,104	-5	-2,027
1838,078	-11	-2,86
1840,058	-14,5	-3,499
1842,038	-14,5	-3,494
1844,018	-13,5	-3,43
1845,992	-8	-2,912
1847,972	-4,5	-2,137
1849,945	-1,5	-1,266
1851,919	1,5	-0,461
1853,893	2,5	-0,001
1855,867	2,5	-0,009
1857,847	1	-0,142
1859,821	-0,5	-0,872
1861,795	-3	-1,705
1863,769	-9	-2,574
1865,743	-14,5	-3,34
1867,728	-14,5	-3,497
1869,696	-13,5	-3,451
1871,676	-8,5	-2,975
1873,668	-4,5	-2,256
1875,642	-1,5	-1,374
1877,616	1	-0,505
1879,59	2,5	-0,001
1881,57	2,5	-0,011
1883,556	1,5	-0,123
1885,529	-0,5	-0,81
1887,503	-3	-1,605
1889,477	-7,5	-2,389
1891,451	-14,5	-3,366
1893,425	-14,5	-3,496
1895,411	-14	-3,473
1897,385	-10	-3,226
1899,365	-5,5	-2,474
1901,344	-3	-1,784
1903,318	-1	-1,047
1905,292	2	-0,262
1907,272	2,5	-0,002
1909,252	2	-0,015
1911,226	1	-0,117
1913,2	-0,5	-0,695
1915,174	-2,5	-1,478
1917,154	-6	-2,222
1919,128	-12	-3,028
1921,101	-14,5	-3,499
1923,081	-14,5	-3,493
1925,055	-13	-3,427
1927,029	-8,5	-2,943
1929,003	-4,5	-2,255
1930,977	-2,5	-1,567
1932,957	-1	-0,891
1934,937	2	-0,146
1936,91	2,5	-0,003
1938,89	2	-0,033
1940,864	0	-0,338
1942,838	-1	-1,093
1944,812	-4	-1,847
1946,786	-8	-2,61
1948,76	-14,5	-3,388
1950,74	-14	-3,498
1952,714	-14	-3,479
1954,693	-11	-3,331
1956,667	-6,5	-2,623
1958,641	-3	-1,849
1960,615	-1	-1,118
1962,601	1,5	-0,442
1964,575	2,5	-0,001
1966,561	2,5	-0,012
1968,535	1,5	-0,13
1970,515	-0,5	-0,8
1972,494	-3	-1,614
1974,486	-6	-2,296
1976,46	-13,5	-3,156
1978,44	-14	-3,498
1980,414	-14,5	-3,489
1982,4	-12	-3,419
1984,38	-7	-2,896
1986,354	-4	-2,171
1988,328	-2	-1,413
1990,313	0,5	-0,662
1992,287	2,5	-0,001
1994,261	2,5	-0,008
1996,241	1,5	-0,059
1998,227	0	-0,469
2000,201	-1,5	-1,168
2002,181	-4,5	-1,906
2004,155	-10,5	-2,733
2006,135	-14,5	-3,452
2008,109	-14,5	-3,496
2010,094	-13,5	-3,468
2012,068	-9	-3,106
2014,048	-4,5	-2,268
2016,022	-2	-1,569
2017,996	0	-0,758
2019,97	2	-0,031
2021,956	2,5	-0,004
2023,93	2	-0,04
2025,903	0	-0,405
2027,877	-2	-1,224
2029,857	-4,5	-1,914
2031,837	-10	-2,679
2033,811	-14	-3,434
2035,785	-14	-3,496
2037,759	-13,5	-3,462
2039,745	-9,5	-3,205
2041,718	-4,5	-2,373
2043,692	-2	-1,637
2045,678	-0,5	-0,955
2047,658	2,5	-0,19
2049,632	2,5	-0,002
2051,612	2,5	-0,029
2053,586	0	-0,332
2055,566	-1	-1,076
2057,546	-3,5	-1,814
2059,519	-8,5	-2,583
2061,493	-14	-3,35
2063,467	-14	-3,497
2065,447	-13,5	-3,476
2067,421	-9,5	-3,241
2069,395	-5	-2,471
2071,375	-2,5	-1,744
2073,349	-1	-1,018
2075,323	2,5	-0,226
2077,296	2,5	-0,002
2079,264	2	-0,033
2081,244	0,5	-0,394
2083,224	-1	-1,089
2085,198	-3,5	-1,852
2087,172	-10	-2,716
2089,152	-14	-3,499
2091,12	-14	-3,495
2093,094	-12,5	-3,449
2095,067	-7,5	-2,927
2097,047	-4	-2,2
2099,033	-1,5	-1,449
2101,007	0,5	-0,628
2102,981	2,5	-0,001
2104,961	2,5	-0,013
2106,941	1,5	-0,128
2108,921	-0,5	-0,774
2110,901	-2,5	-1,549
2112,874	-6,5	-2,28
2114,854	-13,5	-3,11
2116,828	-13,5	-3,498
2118,802	-13,5	-3,486
2120,776	-10,5	-3,323
2122,762	-6	-2,733
2124,736	-3	-1,891
2126,71	-1	-1,166
2128,684	1,5	-0,444
2130,663	2,5	-0,001
2132,637	2,5	-0,016
2134,617	1	-0,199
2136,591	-0,5	-0,918
2138,565	-3,5	-1,696
2140,551	-7,5	-2,458
2142,525	-13,5	-3,245
2144,499	-13,5	-3,498
2146,491	-13	-3,484
2148,464	-9,5	-3,29
2150,438	-5,5	-2,619
2152,412	-2,5	-1,772
2154,392	-0,5	-0,974
2156,366	2,5	-0,191
2158,346	2,5	-0,003
2160,32	2	-0,032
2162,3	0	-0,441
2164,279	-1	-1,217
2166,259	-4,5	-2,024
2168,233	-9,5	-2,809
2170,213	-13,5	-3,499
2172,193	-13,5	-3,495
2174,167	-12	-3,435
2176,141	-7	-2,902
2178,115	-3,5	-2,086
2180,089	-1	-1,11
2182,075	2	-0,335
2184,048	2,5	-0,002
2186,028	2,5	-0,016
2188,002	1	-0,177
2189,976	-0,5	-0,896
2191,956	-3	-1,654
2193,93	-7	-2,465
2195,91	-13	-3,202
2197,884	-13,5	-3,498
2199,863	-13	-3,478
2201,843	-9,5	-3,306
2203,817	-5,5	-2,612
2205,791	-3	-1,886
2207,771	-1	-1,12
2209,751	2	-0,35
2211,737	2,5	-0,001
2213,711	2	-0,019
2215,685	0,5	-0,235
2217,664	-0,5	-0,934
2219,644	-3	-1,661
2221,618	-6,5	-2,409
2223,592	-13	-3,244
2225,572	-13	-3,498
2227,546	-13	-3,476
2229,52	-9	-3,221
2231,5	-5	-2,468
2233,473	-2,5	-1,791
2235,453	-1	-1,03
2237,427	2,5	-0,206
2239,401	2,5	-0,002
2241,375	2,5	-0,021
2243,355	0,5	-0,184
2245,335	-0,5	-0,84
2247,315	-3	-1,652
2249,289	-7	-2,468
2251,263	-13,5	-3,251
2253,242	-13,5	-3,498
2255,222	-13	-3,475
2257,196	-9	-3,182
2259,176	-4,5	-2,332
2261,15	-2	-1,49
2263,13	0	-0,746
2265,11	2	-0,001
2267,084	2	-0,008
2269,058	1	-0,125
2271,031	-0,5	-0,844
2273,011	-2,5	-1,586
2274,991	-6,5	-2,389
2276,965	-13	-3,207
2278,939	-13,5	-3,498
2280,913	-13	-3,473
2282,893	-9	-3,168
2284,867	-4,5	-2,316
2286,84	-1,5	-1,441
2288,814	0	-0,619
2290,788	2,5	0
2292,768	2,5	-0,008
2294,742	1,5	-0,076
2296,716	0	-0,683
2298,69	-2	-1,467
2300,664	-5	-2,174
2302,65	-10,5	-2,934
2304,623	-13,5	-3,499
2306,603	-13	-3,492
2308,577	-11,5	-3,414
2310,564	-7	-2,865
2312,543	-3,5	-2,083
2314,523	-1,5	-1,336
2316,497	1	-0,529
2318,471	2,5	-0,001
2320,451	2,5	-0,015
2322,43	1	-0,19
2324,404	-0,5	-0,971
2326,384	-3	-1,699
2328,358	-7,5	-2,478
2330,332	-13	-3,271
2332,318	-13	-3,498
2334,298	-13	-3,478
2336,272	-9,5	-3,254
2338,252	-5,5	-2,608
2340,231	-2,5	-1,774
2342,205	-1	-0,979
2344,179	2,5	-0,163
2346,159	2,5	-0,003
2348,133	1,5	-0,041
2350,107	0	-0,455
2352,087	-1	-1,236
2390,197	-12,5	-3,095
2392,177	-13	-3,499
2394,15	-13	-3,486
2396,13	-10,5	-3,386
2398,11	-6	-2,671
2400,084	-2,5	-1,844
2402,064	-0,5	-0,995
2404,038	2	-0,211
2406,012	2,5	-0,003
2407,986	2	-0,041
2409,959	0	-0,545
2411,939	-1	-1,252
2413,913	-4,5	-2,104
2415,887	-10,5	-2,921
2417,867	-13	-3,499
2419,847	-13	-3,493
2421,821	-12	-3,423
2423,801	-6,5	-2,86
2425,775	-3,5	-2,103
2427,748	-1,5	-1,309
2429,722	1	-0,502
2431,696	2,5	-0,001
2433,664	2,5	-0,014
2435,644	1	-0,144
2437,624	0	-0,864
2439,598	-2	-1,653
2441,578	-6	-2,448
2443,552	-12,5	-3,226
2445,525	-12,5	-3,498
2447,511	-12	-3,477
2449,491	-8	-3,183
2451,465	-4	-2,325
2453,439	-1,5	-1,508
2455,413	0	-0,747
2457,387	2,5	0
2459,361	2,5	-0,007
2461,341	2	-0,07
2463,314	0	-0,615
2465,288	-1,5	-1,445
2467,262	-5	-2,32
2469,236	-10,5	-3,069
2471,216	-12	-3,499
2473,19	-12	-3,488
2475,164	-10	-3,364
2477,138	-5	-2,631
2479,112	-2	-1,774
2481,091	-0,5	-0,998
2483,071	2,5	-0,146
2485,045	2,5	-0,003
2487,019	2	-0,041
2488,993	0,5	-0,431
2490,967	-1	-1,311
2492,947	-4,5	-2,097
2494,927	-10	-2,9
2496,9	-12	-3,499
2498,874	-12	-3,492
2500,854	-10,5	-3,412
2502,834	-5,5	-2,725
2504,808	-2	-1,727
2506,782	-0,5	-0,927
2508,756	2,5	-0,07
2510,742	2,5	-0,004
2512,716	2	-0,056
2514,689	0	-0,552
2516,663	-1,5	-1,368
2518,643	-4,5	-2,149
2520,617	-10,5	-3,008
2522,591	-12	-3,499
2524,565	-12	-3,488
2526,539	-9	-3,345
2528,513	-4,5	-2,552
2530,487	-2,5	-1,842
2532,46	-0,5	-1,026
2534,44	2,5	-0,191
2536,414	2,5	-0,003
2538,388	2	-0,045
2540,362	0,5	-0,468
2542,342	-1	-1,223
2544,322	-3,5	-2,024
2546,302	-9	-2,838
2548,276	-12	-3,499
2550,249	-12	-3,494
2552,223	-10,5	-3,429
2554,203	-5,5	-2,814
2556,177	-2,5	-1,952
2558,157	-1	-1,122
2560,131	2,5	-0,283
2562,105	2,5	-0,002
2564,079	2,5	-0,03
2566,059	0,5	-0,323
2568,038	-0,5	-1,161
2570,012	-3	-1,974
2571,986	-8	-2,752
2573,96	-12	-3,5
2575,934	-12	-3,495
2577,908	-10,5	-3,414
2579,888	-5,5	-2,784
2581,862	-2,5	-1,957
2583,836	-1	-1,126
2585,809	2,5	-0,263
2587,795	2,5	-0,002
2589,769	2,5	-0,032
2591,743	0,5	-0,349
2593,717	-1	-1,214
2595,697	-3	-1,954
2597,671	-8	-2,794
2599,645	-11	-3,5
2601,625	-11	-3,496
2603,604	-10,5	-3,453
2605,578	-5,5	-2,963
2607,552	-3	-2,162
2609,526	-1	-1,352
2611,506	1,5	-0,518
2613,48	2,5	-0,001
2615,46	2,5	-0,018
2617,434	0,5	-0,278
2619,413	-0,5	-1,046
2621,387	-3	-1,958
2623,367	-7,5	-2,734
2625,341	-11	-3,5
2627,321	-11	-3,495
2629,295	-10	-3,436
2631,275	-5,5	-2,943
2633,255	-2,5	-2,098
2635,229	-1	-1,261
2637,208	2	-0,465
2639,182	2,5	-0,001
2641,156	2,5	-0,016
2643,13	1	-0,25
2645,104	0	-1,026
2647,084	-2	-1,818
2649,058	-7	-2,66
2651,038	-11	-3,471
2653,012	-11	-3,496
2654,985	-10	-3,452
2656,965	-5,5	-2,911
2658,945	-3	-2,177
2660,919	-1	-1,351
2662,899	1,5	-0,542
2664,873	3	-0,001
2666,859	3	-0,015
2668,833	1	-0,201
2670,801	0	-0,987
2672,774	-2,5	-1,776
2674,754	-6	-2,579
2676,728	-10,5	-3,476
2678,702	-11	-3,497
2680,682	-10,5	-3,466
2682,662	-6,5	-3,05
2684,636	-3	-2,256
2686,616	-1	-1,501
2688,59	0,5	-0,664
2690,569	2,5	-0,001
2692,543	2,5	-0,008
2694,517	1,5	-0,09
2696,491	0	-0,707
2698,471	-1	-1,493
2700,451	-4	-2,215
2702,425	-10	-3,129
2704,405	-10,5	-3,499
2706,379	-10,5	-3,489
2708,352	-7,5	-3,28
2710,332	-4	-2,476
2712,306	-1,5	-1,659
2714,286	-0,5	-0,894
2716,266	3	-0,041
2718,24	2,5	-0,005
2720,214	2	-0,057
2722,188	0,5	-0,494
2724,161	-0,5	-1,264
2726,141	-2,5	-2,105
2728,115	-7,5	-2,794
2730,089	-10,5	-3,5
2732,063	-10,5	-3,493
2734,043	-9	-3,397
2736,023	-4,5	-2,723
2737,997	-2	-1,907
2739,971	0	-1,038
2741,944	2,5	-0,206
2743,918	2,5	-0,003
2745,892	2,5	-0,036
2747,878	0,5	-0,373
2749,852	0	-1,21
2751,826	-2,5	-2,041
2753,8	-7	-2,932
2755,774	-9,5	-3,499
2757,754	-9,5	-3,492
2759,727	-8	-3,408
2761,701	-4	-2,677
2763,675	-2	-1,802
2765,649	0	-0,982
2767,629	2,5	-0,108
2769,609	2,5	-0,004
2771,583	2	-0,062
2773,557	0	-0,684
2775,531	-1	-1,542
2777,504	-4	-2,405
2779,484	-9	-3,189
2781,458	-9,5	-3,498
2783,438	-9	-3,481
2785,412	-5,5	-3,207
2787,386	-3	-2,343
2789,36	-1,5	-1,511
2791,334	0,5	-0,62
2793,308	2,5	-0,001
2795,281	3	-0,014
2797,255	1,5	-0,199
2799,229	0	-1,056
2801,203	-1,5	-1,868
2803,189	-5	-2,629
2805,163	-9	-3,498
2807,137	-9	-3,495
2809,105	-8	-3,429
2811,079	-4,5	-2,82
2813,052	-2,5	-2,031
2815,026	-0,5	-1,172
2817	2	-0,339
2818,974	2,5	-0,002
2820,948	2,5	-0,028
2822,928	0,5	-0,379
2824,896	-0,5	-1,295
2826,87	-2	-2,11
2828,838	-7,5	-2,936
2830,817	-9	-3,499
2832,791	-8,5	-3,491
2834,771	-7	-3,368
2836,751	-3,5	-2,648
2838,731	-2	-1,927
2840,705	-0,5	-1,078
2842,679	2,5	-0,216
2844,653	2,5	-0,002
2846,632	2,5	-0,03
2848,606	1	-0,356
2850,58	0	-1,262
2852,554	-1,5	-2,053
2854,534	-6	-2,924
2856,508	-8	-3,499
2858,488	-8	-3,491
2860,468	-7	-3,407
2862,448	-4	-2,772
2864,421	-1,5	-1,845
2866,401	-0,5	-1,059
2868,375	2,5	-0,244
2870,355	3	-0,002
2872,329	2,5	-0,037
2874,309	1	-0,434
2876,277	0	-1,346
2878,257	-1,5	-2,064
2880,231	-4,5	-2,8
2882,204	-8	-3,499
2884,184	-8	-3,495
2886,164	-7,5	-3,446
2888,144	-4,5	-3,008
2890,124	-2,5	-2,296
2892,098	-1	-1,529
2894,078	0	-0,902
2896,052	2,5	-0,159
2898,026	2,5	-0,003
2899,999	2,5	-0,037
2901,979	0,5	-0,416
2903,953	0	-1,205
2905,939	-1,5	-1,909
2907,913	-4,5	-2,729
2909,887	-8	-3,5
2911,861	-8	-3,495
2913,835	-7,5	-3,434
2915,809	-4	-2,812
2917,782	-2	-2,064
2919,762	-0,5	-1,242
2921,736	1,5	-0,463
2923,716	2,5	-0,001
2925,684	2,5	-0,015
2927,664	1,5	-0,152
2929,644	0	-0,878
2931,618	-0,5	-1,634
2933,592	-3	-2,376
2935,559	-7,5	-3,209
2937,533	-8	-3,498
2939,513	-7,5	-3,476
2941,493	-5	-3,211
2943,473	-3	-2,378
2945,447	-1	-1,557
2947,427	0	-0,722
2949,401	2,5	0
2951,381	2,5	-0,006
2953,36	2	-0,076
2955,334	0	-0,682
2957,308	0	-1,514
2959,288	-2	-2,29
2961,256	-7	-3,191
2963,242	-7,5	-3,499
2965,216	-7,5	-3,486
2967,19	-6	-3,326
2969,164	-3	-2,583
2971,137	-1,5	-1,816
2973,111	-0,5	-0,968
2975,091	2,5	-0,169
2977,071	2,5	-0,002
2979,039	2	-0,035
2981,025	1	-0,401
2982,999	0	-1,191
2984,973	-1,5	-2,076
2986,947	-5	-2,883
2988,926	-7,5	-3,499
2990,894	-7,5	-3,493
2992,868	-6	-3,403
2994,842	-3,5	-2,772
2996,816	-1,5	-1,924
2998,79	-0,5	-1,119
3000,77	2	-0,337
3002,75	2,5	-0,002
3004,723	2,5	-0,02
3006,697	1	-0,222
3008,671	0	-0,943
3010,645	-0,5	-1,769
3012,619	-3,5	-2,574
3014,599	-7,5	-3,383
3016,573	-7,5	-3,497
3018,547	-7	-3,466
3020,521	-4,5	-3,077
3022,506	-2	-2,226
3024,48	-1	-1,442
3026,454	1	-0,636
3028,428	2,5	-0,001
3030,408	2,5	-0,007
3032,382	2	-0,061
3034,368	0,5	-0,498
3036,348	0	-1,296
3038,322	-1,5	-2,016
3040,295	-5,5	-2,818
3042,269	-7,5	-3,499
3044,243	-7,5	-3,492
3046,223	-6,5	-3,415
3048,197	-3,5	-2,751
3050,171	-1,5	-1,962
3052,145	-0,5	-1,129
3054,119	2	-0,365
3056,093	2,5	-0,002
3058,072	2	-0,015
3060,04	1	-0,196
3062,02	0	-0,956
3063,994	-1	-1,768
3065,968	-3,5	-2,602
3067,942	-7,5	-3,475
3069,916	-7,5	-3,496
3071,908	-7	-3,462
3073,882	-4,5	-3,091
3075,855	-2,5	-2,377
3077,829	-1	-1,555
3079,803	0	-0,733
3081,777	2,5	0
3083,757	2,5	-0,007
3085,731	1,5	-0,082
3087,711	0	-0,645
3089,691	0	-1,447
3091,671	-2,5	-2,244
3093,65	-6	-2,961
3095,63	-7,5	-3,499
3097,604	-7,5	-3,493
3099,578	-6,5	-3,409
3101,552	-3	-2,723
3103,532	-1,5	-1,89
3105,512	-0,5	-1,125
3107,486	2,5	-0,253
3109,472	2,5	-0,002
3111,445	2	-0,026
3113,419	0,5	-0,281
3115,399	0	-1,038
3117,379	-1	-1,879
3119,359	-4,5	-2,724
3121,333	-7,5	-3,5
3123,313	-7,5	-3,494
3125,287	-6	-3,402
3127,267	-3	-2,794
3129,246	-1,5	-2,029
3131,22	-0,5	-1,15
3133,194	2,5	-0,244
3135,168	2,5	-0,002
3137,142	2	-0,031
3139,122	0,5	-0,397
3141,096	0	-1,278
3143,076	-1,5	-2,154
3145,055	-5,5	-2,983
3147,029	-7,5	-3,499
3149,003	-7	-3,483
3150,983	-5	-3,27
3152,957	-2	-2,393
3154,937	-1	-1,549
3156,911	0	-0,743
3158,885	3	0
3160,859	2,5	-0,009
3162,838	1,5	-0,132
3164,812	0	-0,883
3166,798	-0,5	-1,697
3168,772	-2,5	-2,461
3170,752	-7,5	-3,322
3172,726	-7,5	-3,497
3174,7	-6,5	-3,454
3176,674	-3,5	-2,963
3178,654	-1,5	-2,103
3180,633	-0,5	-1,29
3182,607	1,5	-0,437
3184,581	2,5	-0,001
3186,561	2	-0,017
3188,535	1	-0,27
3190,509	0	-1,158
3192,489	-1	-1,99
3194,463	-5	-2,888
3196,437	-6,5	-3,499
3198,416	-7	-3,491
3200,39	-5	-3,36
3202,364	-2	-2,552
3204,344	-1	-1,639
3206,324	0	-0,8
3208,298	2,5	0
3210,272	2	-0,007
3212,246	1,5	-0,09
3212,582	2,5	0