File: ensaios_Ciclicos/_40perc/_4gap/entrada/_2.txt
Time (s)	Load (N)	Displacement (mm)
0	0	-0,036
2,015	0,5	-0,002
4,139	1	-0,003
6,131	0,5	-0,031
8,123	-1,5	-0,305
10,114	-6	-1,053
12,106	-12	-1,869
14,116	-18,5	-2,59
16,114	-23	-3,242
18,119	-23	-3,499
20,116	-22,5	-3,492
22,108	-21,5	-3,42
24,1	-15	-2,86
26,098	-9,5	-2,095
28,089	-5,5	-1,454
30,081	-1	-0,68
32,079	1,5	0
34,077	1,5	-0,006
36,075	0,5	-0,063
38,067	-1,5	-0,504
40,065	-5,5	-1,179
42,063	-10,5	-1,886
44,055	-17	-2,671
46,064	-22	-3,436
48,056	-22	-3,497
50,054	-21,5	-3,472
52,058	-17,5	-3,228
54,062	-12	-2,542
56,066	-6,5	-1,807
58,058	-3	-0,996
60,063	1,5	-0,264
62,066	1,5	-0,001
64,069	1,5	-0,009
66,085	1	-0,069
68,083	-1	-0,482
70,093	-3,5	-1,017
72,097	-8,5	-1,732
74,095	-14,5	-2,485
76,093	-21	-3,259
78,097	-21	-3,499
80,095	-21	-3,49
82,092	-19,5	-3,421
84,09	-13	-2,85
86,1	-8	-2,144
88,11	-4,5	-1,438
90,108	0	-0,672
92,106	2	0
94,104	2	-0,005
96,109	1,5	-0,058
98,111	-0,5	-0,518
100,122	-5	-1,259
102,126	-10,5	-2,021
104,129	-17,5	-2,799
106,139	-20,5	-3,5
108,149	-20,5	-3,497
110,153	-20	-3,453
112,151	-14,5	-2,985
114,155	-9	-2,266
116,158	-4,5	-1,477
118,156	-0,5	-0,717
120,154	2	0
122,152	2	-0,006
124,162	1,5	-0,064
126,166	-1	-0,501
128,17	-4,5	-1,274
130,174	-10	-2,056
132,172	-17,5	-2,913
134,163	-20,5	-3,499
136,161	-20	-3,493
138,165	-18,5	-3,422
140,169	-13,5	-2,921
142,179	-8	-2,169
144,177	-4	-1,419
182,395	2,5	-0,004
184,398	1,5	-0,042
186,396	0	-0,376
188,406	-2,5	-1,081
190,41	-8	-1,88
192,41	-13,5	-2,55
194,406	-19,5	-3,376
196,416	-19,5	-3,498
198,42	-19,5	-3,489
200,43	-17,5	-3,399
202,441	-12	-2,891
204,443	-7	-2,171
206,459	-4,5	-1,496
208,469	-1,5	-0,829
210,479	2	-0,113
212,489	2	-0,002
214,499	2	-0,018
216,509	1	-0,117
218,506	-1	-0,702
220,516	-4,5	-1,386
222,526	-8,5	-2,001
224,53	-14	-2,651
226,54	-19,5	-3,248
228,544	-19	-3,499
230,548	-19	-3,487
232,546	-15	-3,361
234,55	-11	-2,692
236,547	-5,5	-1,942
238,551	-3	-1,234
240,555	0	-0,605
242,559	2,5	-0,001
244,569	2,5	-0,005
246,585	2	-0,04
248,595	0	-0,374
250,605	-3	-1,169
252,609	-7,5	-1,935
254,624	-12,5	-2,558
256,634	-19	-3,228
258,638	-19	-3,499
260,654	-19	-3,493
262,659	-17,5	-3,446
264,668	-14	-3,128
266,666	-8,5	-2,376
268,676	-4,5	-1,668
270,685	-2	-0,952
272,689	2	-0,238
274,699	2,5	-0,002
276,703	2	-0,021
278,719	0,5	-0,141
280,729	-1	-0,755
282,745	-5	-1,516
284,75	-9,5	-2,198
286,759	-17	-2,892
288,75	-18,5	-3,499
290,76	-19	-3,496
292,77	-17,5	-3,454
294,774	-13,5	-3,133
296,778	-7	-2,329
298,794	-4	-1,574
300,798	0	-0,775
302,802	2	0
304,812	2	-0,003
306,815	1,5	-0,027
308,825	0	-0,317
310,837	-3	-1,108
312,839	-7,5	-1,858
314,843	-13	-2,56
316,853	-19	-3,299
318,857	-19	-3,499
320,867	-18,5	-3,487
322,871	-15	-3,361
324,88	-10	-2,696
326,89	-5,5	-1,964
328,9	-3	-1,259
330,91	1,5	-0,414
332,92	2,5	-0,001
334,924	2	-0,015
336,934	0	-0,212
338,938	-3	-1,129
340,935	-9	-2,036
342,939	-16,5	-2,969
344,943	-18,5	-3,499
346,959	-18,5	-3,494
348,969	-17	-3,442
350,979	-12	-2,959
352,983	-6	-2,155
354,994	-3	-1,348
356,997	0	-0,613
359,006	2,5	-0,001
361,004	2,5	-0,008
363,002	1	-0,099
365,018	-1	-0,705
367,022	-4,5	-1,489
369,032	-11,5	-2,352
371,036	-17,5	-3,148
373,046	-18,5	-3,499
375,056	-18	-3,486
377,059	-15	-3,344
379,063	-9,5	-2,667
381,067	-4,5	-1,81
383,071	-1	-0,927
385,081	2	-0,157
387,085	2,5	-0,002
389,089	1,5	-0,046
391,111	0	-0,364
393,109	-3	-1,125
395,118	-7	-1,874
397,122	-13	-2,588
399,138	-18	-3,339
401,144	-18	-3,498
403,152	-18	-3,478
405,156	-13,5	-3,182
407,16	-7	-2,303
409,17	-3	-1,522
411,167	0,5	-0,636
413,165	2,5	-0,001
415,175	2,5	-0,005
417,179	1,5	-0,085
419,183	-0,5	-0,674
421,193	-4,5	-1,565
423,197	-10	-2,289
425,202	-15,5	-2,946
427,211	-18	-3,499
429,22	-18	-3,494
431,224	-17	-3,449
433,228	-11	-3,017
435,238	-6,5	-2,263
437,248	-3	-1,479
439,252	0	-0,659
441,262	2,5	0
443,266	2,5	-0,004
445,269	2	-0,067
447,273	0	-0,51
449,271	-3,5	-1,383
451,275	-9,5	-2,25
453,279	-16,5	-3,018
455,289	-18	-3,499
457,293	-18	-3,493
459,291	-15,5	-3,404
461,296	-9,5	-2,694
463,305	-5	-2,005
465,308	-3	-1,275
467,312	1,5	-0,486
469,322	2,5	-0,001
471,326	2,5	-0,012
473,33	1	-0,141
475,335	-1,5	-0,895
477,344	-5,5	-1,719
479,348	-12,5	-2,628
481,351	-17,5	-3,498
483,361	-18	-3,497
485,365	-17	-3,462
487,369	-12,5	-3,071
489,367	-7	-2,242
491,371	-3	-1,374
493,375	0,5	-0,596
495,379	2,5	-0,001
497,383	2,5	-0,011
499,392	1	-0,143
501,402	-1,5	-0,926
503,406	-5,5	-1,8
505,422	-12	-2,539
507,432	-17,5	-3,392
509,436	-17,5	-3,498
511,44	-17	-3,473
513,45	-12,5	-3,127
515,454	-7	-2,344
517,457	-3,5	-1,602
519,467	0	-0,716
521,471	2,5	0
523,481	2,5	-0,004
525,485	1,5	-0,089
527,49	-1	-0,85
529,487	-4,5	-1,6
531,497	-10,5	-2,434
533,5	-17,5	-3,234
535,504	-17,5	-3,498
537,508	-17	-3,482
539,512	-13,5	-3,246
541,516	-7,5	-2,48
543,526	-3,5	-1,62
545,524	-1	-0,822
547,54	2,5	-0,026
549,544	2,5	-0,003
551,547	2	-0,046
553,551	0	-0,519
555,555	-3	-1,334
557,559	-9	-2,154
559,563	-15	-2,953
561,567	-17,5	-3,499
563,571	-17,5	-3,493
565,575	-15,5	-3,41
567,579	-10	-2,839
569,588	-5,5	-2,037
571,592	-2,5	-1,26
573,596	1,5	-0,508
575,6	2,5	-0,001
577,604	2,5	-0,011
579,608	1	-0,154
617,844	-17,5	-3,499
619,854	-17,5	-3,49
621,863	-15,5	-3,42
623,867	-9,5	-2,734
625,865	-5	-1,872
627,869	-2	-1,062
629,873	2	-0,239
631,877	2	-0,002
633,881	2	-0,032
635,879	0	-0,379
637,889	-2,5	-1,206
639,892	-7,5	-2,021
641,896	-14	-2,767
643,894	-17,5	-3,5
645,898	-17	-3,496
647,902	-16,5	-3,45
649,912	-12	-3,135
651,916	-7,5	-2,39
653,92	-4	-1,65
655,923	-1	-0,829
657,928	2	-0,001
659,931	2	-0,005
661,935	1,5	-0,059
663,939	-0,5	-0,609
665,949	-3	-1,331
667,947	-7,5	-2,1
669,951	-14,5	-2,895
671,955	-17,5	-3,499
673,953	-17	-3,493
675,962	-15	-3,434
677,966	-10	-2,848
679,976	-5,5	-2,052
681,974	-3	-1,258
683,978	1,5	-0,386
685,988	2,5	-0,002
687,986	2	-0,022
689,996	0,5	-0,307
691,993	-2	-1,163
693,997	-6	-1,93
696,007	-13	-2,741
698,011	-17	-3,5
700,015	-17	-3,496
702,013	-16,5	-3,452
704,017	-11,5	-3,051
706,027	-6,5	-2,352
708,03	-3	-1,456
710,034	0	-0,584
712,038	2,5	-0,001
714,042	2,5	-0,014
716,046	1	-0,144
718,044	-1	-0,832
720,048	-5	-1,725
722,052	-9,5	-2,43
724,05	-16,5	-3,169
726,059	-17	-3,499
728,063	-16,5	-3,486
730,067	-14,5	-3,35
732,071	-8,5	-2,588
734,081	-4,5	-1,884
736,085	-2	-1,132
738,083	2	-0,35
740,087	2,5	-0,002
742,091	2,5	-0,018
744,088	1	-0,176
746,087	-1,5	-0,972
748,09	-4	-1,632
750,1	-9,5	-2,423
752,098	-16	-3,178
754,102	-17	-3,499
756,106	-16,5	-3,486
758,104	-14,5	-3,355
760,107	-7,5	-2,584
762,112	-4,5	-1,928
764,115	-2	-1,136
766,119	2	-0,324
768,117	3	-0,002
770,127	2,5	-0,019
772,131	0,5	-0,243
774,135	-1,5	-1,06
776,133	-5	-1,862
778,136	-11,5	-2,656
780,128	-16,5	-3,5
782,132	-16,5	-3,497
784,13	-16	-3,47
786,14	-12	-3,192
788,138	-6,5	-2,368
790,142	-3	-1,601
792,146	0	-0,782
794,144	2	0
796,147	2,5	-0,005
798,157	2	-0,051
800,155	-0,5	-0,592
802,165	-3,5	-1,434
804,169	-8,5	-2,22
806,179	-16	-3,089
808,183	-17	-3,499
810,181	-16,5	-3,487
812,191	-15	-3,4
814,194	-9	-2,82
816,21	-5	-2,107
818,214	-2,5	-1,377
820,218	0,5	-0,606
822,228	2,5	0
824,226	2,5	-0,004
826,23	2	-0,046
828,228	0	-0,544
830,231	-2,5	-1,285
832,235	-7	-2,056
834,239	-13,5	-2,776
836,249	-16,5	-3,5
838,253	-16,5	-3,495
840,257	-15	-3,437
842,255	-9	-2,829
844,259	-5	-2,04
846,263	-1,5	-1,199
848,26	2	-0,422
850,27	2,5	-0,001
852,274	2,5	-0,017
854,272	0,5	-0,175
856,276	-1	-0,814
858,28	-4,5	-1,654
860,284	-10	-2,495
862,288	-16	-3,213
864,292	-16,5	-3,499
866,295	-16	-3,49
868,299	-13,5	-3,366
870,309	-7,5	-2,636
872,307	-4,5	-1,973
874,311	-2	-1,222
876,315	1,5	-0,524
878,319	3	-0,001
880,323	2,5	-0,01
882,327	1,5	-0,139
884,33	-1	-0,85
886,352	-3,5	-1,549
888,344	-9,5	-2,43
890,354	-16	-3,157
892,352	-16,5	-3,499
894,362	-16	-3,488
896,366	-14,5	-3,386
898,364	-9	-2,754
900,368	-5	-2,076
902,371	-2	-1,209
904,369	1,5	-0,439
906,379	2,5	-0,001
908,383	3	-0,012
910,387	1,5	-0,127
912,391	-1	-0,859
914,401	-3	-1,562
916,399	-10	-2,419
918,414	-15,5	-3,101
920,412	-16	-3,499
922,416	-16	-3,488
924,426	-13,5	-3,344
926,424	-6,5	-2,508
928,428	-3	-1,703
930,426	-1	-0,875
932,424	2,5	-0,006
934,428	3	-0,003
936,425	2	-0,047
938,441	0	-0,452
940,445	-2	-1,23
1014,847	-4,5	-1,983
1016,845	-2	-1,202
1018,849	2	-0,413
1020,853	2,5	-0,001
1022,862	2,5	-0,006
1024,866	1,5	-0,084
1026,87	-0,5	-0,724
1028,88	-3,5	-1,52
1030,878	-8	-2,253
1032,882	-14,5	-2,977
1034,892	-16	-3,499
1036,896	-16	-3,494
1038,9	-14,5	-3,436
1040,897	-10	-2,979
1042,913	-5,5	-2,22
1044,911	-3	-1,511
1046,921	-0,5	-0,796
1048,925	2,5	0
1050,923	2,5	-0,005
1052,927	1,5	-0,06
1054,925	-0,5	-0,681
1056,929	-3	-1,448
1058,933	-7	-2,215
1060,936	-14	-2,988
1062,934	-15,5	-3,499
1064,938	-16	-3,495
1066,942	-15	-3,446
1068,94	-10	-3,005
1070,944	-5	-2,215
1072,942	-2,5	-1,443
1074,946	0	-0,672
1076,944	2,5	0
1078,947	2,5	-0,006
1080,951	2	-0,065
1082,949	0	-0,512
1084,953	-2	-1,333
1086,957	-6,5	-2,105
1088,955	-12	-2,764
1090,953	-16	-3,5
1092,95	-16	-3,496
1094,954	-15	-3,463
1096,958	-11	-3,137
1098,956	-5,5	-2,318
1100,961	-2,5	-1,51
1102,958	0	-0,733
1104,956	2,5	0
1106,96	2,5	-0,004
1108,958	1,5	-0,058
1110,967	0	-0,436
1112,965	-2,5	-1,276
1114,969	-6	-2,039
1116,967	-13,5	-2,874
1118,971	-16	-3,5
1120,975	-15,5	-3,495
1122,979	-15	-3,458
1124,977	-10,5	-3,064
1126,987	-6	-2,306
1128,99	-3	-1,579
1130,994	-0,5	-0,814
1132,998	2,5	-0,163
1135,002	2,5	-0,002
1137,012	2,5	-0,019
1139,01	1	-0,193
1141,008	-1	-1,018
1143,006	-4	-1,744
1145,016	-9,5	-2,515
1147,019	-15,5	-3,304
1149,023	-16	-3,498
1151,021	-15,5	-3,487
1153,031	-14,5	-3,399
1155,035	-8,5	-2,749
1157,039	-4,5	-1,997
1159,037	-1,5	-1,158
1161,053	1,5	-0,476
1163,057	2,5	-0,001
1165,054	3	-0,008
1167,058	2	-0,075
1169,068	0	-0,584
1171,072	-2,5	-1,382
1173,07	-6,5	-2,19
1175,074	-13,5	-2,99
1177,078	-15,5	-3,499
1179,082	-15,5	-3,493
1181,079	-13,5	-3,395
1183,083	-8,5	-2,714
1185,087	-4,5	-1,972
1187,091	-1,5	-1,131
1189,089	2	-0,328
1191,099	2,5	-0,001
1193,109	3	-0,016
1195,119	1	-0,166
1197,117	-1	-0,95
1199,126	-3,5	-1,644
1201,13	-8,5	-2,394
1203,128	-15	-3,161
1205,126	-15,5	-3,499
1207,136	-15,5	-3,493
1209,134	-13,5	-3,38
1211,144	-8,5	-2,748
1213,142	-4,5	-1,972
1215,145	-2,5	-1,344
1217,143	0,5	-0,536
1219,159	2,5	0
1221,157	2,5	-0,006
1223,161	2	-0,08
1225,159	0	-0,636
1227,163	-2,5	-1,382
1229,167	-6,5	-2,182
1231,165	-14	-3,007
1233,168	-15,5	-3,499
1235,172	-15,5	-3,486
1237,17	-13	-3,318
1239,174	-6,5	-2,548
1241,172	-3	-1,687
1243,176	-1	-0,911
1245,186	2,5	-0,16
1247,19	2,5	-0,002
1249,188	2	-0,036
1251,197	0,5	-0,339
1253,195	-2	-1,183
1255,211	-5	-1,849
1257,209	-11	-2,714
1259,213	-15,5	-3,45
1261,211	-15,5	-3,497
1263,227	-15	-3,472
1265,225	-11	-3,204
1267,229	-6	-2,563
1269,232	-3	-1,717
1271,23	-0,5	-0,905
1273,234	2,5	-0,13
1275,232	3	-0,003
1277,236	2	-0,038
1279,24	0	-0,368
1281,25	-2	-1,184
1283,248	-5,5	-1,949
1285,251	-11,5	-2,7
1287,249	-15,5	-3,5
1289,253	-15,5	-3,496
1291,251	-14,5	-3,452
1293,255	-8,5	-2,93
1295,247	-4	-2,039
1297,239	-1,5	-1,212
1299,249	2	-0,459
1301,247	3	-0,001
1303,251	2,5	-0,014
1305,248	1	-0,152
1307,252	-1,5	-0,97
1309,256	-4,5	-1,748
1311,26	-9,5	-2,499
1313,258	-15	-3,326
1315,256	-15,5	-3,498
1317,26	-15	-3,473
1319,258	-10,5	-3,133
1321,261	-6	-2,418
1323,265	-3	-1,7
1325,269	-1	-0,964
1327,267	2,5	-0,102
1329,271	2,5	-0,003
1331,269	2,5	-0,033
1333,267	0	-0,409
1335,271	-2	-1,194
1337,269	-6	-2,011
1339,272	-13	-2,927
1341,27	-15	-3,499
1343,28	-15	-3,494
1345,278	-14	-3,414
1347,288	-8,5	-2,859
1349,286	-3,5	-1,998
1351,296	-2	-1,223
1353,294	2,5	-0,286
1355,298	2,5	-0,002
1357,295	2,5	-0,016
1359,305	1	-0,148
1361,303	-1	-0,893
1363,307	-5	-1,72
1365,317	-10,5	-2,637
1367,315	-15	-3,496
1369,319	-15	-3,497
1371,317	-15	-3,455
1373,32	-9	-2,945
1375,312	-4,5	-2,044
1377,316	-1,5	-1,186
1379,314	2	-0,356
1381,318	2,5	-0,001
1383,316	2,5	-0,023
1385,32	0,5	-0,258
1387,324	-1	-0,968
1389,328	-4,5	-1,761
1391,331	-9,5	-2,565
1393,329	-15	-3,49
1395,345	-15	-3,497
1397,343	-15	-3,469
1399,347	-10	-3,103
1401,345	-5	-2,253
1403,355	-2,5	-1,468
1405,353	0,5	-0,57
1407,345	2,5	-0,001
1409,348	3	-0,014
1411,346	1	-0,192
1413,356	-1	-0,998
1415,354	-5	-1,954
1417,358	-12	-2,786
1419,362	-15	-3,5
1421,366	-15	-3,494
1423,37	-13,5	-3,389
1425,373	-7	-2,666
1427,377	-3	-1,786
1429,375	0	-0,856
1431,385	2,5	0
1433,389	3	-0,005
1435,393	1,5	-0,081
1437,391	-0,5	-0,864
1439,389	-4	-1,703
1441,393	-10	-2,64
1443,396	-15	-3,486
1445,394	-15	-3,496
1447,392	-14,5	-3,446
1449,39	-8,5	-2,844
1451,394	-4	-1,986
1453,392	-1,5	-1,087
1455,396	2,5	-0,248
1457,394	2,5	-0,002
1459,392	2,5	-0,044
1461,395	0	-0,586
1463,393	-2,5	-1,458
1465,397	-9,5	-2,475
1467,395	-15	-3,426
1469,399	-15	-3,496
1471,397	-14	-3,434
1473,401	-8	-2,82
1475,399	-3,5	-1,881
1477,397	-1	-0,981
1479,4	2,5	-0,078
1481,398	2,5	-0,004
1483,402	2	-0,058
1485,406	0	-0,604
1487,404	-3	-1,46
1489,408	-8	-2,365
1491,412	-15	-3,263
1493,416	-15	-3,498
1495,413	-15	-3,47
1497,417	-9	-3,03
1499,415	-4,5	-2,126
1501,413	-1,5	-1,271
1503,417	2,5	-0,37
1505,421	2,5	-0,002
1507,425	2,5	-0,021
1509,423	0	-0,42
1511,421	-2	-1,26
1513,424	-6,5	-2,183
1515,434	-14	-3,005
1517,438	-15	-3,499
1519,436	-15	-3,488
1521,434	-12	-3,334
1523,438	-6	-2,536
1525,448	-3	-1,761
1527,446	-1	-0,895
1529,444	2,5	-0,003
1531,453	2,5	-0,003
1533,451	2	-0,058
1535,449	-0,5	-0,645
1537,453	-2,5	-1,419
1539,451	-6,5	-2,19
1541,455	-13,5	-2,983
1543,453	-15	-3,499
1545,451	-15	-3,486
1547,467	-12,5	-3,348
1549,464	-6,5	-2,555
1551,468	-3	-1,756
1553,472	-1	-0,941
1555,476	3	-0,102
1557,486	2,5	-0,002
1559,49	2,5	-0,033
1561,494	0	-0,303
1563,492	-1,5	-1,164
1565,49	-5,5	-2,072
1567,493	-12,5	-2,899
1569,497	-15	-3,499
1571,495	-15	-3,494
1573,499	-14	-3,414
1575,503	-8	-2,752
1577,507	-4	-2,037
1579,505	-1,5	-1,14
1581,503	2	-0,288
1583,512	3	-0,002
1585,51	2,5	-0,02
1587,514	0,5	-0,251
1589,518	-1	-1,027
1591,516	-4,5	-1,85
1593,52	-10,5	-2,724
1595,518	-15	-3,5
1597,522	-15	-3,497
1599,52	-15	-3,47
1601,517	-10,5	-3,163
1603,521	-5,5	-2,427
1605,519	-3	-1,684
1607,517	-1	-0,94
1609,515	2,5	-0,18
1611,513	2,5	-0,002
1613,517	2,5	-0,016
1615,515	0,5	-0,201
1617,513	-1	-0,976
1619,516	-4,5	-1,749
1621,514	-9,5	-2,53
1623,518	-15	-3,378
1625,522	-15	-3,498
1627,52	-15	-3,476
1629,524	-11	-3,233
1631,522	-6	-2,515
1633,52	-3	-1,718
1635,523	-1	-0,917
1637,521	2,5	-0,123
1639,519	3	-0,003
1641,523	2,5	-0,042
1643,521	0	-0,408
1645,525	-1,5	-1,1
1647,529	-4,5	-1,852
1649,527	-10	-2,622
1651,537	-15	-3,371
1653,534	-15	-3,498
1655,54	-15	-3,478
1657,542	-10,5	-3,168
1659,54	-5,5	-2,393
1661,542	-2,5	-1,604
1663,542	-0,5	-0,801
1665,54	3	0
1667,544	2,5	-0,005
1669,548	2	-0,067
1671,551	0	-0,544
1673,555	-2	-1,391
1675,559	-5,5	-2,12
1677,563	-12	-2,874
1679,567	-15	-3,5
1681,565	-15	-3,495
1683,569	-14,5	-3,463
1685,567	-10,5	-3,194
1687,565	-5,5	-2,466
1689,568	-3	-1,768
1691,566	-1	-0,953
1693,564	3	-0,108
1695,568	3	-0,003
1697,566	2,5	-0,042
1699,564	0	-0,398
1701,568	-1,5	-1,192
1703,566	-5,5	-2,042
1705,57	-10,5	-2,793
1707,573	-15	-3,5
1709,571	-15	-3,496
1711,581	-14,5	-3,454
1713,579	-9	-2,941
1715,577	-4,5	-2,203
1717,581	-2	-1,345
1719,579	0	-0,675
1721,577	3	0
1723,587	2,5	-0,005
1725,584	2	-0,067
1727,588	0	-0,623
1729,586	-2,5	-1,436
1731,59	-5,5	-2,106
1733,588	-12	-2,946
1735,592	-15	-3,499
1737,59	-15	-3,494
1739,594	-13,5	-3,42
1741,591	-8,5	-2,853
1743,589	-4,5	-2,027
1745,599	-2	-1,261
1747,597	1,5	-0,479
1749,601	2,5	-0,001
1751,599	2,5	-0,016
1753,597	1	-0,134
1755,601	-1	-0,88
1757,598	-3	-1,566
1759,596	-8,5	-2,449
1761,6	-15	-3,322
1763,592	-15	-3,498
1765,59	-14,5	-3,468
1767,594	-9	-3,04
1769,586	-4,5	-2,171
1771,584	-1,5	-1,272
1773,588	1,5	-0,478
1775,58	3	-0,001
1777,583	3	-0,01
1779,581	1,5	-0,093
1781,579	-0,5	-0,755
1783,583	-4	-1,666
1785,581	-9	-2,447
1787,579	-15	-3,337
1789,583	-15	-3,498
1791,581	-14,5	-3,482
1793,572	-10	-3,202
1795,576	-6	-2,552
1797,574	-3	-1,872
1799,566	-1,5	-1,252
1801,564	1,5	-0,439
1803,562	2,5	-0,001
1805,56	2,5	-0,009
1807,564	1,5	-0,094
1809,562	-0,5	-0,664
1811,565	-2	-1,334
1813,563	-5	-1,999
1815,561	-12	-2,85
1817,565	-15	-3,5
1819,563	-15	-3,496
1821,561	-13,5	-3,445
1823,565	-8	-2,882
1825,563	-4	-2,069
1827,561	-1,5	-1,202
1829,564	1,5	-0,483
1831,562	2,5	-0,001
1833,56	2,5	-0,012
1835,564	1	-0,172
1837,562	-0,5	-0,901
1839,56	-3,5	-1,667
1841,564	-7,5	-2,434
1843,562	-14	-3,201
1845,56	-15	-3,498
1847,557	-14,5	-3,481
1849,561	-12	-3,356
1851,559	-6,5	-2,746
1853,563	-3,5	-2,027
1855,561	-2	-1,341
1857,559	0,5	-0,672
1859,557	2,5	-0,001
1861,561	2,5	-0,009
1863,558	1,5	-0,076
1865,562	0	-0,56
1867,56	-1,5	-1,314
1869,558	-5,5	-2,005
1871,556	-10,5	-2,734
1873,554	-14,5	-3,432
1875,552	-14,5	-3,498
1877,556	-14	-3,474
1879,56	-11	-3,293
1881,557	-5,5	-2,526
1883,555	-3	-1,871
1885,559	-2	-1,337
1887,557	1,5	-0,566
1889,555	2,5	0
1891,559	2,5	-0,005
1893,557	2	-0,047
1895,555	0	-0,424
1897,559	-1,5	-1,213
1899,556	-5	-1,983
1901,554	-10,5	-2,758
1903,558	-14,5	-3,492
1905,556	-14,5	-3,496
1907,554	-13,5	-3,463
1909,552	-9,5	-3,187
1911,544	-5	-2,37
1913,542	-2,5	-1,562
1915,546	0	-0,747
1917,543	2,5	0
1919,541	2,5	-0,004
1921,569	2	-0,043
1923,567	0	-0,432
1925,565	-1	-1,133
1927,575	-4	-1,775
1929,573	-8,5	-2,481
1931,571	-14,5	-3,388
1933,574	-14,5	-3,498
1935,572	-14	-3,481
1937,57	-10,5	-3,302
1939,568	-6	-2,672
1941,572	-3,5	-2,001
1943,57	-1,5	-1,305
1945,568	1,5	-0,534
1947,572	2,5	-0,001
1949,57	2,5	-0,005
1951,567	2,5	-0,039
1953,565	0	-0,376
1955,563	-1	-1,12
1957,561	-4	-1,833
1959,565	-8,5	-2,537
1961,563	-14,5	-3,318
1963,561	-14	-3,498
1965,565	-14	-3,485
1967,569	-11,5	-3,359
1969,566	-6	-2,652
1971,57	-3	-1,821
1973,568	-1	-1,025
1975,566	2,5	-0,262
1977,57	2,5	-0,001
1979,568	2,5	-0,009
1981,566	1,5	-0,061
1983,57	0	-0,521
1985,567	-2	-1,27
1987,565	-4,5	-1,998
1989,569	-10,5	-2,766
1991,567	-14	-3,5
1993,571	-14	-3,495
1995,575	-13,5	-3,464
1997,567	-8	-2,984
1999,565	-3,5	-2,112
2001,569	-2	-1,498
2003,566	0	-0,739
2005,564	3	0
2007,562	3	-0,006
2009,566	2	-0,049
2011,564	0	-0,47
2013,562	-1,5	-1,283
2015,56	-4,5	-2,01
2017,564	-10	-2,779
2019,562	-14	-3,5
2021,559	-14	-3,496
2023,563	-13,5	-3,464
2025,561	-9	-3,125
2027,553	-5	-2,372
2029,563	-2,5	-1,71
2031,561	-0,5	-0,965
2033,559	2,5	-0,143
2035,563	3	-0,002
2037,561	2,5	-0,031
2039,558	0,5	-0,34
2041,556	-0,5	-1,041
2043,56	-3,5	-1,862
2045,558	-9	-2,664
2047,556	-13,5	-3,451
2049,56	-13,5	-3,498
2051,558	-13,5	-3,474
2053,556	-9	-3,132
2055,56	-5	-2,467
2057,557	-2,5	-1,586
2059,555	-0,5	-0,883
2061,56	2,5	-0,137
2063,557	2,5	-0,002
2065,555	2,5	-0,034
2067,559	0,5	-0,397
2069,557	-1	-1,157
2071,555	-4	-1,928
2073,552	-9,5	-2,699
2075,556	-13,5	-3,5
2077,554	-14	-3,496
2079,552	-13	-3,45
2081,556	-9	-3,134
2083,554	-4,5	-2,379
2085,552	-2	-1,566
2087,55	-1	-0,864
2089,554	2,5	-0,122
2091,557	2,5	-0,002
2093,555	2	-0,035
2095,553	0,5	-0,336
2097,557	-1	-1,14
2135,697	-13,5	-3,498
2137,701	-13	-3,48
2139,699	-9	-3,236
2141,697	-5	-2,469
2143,694	-2,5	-1,704
2145,692	-0,5	-0,939
2147,696	3	-0,118
2149,7	3	-0,002
2151,698	2,5	-0,036
2153,696	0,5	-0,437
2155,694	-1	-1,24
2157,698	-4	-1,991
2159,696	-8,5	-2,692
2161,693	-13	-3,412
2163,697	-13	-3,498
2165,695	-13	-3,48
2167,693	-9,5	-3,26
2169,691	-5	-2,461
2171,689	-2	-1,681
2173,687	-0,5	-0,931
2175,685	3	-0,13
2177,689	3	-0,003
2179,686	3	-0,028
2181,684	1	-0,271
2183,682	0	-0,925
2185,686	-2,5	-1,704
2187,684	-6,5	-2,496
2189,682	-12,5	-3,255
2191,692	-13	-3,499
2193,69	-13	-3,486
2195,688	-10,5	-3,338
2197,685	-5,5	-2,634
2199,683	-3	-1,88
2201,687	-1	-1,128
2203,685	2	-0,314
2205,689	3	-0,002
2207,687	3	-0,018
2209,685	1,5	-0,172
2211,683	0	-0,989
2213,686	-2	-1,592
2215,684	-5,5	-2,405
2217,676	-12,5	-3,165
2219,674	-13	-3,499
2221,684	-12,5	-3,488
2223,682	-9,5	-3,334
2225,68	-5,5	-2,616
2227,684	-2,5	-1,881
2229,682	-1	-1,111
2231,679	2,5	-0,279
2233,677	3	-0,001
2235,681	3	-0,013
2237,679	1,5	-0,149
2239,677	0	-0,939
2241,675	-3	-1,746
2243,673	-7,5	-2,516
2245,671	-12,5	-3,349
2247,669	-13	-3,498
2249,672	-12	-3,478
2251,67	-8	-3,2
2253,668	-4	-2,414
2255,666	-2	-1,58
2257,67	0	-0,86
2259,668	3	-0,003
2261,666	2,5	-0,004
2263,664	2	-0,048
2265,673	0	-0,478
2267,671	-1,5	-1,297
2269,669	-4,5	-2,051
2271,667	-10,5	-2,902
2273,665	-12,5	-3,499
2275,663	-12,5	-3,493
2277,661	-10	-3,4
2279,659	-5,5	-2,783
2281,663	-3	-1,975
2283,66	-1	-1,194
2285,658	2	-0,349
2287,662	2,5	-0,002
2289,66	2,5	-0,022
2291,658	1	-0,263
2293,656	-0,5	-1,142
2295,66	-3	-1,85
2297,658	-9	-2,791
2299,656	-12,5	-3,5
2301,653	-12,5	-3,496
2303,657	-12	-3,469
2305,655	-8	-3,15
2307,653	-4,5	-2,395
2309,657	-2	-1,575
2311,661	0	-0,76
2313,659	2,5	-0,006
2315,657	2,5	-0,004
2317,66	2	-0,053
2319,658	0	-0,551
2321,656	-1	-1,305
2323,654	-4,5	-2,134
2325,658	-10,5	-2,95
2327,662	-12	-3,499
2329,66	-12,5	-3,494
2331,658	-11,5	-3,443
2333,662	-7	-3,054
2335,66	-4	-2,283
2337,657	-2	-1,485
2339,655	0	-0,692
2341,659	2,5	-0,001
2343,657	2,5	-0,009
2345,655	1,5	-0,11
2347,659	0	-0,764
2349,657	-2	-1,585
2351,655	-5,5	-2,4
2353,652	-12	-3,225
2355,65	-12	-3,498
2357,648	-12	-3,481
2359,642	-8	-3,194
2361,638	-4,5	-2,424
2363,642	-2	-1,671
2365,64	0	-0,844
2367,638	3	-0,018
2369,636	3	-0,003
2371,639	2	-0,048
2373,631	0	-0,63
2375,629	-1,5	-1,46
2377,627	-5	-2,299
2379,631	-10,5	-3,04
2381,629	-12	-3,499
2383,627	-12	-3,492
2385,625	-10,5	-3,414
2387,628	-6	-2,864
2389,626	-3	-2,071
2391,619	-1	-1,202
2393,616	2	-0,389
2395,62	3	-0,001
2397,618	2,5	-0,01
2399,61	1,5	-0,129
2401,614	0	-0,809
2403,612	-2	-1,66
2405,609	-6	-2,456
2407,607	-12	-3,284
2409,611	-12	-3,498
2411,609	-12	-3,48
2413,607	-8,5	-3,217
2415,611	-4,5	-2,493
2417,609	-2,5	-1,755
2419,607	-0,5	-0,962
2421,611	2,5	-0,257
2423,614	3	-0,002
2425,612	2,5	-0,02
2427,604	1	-0,271
2429,602	-1	-1,082
2431,6	-3,5	-1,942
2433,598	-8,5	-2,75
2435,596	-12	-3,5
2437,606	-12	-3,496
2439,604	-11,5	-3,46
2441,601	-7	-3,072
2443,599	-3	-2,221
2445,603	-1,5	-1,37
2447,601	1,5	-0,582
2449,599	3	-0,001
2451,597	3	-0,01
2453,595	1,5	-0,135
2455,587	0	-0,85
2457,585	-2	-1,67
2459,582	-6	-2,456
2461,586	-12	-3,264
2463,59	-12	-3,498
2465,588	-12	-3,482
2467,586	-9	-3,29
2469,596	-5	-2,686
2471,594	-2,5	-1,863
2473,592	-0,5	-0,939
2475,59	2,5	-0,071
2477,593	2,5	-0,004
2479,591	1,5	-0,069
2481,589	0	-0,707
2483,587	-2	-1,589
2485,591	-6	-2,425
2487,589	-12	-3,312
2489,587	-12	-3,498
2491,585	-11,5	-3,462
2493,589	-7	-2,989
2495,586	-3	-2,096
2497,584	-1,5	-1,283
2499,582	1,5	-0,515
2501,586	2,5	-0,001
2503,59	2,5	-0,015
2505,588	1	-0,19
2507,592	-0,5	-1,03
2509,59	-3	-1,886
2511,588	-7	-2,683
2513,585	-12	-3,5
2515,589	-12	-3,496
2517,587	-11	-3,449
2519,585	-6	-2,895
2521,583	-2,5	-2,029
2523,581	-1	-1,328
2525,585	0,5	-0,614
2527,583	2,5	-0,001
2529,58	3	-0,005
2531,578	2	-0,063
2533,582	0	-0,585
2535,58	-1	-1,355
2537,578	-4,5	-2,216
2539,576	-10	-2,944
2541,58	-11,5	-3,499
2543,578	-12	-3,495
2545,575	-10,5	-3,438
2547,579	-6,5	-2,936
2549,577	-3,5	-2,208
2551,575	-1,5	-1,453
2553,579	0	-0,734
2555,583	3	0
2557,581	3	-0,004
2559,579	2,5	-0,043
2561,577	0,5	-0,401
2563,58	-0,5	-1,164
2565,578	-3,5	-2,024
2567,576	-8	-2,794
2569,58	-12	-3,5
2571,584	-12	-3,497
2573,582	-11	-3,453
2575,58	-6,5	-2,958
2577,584	-3	-2,137
2579,582	-1,5	-1,394
2581,579	0	-0,714
2583,577	2,5	-0,022
2585,575	3	-0,004
2587,585	2	-0,04
2589,583	0,5	-0,364
2591,581	-0,5	-1,184
2593,579	-3,5	-2,012
2595,583	-7	-2,678
2597,581	-11,5	-3,5
2599,578	-11,5	-3,496
2601,576	-10,5	-3,446
2603,58	-6	-2,921
2605,578	-3	-2,104
2607,576	-1	-1,27
2609,574	1,5	-0,413
2611,572	2,5	-0,001
2613,57	2,5	-0,022
2615,568	0,5	-0,207
2617,565	0	-0,943
2619,569	-2,5	-1,725
2621,567	-6	-2,564
2623,571	-11,5	-3,333
2625,569	-11	-3,498
2627,567	-10,5	-3,469
2629,571	-8	-3,186
2631,569	-4	-2,341
2633,566	-1,5	-1,513
2635,564	0	-0,754
2637,568	2,5	0
2639,566	2,5	-0,006
2641,564	1,5	-0,077
2643,562	0	-0,706
2645,56	-1,5	-1,446
2647,564	-4,5	-2,28
2649,562	-10,5	-3,158
2651,559	-11,5	-3,499
2653,557	-11	-3,485
2655,561	-8,5	-3,301
2657,559	-4	-2,447
2659,557	-2	-1,756
2661,555	-0,5	-0,901
2663,559	2,5	-0,064
2665,557	3	-0,004
2667,555	2	-0,066
2669,552	0	-0,696
2671,556	-1	-1,49
2673,554	-5	-2,43
2675,552	-11	-3,258
2677,544	-11	-3,498
2679,548	-11	-3,476
2681,546	-7,5	-3,241
2683,544	-3,5	-2,406
2685,542	-1,5	-1,513
2687,539	0	-0,658
2689,543	2,5	-0,001
2691,541	2,5	-0,008
2693,539	1,5	-0,113
2695,537	0	-0,795
2697,535	-1,5	-1,683
2699,533	-5	-2,406
2701,531	-10,5	-3,167
2703,528	-11	-3,499
2705,532	-11	-3,489
2707,53	-10	-3,395
2709,528	-5,5	-2,742
2711,526	-3	-2,056
2713,53	-1	-1,232
2715,528	1	-0,476
2717,526	3	-0,001
2719,524	2,5	-0,01
2721,527	1,5	-0,104
2723,525	0	-0,759
2725,523	-1,5	-1,54
2727,521	-5	-2,368
2729,525	-10	-3,185
2731,523	-11	-3,499
2733,521	-11	-3,484
2735,519	-9	-3,339
2737,523	-4,5	-2,591
2739,52	-2,5	-1,799
2741,518	-1	-1,092
2743,516	2	-0,331
2745,514	3	-0,002
2747,518	2,5	-0,02
2749,516	0,5	-0,227
2751,514	-0,5	-1,079
2753,512	-3	-1,885
2755,515	-7,5	-2,765
2757,513	-11	-3,5
2759,511	-11	-3,496
2761,503	-10	-3,454
2763,501	-6,5	-3,195
2765,505	-4	-2,524
2767,503	-2	-1,753
2769,501	-0,5	-1,041
2771,499	2,5	-0,279
2773,502	3	-0,001
2775,5	2,5	-0,016
2777,498	1	-0,172
2779,496	0	-0,864
2781,494	-1,5	-1,581
2783,498	-4,5	-2,285
2785,496	-10,5	-3,067
2787,494	-10,5	-3,499
2789,498	-10,5	-3,492
2791,501	-10	-3,441
2793,499	-5,5	-2,972
2795,497	-3	-2,293
2797,495	-1,5	-1,533
2799,499	0	-0,861
2801,497	2,5	-0,089
2803,495	2,5	-0,003
2805,493	2	-0,033
2807,497	0,5	-0,281
2809,5	0	-1,024
2811,498	-2	-1,736
2813,496	-5,5	-2,518
2815,494	-10,5	-3,293
2817,498	-10,5	-3,498
2819,496	-10,5	-3,482
2821,494	-7	-3,255
2823,492	-4	-2,492
2825,495	-2	-1,8
2827,493	-0,5	-0,96
2829,491	2,5	-0,163
2831,489	2,5	-0,002
2833,487	2,5	-0,027
2835,485	0,5	-0,285
2837,483	-0,5	-1,081
2839,481	-2	-1,788
2841,485	-5,5	-2,512
2843,488	-10,5	-3,284
2845,486	-10,5	-3,498
2847,484	-10	-3,477
2849,482	-7	-3,233
2851,486	-3,5	-2,389
2853,478	-1,5	-1,627
2855,476	0	-0,84
2857,468	2,5	-0,008
2859,472	2,5	-0,003
2861,469	2,5	-0,031
2863,467	0,5	-0,256
2865,465	-0,5	-1,043
2867,469	-2,5	-1,81
2869,467	-6	-2,624
2871,465	-10	-3,338
2873,457	-10,5	-3,498
2875,455	-10	-3,472
2877,459	-7	-3,217
2879,456	-3,5	-2,458
2881,454	-1,5	-1,613
2883,446	0	-0,812
2885,444	2,5	0
2887,442	2,5	-0,005
2889,446	2	-0,048
2891,444	0	-0,545
2893,442	-0,5	-1,305
2895,44	-3	-2,059
2897,437	-7	-2,825
2899,441	-10	-3,5
2901,439	-10,5	-3,497
2903,443	-10	-3,46
2905,447	-5,5	-3,032
2907,445	-3	-2,212
2909,443	-1	-1,38
2911,441	0,5	-0,635
2913,438	3	-0,001
2915,436	2,5	-0,012
2917,434	1,5	-0,162
2919,432	0	-0,965
2921,43	-2	-1,821
2923,428	-6	-2,693
2925,426	-9,5	-3,491
2927,43	-9,5	-3,497
2929,428	-9	-3,458
2931,425	-6	-3,162
2933,423	-3	-2,429
2935,427	-1,5	-1,715
2937,425	0	-0,929
2939,423	3	-0,256
2941,421	3	-0,002
2943,413	3	-0,013
2945,417	1,5	-0,089
2947,415	0	-0,56
2949,412	-0,5	-1,33
2951,41	-2,5	-1,968
2953,408	-5,5	-2,702
2955,412	-9	-3,457
2957,41	-9	-3,498
2959,408	-8,5	-3,474
2961,412	-6	-3,278
2963,41	-3,5	-2,572
2965,408	-1,5	-1,76
3003,529	3	-0,006
3005,527	2	-0,052
3007,525	0,5	-0,44
3009,529	0	-1,147
3011,527	-1,5	-1,886
3013,525	-4,5	-2,593
3015,523	-8,5	-3,327
3017,521	-8,5	-3,498
3019,524	-8,5	-3,484
3021,522	-6,5	-3,344
3023,52	-3,5	-2,597
3025,518	-1,5	-1,837
3027,522	-0,5	-1,146
3029,52	2,5	-0,421
3031,518	2,5	-0,001
3033,516	2,5	-0,01
3035,513	1,5	-0,104
3037,517	0	-0,653
3039,515	-0,5	-1,393
3041,513	-2,5	-2,088
3043,511	-4,5	-2,748
3045,515	-8,5	-3,498
3047,513	-9	-3,497
3049,511	-8,5	-3,466
3051,509	-5,5	-3,171
3053,506	-3	-2,352
3055,51	-1	-1,613
3057,508	0	-0,821
3059,5	3	0
3061,498	2,5	-0,005
3063,496	2	-0,059
3065,5	0	-0,482
3067,498	0	-1,157
3069,496	-1,5	-1,939
3071,493	-5	-2,682
3073,491	-8,5	-3,372
3111,619	-3	-2,623
3113,617	-1,5	-1,937
3115,621	-0,5	-1,213
3117,619	2	-0,43
3119,617	3	-0,001
3121,615	2,5	-0,014
3123,613	1,5	-0,134
3125,622	0	-0,715
3127,62	-0,5	-1,39
3129,618	-2,5	-2,23
3131,616	-7	-3,049
3133,62	-8	-3,499
3135,618	-8	-3,492
3137,616	-7	-3,431
3139,614	-4	-2,907
3141,611	-2	-2,158
3143,615	-0,5	-1,418
3145,613	0,5	-0,701
3147,611	2,5	-0,006
3149,609	3	-0,003
3151,607	2,5	-0,038
3153,599	1	-0,298
3155,603	0	-0,933
3157,6	-0,5	-1,655
3159,598	-3	-2,313
3161,596	-6,5	-3,041
3163,594	-8	-3,499
3165,604	-8	-3,494
3167,602	-7,5	-3,438
3169,6	-4,5	-2,923
3171,598	-2,5	-2,226
3173,596	-1	-1,567
3175,593	0	-0,878
3177,597	2,5	-0,233
3179,595	2,5	-0,002
3181,593	2,5	-0,016
3183,591	1	-0,138
3185,589	0	-0,768
3187,599	-0,5	-1,399
3189,597	-2	-2,2
3191,595	-5	-2,806
3193,592	-8	-3,5
3195,596	-8	-3,497
3197,6	-7,5	-3,468
3199,598	-4,5	-3,036
3201,596	-2,5	-2,286
3203,594	-1	-1,628
3205,592	0	-0,932
3207,596	2,5	-0,197
3209,6	3	-0,002
3211,603	2,5	-0,016
3213,601	1	-0,131
3215,599	0	-0,818
3217,603	-0,5	-1,58
3219,601	-2,5	-2,238
3221,599	-5	-2,908
3223,603	-8	-3,499
3225,601	-8	-3,494
3227,605	-7,5	-3,457
3229,602	-4,5	-3,047
3231,606	-2,5	-2,338
3233,616	-1,5	-1,718
3235,374	2,5	-0,001