File: ensaios_Ciclicos/_40perc/_4gap/entrada/_4.txt
Time (s)	Load (N)	Displacement (mm)
36,363	-16,5	-3,057
38,271	-9	-2,044
40,167	-3,5	-1,013
42,075	1,5	0
43,977	1,5	-0,017
45,878	-1	-0,462
47,774	-8	-1,514
49,67	-18,5	-2,61
51,572	-23	-3,499
53,48	-22,5	-3,485
55,394	-18	-3,196
57,308	-10,5	-2,282
59,204	-5	-1,299
61,118	0,5	-0,336
63,026	1,5	-0,005
64,927	0	-0,099
66,829	-3	-0,898
68,743	-9,5	-1,813
70,651	-18	-2,751
72,571	-22,5	-3,499
74,473	-22	-3,486
76,381	-14,5	-3,233
78,295	-11	-2,376
80,191	-5	-1,399
82,104	0,5	-0,5
84,006	2	-0,003
85,92	1,5	-0,04
87,828	-2,5	-0,702
89,737	-9	-1,731
91,65	-18,5	-2,736
93,552	-22	-3,499
95,454	-21,5	-3,482
97,367	-15	-3,108
99,281	-8	-2,115
101,189	-3	-1,122
103,109	2	-0,084
105,023	1,5	-0,009
106,925	0	-0,158
108,839	-3,5	-0,998
110,747	-11	-1,98
112,655	-18,5	-2,907
114,563	-21,5	-3,499
116,476	-21	-3,48
118,378	-15	-3,088
120,286	-8	-2,15
122,194	-4	-1,311
124,104	1,5	-0,378
126,028	2	-0,003
127,924	1,5	-0,059
129,838	-1,5	-0,685
131,746	-7,5	-1,629
133,653	-15	-2,556
135,567	-21	-3,394
137,475	-21	-3,494
139,389	-19	-3,421
141,303	-12	-2,771
143,217	-6,5	-1,916
181,441	-20,5	-3,496
183,355	-19,5	-3,446
185,271	-12	-2,791
187,183	-6	-1,973
189,09	-2,5	-1,03
190,998	2	-0,184
192,918	2	-0,005
194,832	1,5	-0,073
196,752	-1,5	-0,75
198,678	-7	-1,662
200,592	-14,5	-2,603
202,505	-20,5	-3,496
204,419	-20	-3,492
206,327	-18	-3,391
208,241	-10	-2,602
210,167	-5,5	-1,766
212,083	-1,5	-0,898
213,995	2	-0,059
215,915	2	-0,009
217,823	0	-0,17
219,731	-3	-1,057
221,656	-8,5	-1,943
223,571	-18	-2,809
225,49	-20	-3,499
227,404	-19,5	-3,486
229,324	-16	-3,303
231,232	-8,5	-2,382
233,152	-4	-1,428
235,06	1,5	-0,415
236,986	2,5	-0,002
238,899	2	-0,037
240,819	-0,5	-0,523
242,733	-5	-1,446
244,641	-12,5	-2,39
246,561	-19,5	-3,295
248,475	-19,5	-3,496
250,395	-18	-3,425
252,309	-10,5	-2,682
254,217	-5	-1,753
256,124	-1	-0,804
258,038	2,5	-0,001
259,946	2	-0,024
261,86	0	-0,355
263,774	-4,5	-1,38
265,682	-12,5	-2,377
267,596	-19,5	-3,32
269,516	-19,5	-3,496
271,423	-18	-3,421
273,331	-10	-2,636
275,239	-4,5	-1,682
277,153	0	-0,705
279,061	2,5	-0,001
280,969	2,5	-0,032
282,883	0	-0,527
284,797	-5	-1,439
286,705	-11	-2,374
288,619	-19,5	-3,338
290,532	-19,5	-3,495
292,446	-18	-3,422
294,366	-11	-2,773
296,274	-5,5	-1,92
298,194	-2,5	-1,052
300,108	2	-0,175
302,022	2	-0,006
303,924	1	-0,115
305,838	-3	-1,034
307,751	-8	-1,932
309,671	-15	-2,758
311,585	-19,5	-3,499
313,493	-19,5	-3,483
315,401	-13,5	-3,198
317,327	-8,5	-2,413
319,235	-4	-1,454
321,149	0,5	-0,551
323,057	2,5	-0,002
324,964	2	-0,038
363,206	-2	-0,982
365,114	2,5	-0,027
367,034	2,5	-0,008
368,954	1	-0,124
370,862	-2	-0,975
372,776	-6,5	-1,857
374,684	-16	-2,913
376,599	-19	-3,499
378,517	-19	-3,48
380,437	-14	-3,18
382,345	-7	-2,241
384,253	-3,5	-1,32
386,161	2	-0,282
388,069	3	-0,005
389,977	1,5	-0,084
391,885	-1	-0,822
393,811	-5,5	-1,666
395,718	-13	-2,653
397,626	-19	-3,499
399,534	-18,5	-3,49
401,448	-15	-3,308
403,362	-8	-2,402
405,276	-4	-1,487
407,184	0,5	-0,579
409,104	2,5	-0,002
411,012	2,5	-0,041
412,925	-0,5	-0,586
414,839	-4	-1,479
416,753	-11	-2,44
418,661	-19	-3,364
420,569	-19	-3,494
422,477	-16,5	-3,385
424,385	-9	-2,567
426,299	-4,5	-1,686
428,213	-1	-0,803
430,127	2,5	-0,001
432,04	2,5	-0,009
433,955	1,5	-0,142
435,862	-2	-0,998
437,776	-6,5	-1,9
439,684	-15	-2,85
441,598	-18,5	-3,499
443,506	-18,5	-3,474
445,414	-12,5	-3,016
447,327	-6	-2,133
449,235	-2,5	-1,126
451,143	2,5	-0,159
453,045	2,5	-0,007
454,953	1,5	-0,127
456,861	-2,5	-0,992
458,769	-7,5	-1,994
460,677	-18,5	-2,965
462,585	-18,5	-3,498
464,499	-18,5	-3,47
466,412	-12,5	-3,032
468,326	-6	-2,14
470,234	-3	-1,274
472,136	2	-0,285
474,044	2,5	-0,005
475,952	1,5	-0,099
477,87	-1	-0,864
479,78	-7	-1,978
481,694	-16	-3,009
483,607	-18,5	-3,498
485,515	-18	-3,465
487,423	-9,5	-2,751
489,337	-5	-1,854
491,245	-0,5	-0,831
493,153	2,5	-0,001
495,055	2,5	-0,027
496,973	0	-0,572
498,881	-5	-1,644
500,796	-12,5	-2,647
502,698	-18	-3,499
504,606	-18	-3,484
506,52	-12,5	-3,13
508,428	-5,5	-1,99
510,342	-1,5	-0,916
512,25	2,5	0
514,158	2,5	-0,014
516,066	0,5	-0,283
517,979	-2,5	-1,222
519,887	-8,5	-2,214
521,789	-18	-3,413
523,697	-18,5	-3,493
525,605	-16	-3,371
527,519	-8,5	-2,557
529,421	-4	-1,566
531,329	0	-0,595
533,243	2,5	-0,001
535,151	2,5	-0,031
537,064	0	-0,6
538,972	-5	-1,709
540,88	-14,5	-2,796
542,794	-18,5	-3,499
653,44	-3	-1,282
655,354	2	-0,394
657,273	2,5	-0,003
659,184	2	-0,057
661,083	-0,5	-0,697
662,979	-4,5	-1,67
664,893	-14,5	-2,808
666,801	-17,5	-3,499
668,709	-17,5	-3,481
670,617	-12	-3,092
672,525	-5,5	-2,19
674,433	-2	-1,172
676,334	2,5	-0,27
678,242	2,5	-0,008
680,156	1	-0,18
682,07	-2	-1,094
683,978	-7	-2,096
685,88	-16,5	-3,078
687,795	-18	-3,498
689,708	-17	-3,473
691,616	-11	-3,018
693,517	-5	-2,027
695,425	-1,5	-1,088
697,321	3	-0,092
699,235	3	-0,006
701,137	1,5	-0,107
703,045	-1,5	-0,953
704,959	-7	-2,059
706,861	-16	-3,06
708,769	-17,5	-3,498
710,67	-16	-3,443
712,584	-9,5	-2,857
714,492	-4,5	-1,86
716,394	-1,5	-0,928
718,314	2,5	-0,053
720,222	3	-0,008
722,124	1	-0,145
724,032	-1,5	-0,964
725,952	-5,5	-1,78
727,859	-12	-2,65
729,773	-17,5	-3,5
731,675	-17,5	-3,49
733,583	-13,5	-3,357
735,491	-8	-2,598
737,399	-3,5	-1,643
739,301	0	-0,69
741,215	2,5	-0,001
743,117	2	-0,031
745,024	0	-0,432
746,932	-3	-1,339
748,834	-8,5	-2,27
750,748	-17	-3,1
752,658	-17,5	-3,497
754,564	-17	-3,461
756,472	-11,5	-3,023
758,38	-5,5	-2,212
760,288	-2,5	-1,338
762,19	1,5	-0,475
764,103	2,5	-0,002
766,011	2,5	-0,025
767,913	0	-0,354
769,821	-3	-1,32
771,735	-8	-2,198
773,637	-17	-3,145
775,545	-17,5	-3,497
777,453	-17	-3,466
779,354	-11,5	-3,044
781,262	-5,5	-2,169
783,17	-2,5	-1,232
785,078	2	-0,301
786,986	2,5	-0,003
788,888	2	-0,051
790,796	0	-0,548
792,704	-4	-1,497
794,612	-9	-2,355
796,514	-17	-3,237
798,427	-17,5	-3,496
800,335	-16,5	-3,445
802,243	-10	-2,92
804,151	-5	-2,051
806,059	-2	-1,127
807,961	2,5	-0,016
809,869	2,5	-0,013
811,783	1	-0,156
813,691	-1	-0,908
815,598	-5,5	-1,834
817,5	-13	-2,719
819,408	-17,5	-3,499
821,316	-17	-3,489
823,218	-13,5	-3,326
825,132	-7,5	-2,448
827,034	-3	-1,566
828,948	-1	-0,821
830,856	2,5	0
832,757	2,5	-0,013
834,665	1	-0,166
836,573	-1,5	-0,93
838,481	-6,5	-2,059
840,389	-14,5	-2,956
842,303	-17	-3,498
844,205	-17	-3,476
846,119	-12	-3,138
848,033	-6,5	-2,406
849,934	-3	-1,526
851,842	0	-0,748
853,75	2,5	-0,001
855,658	2,5	-0,009
857,566	1	-0,204
859,474	-2,5	-1,234
861,382	-8,5	-2,253
863,284	-17	-3,191
865,192	-17	-3,496
867,093	-16	-3,446
869,001	-9,5	-2,909
943,319	2,5	-0,137
945,227	2,5	-0,006
947,135	1,5	-0,08
949,037	-0,5	-0,753
950,945	-3,5	-1,606
952,853	-9,5	-2,412
954,755	-17	-3,235
956,662	-17	-3,497
958,57	-16,5	-3,466
960,478	-12	-3,125
962,392	-6	-2,284
964,294	-2,5	-1,375
966,202	1	-0,472
968,104	3	-0,002
970,018	2,5	-0,019
971,92	0,5	-0,334
973,833	-2	-1,135
975,741	-5,5	-1,914
977,643	-12	-2,719
979,557	-16,5	-3,497
981,459	-16,5	-3,491
983,367	-14,5	-3,366
985,269	-8	-2,647
987,183	-4,5	-1,883
989,084	-1,5	-1,046
990,992	2,5	-0,298
992,894	3	-0,003
994,802	2,5	-0,036
996,704	0	-0,516
998,612	-3	-1,391
1000,514	-9	-2,254
1002,422	-16,5	-3,201
1004,336	-16,5	-3,497
1006,238	-15	-3,458
1008,145	-10,5	-2,972
1010,047	-5	-2,079
1011,955	-2,5	-1,246
1013,857	2	-0,34
1015,765	2,5	-0,003
1017,667	2	-0,043
1019,581	0	-0,504
1021,483	-2,5	-1,373
1023,391	-7,5	-2,237
1025,292	-15,5	-3,099
1027,2	-17	-3,497
1029,102	-16,5	-3,472
1031,01	-11	-3,111
1032,918	-6	-2,353
1034,826	-3	-1,526
1036,74	0	-0,638
1038,648	2,5	-0,001
1040,55	2,5	-0,026
1042,451	0	-0,312
1044,359	-2	-1,201
1046,267	-8	-2,251
1048,175	-15	-3,121
1050,083	-17	-3,497
1051,991	-15,5	-3,451
1053,899	-11	-3,013
1055,813	-5	-2,052
1057,721	-2	-1,187
1059,623	2,5	-0,17
1061,524	2,5	-0,005
1063,432	2	-0,078
1065,34	-0,5	-0,695
1067,242	-3	-1,515
1069,162	-7,5	-2,224
1071,064	-16,5	-3,125
1072,978	-17	-3,497
1074,88	-16	-3,466
1076,787	-10	-3,053
1078,69	-5	-2,222
1080,597	-2,5	-1,394
1082,499	1	-0,601
1084,401	2,5	-0,001
1086,315	2,5	-0,014
1088,223	0,5	-0,211
1090,131	-1	-0,982
1092,039	-5,5	-1,792
1093,94	-12,5	-2,744
1095,848	-16,5	-3,5
1097,756	-16,5	-3,488
1099,658	-13	-3,324
1101,566	-7	-2,585
1103,468	-3,5	-1,802
1105,376	-1,5	-1,087
1107,278	2,5	-0,34
1109,18	2,5	-0,004
1111,094	2,5	-0,042
1113,007	0	-0,395
1114,909	-2	-1,214
1116,811	-7	-2,163
1118,713	-15	-3,035
1120,639	-16,5	-3,499
1122,553	-16,5	-3,484
1124,455	-13	-3,314
1126,363	-6,5	-2,526
1128,259	-3	-1,633
1130,178	-1	-0,877
1132,08	3	-0,007
1133,982	3	-0,009
1135,89	1,5	-0,092
1137,798	-1	-0,862
1139,706	-4,5	-1,72
1141,608	-11,5	-2,684
1143,516	-16,5	-3,499
1145,424	-16,5	-3,488
1147,331	-13,5	-3,338
1149,239	-6,5	-2,526
1151,141	-3	-1,648
1153,049	0	-0,762
1154,951	2,5	-0,001
1156,859	2,5	-0,011
1158,761	1,5	-0,117
1160,663	-1	-0,851
1162,565	-4,5	-1,756
1164,472	-10,5	-2,557
1166,374	-16,5	-3,5
1168,282	-16	-3,488
1170,196	-12	-3,254
1172,098	-6	-2,391
1174,006	-2,5	-1,387
1175,908	0,5	-0,562
1177,822	3	-0,001
1179,724	2,5	-0,022
1181,631	0,5	-0,289
1183,539	-2	-1,132
1185,447	-5,5	-2,007
1187,361	-13,5	-2,825
1189,269	-16,5	-3,499
1191,177	-16,5	-3,485
1193,079	-12	-3,258
1194,975	-6	-2,397
1196,883	-3	-1,522
1198,785	0	-0,627
1200,692	3	-0,001
1202,594	2	-0,026
1204,502	0	-0,292
1206,41	-2	-1,176
1208,318	-6	-2,009
1210,226	-12,5	-2,778
1212,128	-16,5	-3,499
1214,036	-16,5	-3,487
1215,938	-12	-3,272
1217,845	-6,5	-2,458
1219,759	-3	-1,645
1221,661	-1	-0,82
1223,569	2,5	-0,028
1225,471	2,5	-0,009
1227,373	1	-0,124
1229,287	-0,5	-0,754
1231,189	-3,5	-1,592
1233,103	-8,5	-2,372
1235,004	-16,5	-3,305
1236,912	-16,5	-3,495
1238,808	-15	-3,432
1240,722	-8	-2,73
1242,63	-4	-1,871
1244,532	-1,5	-0,966
1246,44	2,5	-0,054
1248,342	2,5	-0,006
1250,256	1,5	-0,074
1252,157	-0,5	-0,779
1254,059	-3	-1,573
1255,967	-9	-2,42
1257,875	-16,5	-3,268
1259,783	-16,5	-3,496
1261,691	-15	-3,427
1263,593	-8	-2,761
1265,507	-4	-1,899
1267,409	-1,5	-1,004
1269,31	2,5	-0,138
1271,218	3	-0,006
1273,126	1,5	-0,083
1275,034	-0,5	-0,688
1276,936	-3,5	-1,524
1278,844	-8,5	-2,372
1280,752	-16,5	-3,316
1282,654	-16	-3,495
1284,562	-15	-3,423
1286,464	-7	-2,544
1288,359	-3	-1,614
1290,261	-0,5	-0,758
1292,163	2,5	-0,001
1294,065	3	-0,02
1295,973	0	-0,382
1297,869	-2,5	-1,354
1299,777	-7,5	-2,293
1301,685	-16	-3,217
1303,587	-16	-3,496
1305,506	-15	-3,457
1307,408	-8,5	-2,864
1309,316	-4,5	-1,953
1311,218	-1,5	-1,005
1313,12	2,5	-0,019
1315,028	2,5	-0,008
1316,942	1,5	-0,117
1318,844	-0,5	-0,894
1320,746	-4,5	-1,73
1322,647	-11	-2,646
1324,554	-16	-3,5
1326,458	-16	-3,491
1328,353	-12,5	-3,341
1330,267	-6,5	-2,558
1332,163	-3	-1,592
1334,065	0,5	-0,585
1335,973	3	-0,001
1337,881	2,5	-0,027
1339,782	0	-0,599
1341,69	-3	-1,479
1343,592	-9,5	-2,502
1345,5	-16	-3,348
1347,402	-16	-3,494
1349,304	-13,5	-3,38
1351,218	-7,5	-2,664
1353,12	-3,5	-1,727
1355,022	-0,5	-0,768
1356,929	2,5	-0,001
1358,831	3	-0,014
1360,751	1	-0,174
1362,647	-1,5	-1,147
1364,549	-7	-2,185
1366,451	-15	-3,021
1368,353	-16	-3,498
1370,255	-15,5	-3,468
1372,163	-9,5	-2,93
1374,064	-4	-1,898
1375,966	0	-0,696
1377,874	3	-0,001
1379,776	2,5	-0,025
1381,69	0	-0,332
1383,592	-1,5	-1,194
1385,494	-6	-2,12
1387,396	-13,5	-2,966
1389,31	-16	-3,499
1391,212	-15,5	-3,474
1393,113	-11	-3,111
1395,021	-5,5	-2,262
1396,929	-2,5	-1,419
1398,831	0	-0,578
1400,745	2,5	-0,002
1402,647	2,5	-0,031
1404,549	0	-0,457
1406,457	-2,5	-1,428
1408,359	-7,5	-2,317
1410,266	-16	-3,277
1412,174	-16	-3,495
1414,082	-15	-3,44
1415,984	-8	-2,805
1417,892	-3,5	-1,872
1419,794	-1	-0,903
1421,708	3	-0,001
1423,616	3	-0,013
1425,518	1	-0,207
1427,42	-1	-1,066
1429,327	-5	-1,941
1431,229	-11,5	-2,809
1433,143	-16	-3,499
1435,045	-15,5	-3,482
1436,953	-10,5	-3,192
1438,855	-5,5	-2,308
1440,763	-2	-1,316
1442,665	2,5	-0,154
1444,573	3	-0,006
1446,486	1,5	-0,094
1448,388	-1	-0,859
1450,296	-4	-1,761
1452,198	-10,5	-2,666
1454,1	-15,5	-3,5
1456,014	-15,5	-3,491
1457,916	-13,5	-3,351
1459,818	-6	-2,479
1461,719	-3	-1,526
1463,621	1	-0,572
1465,523	3	-0,001
1467,431	2,5	-0,017
1469,351	1	-0,17
1471,253	-1	-1,004
1473,161	-4,5	-1,826
1475,069	-11	-2,755
1476,971	-15,5	-3,499
1478,873	-15,5	-3,485
1480,78	-12	-3,305
1482,688	-6	-2,444
1484,584	-2,5	-1,461
1486,492	0,5	-0,549
1488,4	2,5	-0,002
1490,308	2,5	-0,026
1492,21	0	-0,518
1494,112	-2,5	-1,46
1496,014	-8	-2,375
1497,915	-15,5	-3,301
1499,823	-16	-3,495
1501,731	-15	-3,455
1503,633	-9	-2,914
1505,535	-4	-1,992
1507,449	-2	-1,185
1509,357	2,5	-0,254
1511,259	2,5	-0,006
1513,167	1,5	-0,084
1515,068	-0,5	-0,905
1516,976	-4,5	-1,79
1518,89	-10,5	-2,678
1520,798	-16	-3,499
1522,7	-15,5	-3,488
1524,608	-9	-2,873
1526,51	-3,5	-1,894
1528,412	-1,5	-1,069
1530,326	2	-0,231
1532,227	3	-0,006
1534,135	1,5	-0,086
1536,037	-0,5	-0,89
1537,945	-4	-1,786
1539,847	-10,5	-2,696
1541,755	-15,5	-3,499
1543,657	-15,5	-3,487
1545,571	-13	-3,336
1547,473	-6	-2,458
1549,375	-3	-1,596
1551,276	0	-0,728
1553,19	3	0
1555,092	3	-0,013
1557	1	-0,164
1558,902	-0,5	-0,996
1560,81	-4,5	-1,861
1562,712	-10,5	-2,659
1564,614	-15,5	-3,5
1566,521	-15,5	-3,491
1568,423	-12,5	-3,339
1570,331	-6	-2,523
1572,245	-3	-1,663
1574,147	0	-0,773
1576,049	2,5	-0,001
1577,951	2,5	-0,014
1579,853	0	-0,52
1581,761	-2,5	-1,43
1583,669	-7	-2,248
1585,57	-15	-3,116
1587,472	-15,5	-3,498
1589,386	-15	-3,465
1591,288	-8,5	-2,925
1593,196	-4	-2,045
1595,104	-1,5	-1,148
1597,018	3	-0,319
1598,914	3	-0,004
1600,828	2	-0,046
1602,729	0	-0,635
1604,631	-3	-1,482
1606,545	-8,5	-2,406
1608,447	-15,5	-3,228
1610,349	-15,5	-3,496
1612,251	-14,5	-3,436
1614,165	-7	-2,697
1616,067	-3	-1,803
1617,975	-0,5	-0,902
1619,876	3	-0,027
1621,784	2,5	-0,01
1623,692	1	-0,146
1625,6	-1,5	-1,1
1627,508	-6	-2,107
1629,41	-14,5	-3,038
1631,312	-15,5	-3,498
1633,22	-15	-3,472
1635,122	-9,5	-2,997
1637,035	-3	-1,696
1638,937	-0,5	-0,774
1640,851	2,5	0
1642,753	2,5	-0,012
1644,655	0,5	-0,294
1646,563	-1,5	-1,152
1648,465	-5	-1,961
1650,373	-12,5	-2,784
1652,281	-15,5	-3,499
1654,183	-15	-3,484
1656,084	-11	-3,264
1657,986	-5,5	-2,408
1659,894	-2	-1,303
1661,802	2	-0,422
1663,71	3	-0,003
1665,624	2	-0,072
1667,526	0	-0,704
1669,428	-3	-1,584
1671,336	-8,5	-2,48
1673,237	-15,5	-3,5
1675,139	-15	-3,488
1677,047	-10	-3,131
1678,949	-5	-2,296
1680,857	-2,5	-1,432
1682,759	1	-0,564
1684,667	3	-0,002
1686,575	2,5	-0,034
1688,477	0	-0,539
1690,391	-2,5	-1,354
1692,298	-6	-2,165
1694,2	-14	-3,006
1696,102	-15,5	-3,498
1698,013	-15	-3,471
1699,912	-10	-3,068
1701,82	-4	-2,061
1703,734	-2	-1,252
1705,63	3	-0,3
1707,537	3	-0,004
1709,445	2	-0,069
1711,347	0	-0,691
1713,255	-2,5	-1,514
1715,163	-8	-2,362
1717,065	-15	-3,294
1718,967	-15	-3,495
1720,875	-14	-3,424
1722,783	-7,5	-2,794
1724,684	-3	-1,852
1726,586	-0,5	-0,931
1728,488	2,5	-0,031
1730,396	2,5	-0,011
1732,304	1	-0,157
1734,212	-0,5	-1,01
1736,114	-4,5	-1,921
1738,022	-11	-2,743
1739,924	-15,5	-3,499
1741,826	-15	-3,482
1743,727	-10	-3,189
1745,635	-5	-2,256
1747,531	-2	-1,331
1749,439	2	-0,419
1751,341	3	-0,002
1753,249	2,5	-0,028
1755,151	0	-0,466
1757,059	-2,5	-1,394
1758,96	-7	-2,267
1760,886	-14,5	-3,02
1762,788	-15	-3,498
1764,69	-15	-3,471
1766,592	-9,5	-3,056
1768,494	-5	-2,257
1770,402	-2	-1,36
1772,304	1,5	-0,466
1774,2	3	-0,002
1776,114	2,5	-0,032
1778,015	0	-0,43
1779,917	-2	-1,329
1781,825	-6,5	-2,199
1783,733	-14	-3,036
1785,635	-15	-3,497
1787,537	-15	-3,459
1789,439	-9	-2,982
1791,347	-4,5	-2,117
1793,255	-2	-1,257
1795,156	1,5	-0,491
1797,064	2,5	-0,002
1798,966	3	-0,02
1800,88	0,5	-0,234
1802,782	-1,5	-1,116
1804,69	-5	-2,013
1806,592	-12,5	-2,907
1808,494	-15	-3,498
1810,402	-15	-3,475
1812,303	-9,5	-3,124
1814,205	-5	-2,203
1816,113	-2	-1,344
1818,021	1,5	-0,527
1819,923	3	-0,002
1821,825	3	-0,026
1823,727	0,5	-0,323
1825,635	-1,5	-1,182
1827,537	-5,5	-2,098
1829,444	-12,5	-2,924
1831,346	-15	-3,499
1833,254	-15	-3,48
1835,156	-10,5	-3,212
1837,064	-5,5	-2,375
1838,966	-2,5	-1,464
1840,868	1	-0,55
1842,77	3	-0,002
1844,678	2,5	-0,02
1846,58	0	-0,351
1848,481	-1,5	-1,203
1850,383	-5	-2,049
1852,291	-13,5	-2,962
1854,199	-15	-3,499
1856,101	-15	-3,476
1858,015	-11	-3,237
1859,911	-5,5	-2,38
1861,813	-2,5	-1,528
1863,715	0	-0,72
1865,622	2,5	-0,001
1867,524	2,5	-0,012
1869,432	1,5	-0,13
1871,334	-0,5	-0,876
1873,236	-3,5	-1,706
1875,138	-10	-2,579
1877,046	-15	-3,486
1878,948	-15	-3,491
1880,85	-12,5	-3,357
1882,751	-6,5	-2,642
1884,653	-3,5	-1,828
1886,555	-1	-0,997
1888,457	2,5	-0,154
1890,359	3	-0,005
1892,261	2	-0,07
1894,168	0	-0,633
1896,071	-3	-1,596
1897,973	-9	-2,506
1899,874	-15	-3,444
1901,782	-15	-3,493
1903,69	-14,5	-3,439
1905,598	-7,5	-2,872
1907,5	-3,5	-1,914
1909,408	-1,5	-1,166
1911,316	2,5	-0,37
1913,218	3	-0,002
1915,12	2,5	-0,034
1917,027	0	-0,429
1918,929	-2	-1,329
1920,837	-5	-2,129
1922,739	-13	-3,013
1924,641	-15	-3,498
1926,543	-14,5	-3,459
1928,451	-9	-2,976
1930,353	-4	-2,07
1932,255	-1,5	-1,191
1934,157	2,5	-0,198
1936,058	3	-0,004
1937,966	2	-0,086
1939,868	-0,5	-0,906
1941,77	-4,5	-1,87
1943,672	-10,5	-2,71
1945,58	-15	-3,499
1947,482	-15	-3,487
1949,39	-12,5	-3,355
1951,292	-6	-2,578
1953,199	-3,5	-1,746
1955,107	-0,5	-0,849
1957,009	2,5	-0,001
1958,917	3	-0,013
1960,825	1	-0,18
1962,727	-1	-1,09
1964,629	-5	-1,959
1966,531	-12	-2,864
1968,439	-15	-3,499
1970,34	-15	-3,479
1972,242	-10,5	-3,205
1974,144	-4,5	-2,189
1976,052	-1,5	-1,298
1977,96	1,5	-0,471
1979,862	3	-0,002
1981,764	2,5	-0,025
1983,666	0	-0,333
1985,568	-1,5	-1,18
1987,475	-5	-2,06
1989,383	-13	-2,972
1991,285	-15	-3,498
1993,187	-15	-3,471
1995,089	-9	-3,035
1996,997	-4,5	-2,155
1998,905	-2	-1,365
2000,807	2	-0,395
2002,709	3	-0,003
2004,61	2,5	-0,032
2006,524	0	-0,389
2008,426	-1,5	-1,23
2010,334	-4,5	-2
2012,236	-10,5	-2,734
2014,144	-15	-3,5
2016,046	-15	-3,488
2017,96	-13	-3,385
2019,868	-6,5	-2,663
2021,776	-3,5	-1,847
2023,677	-1,5	-1,026
2025,585	3	-0,233
2027,487	3	-0,004
2029,395	2	-0,066
2031,297	0	-0,765
2033,205	-3	-1,673
2035,107	-10	-2,689
2037,015	-15	-3,5
2038,922	-15	-3,492
2040,824	-13	-3,385
2042,726	-6	-2,542
2044,628	-2,5	-1,632
2046,536	0	-0,651
2048,438	3	-0,001
2050,34	3	-0,014
2052,242	1,5	-0,162
2054,144	-0,5	-0,877
2056,052	-3	-1,638
2057,959	-7,5	-2,43
2059,861	-15	-3,21
2061,769	-15	-3,496
2063,671	-14,5	-3,458
2065,579	-8,5	-3,002
2067,481	-4,5	-2,262
2069,389	-2	-1,521
2071,291	0	-0,732
2073,199	3	0
2075,106	3	-0,008
2077,008	2	-0,088
2078,91	0	-0,756
2080,818	-3	-1,524
2082,72	-7	-2,274
2084,628	-13,5	-2,985
2086,536	-15	-3,498
2088,438	-15	-3,476
2090,346	-10	-3,258
2092,247	-5,5	-2,452
2094,155	-3	-1,732
2096,063	-0,5	-0,915
2097,971	3	-0,138
2099,873	3	-0,006
2101,775	2	-0,054
2103,677	0	-0,502
2105,591	-1,5	-1,214
2107,493	-5	-1,991
2109,394	-12	-2,828
2111,296	-15	-3,498
2113,198	-15	-3,484
2115,106	-12	-3,344
2117,008	-6	-2,549
2118,91	-3	-1,804
2120,818	-1	-0,997
2122,72	3	-0,188
2124,622	3	-0,005
2126,53	2	-0,06
2128,431	0	-0,585
2130,333	-2,5	-1,409
2132,235	-6,5	-2,219
2134,143	-13,5	-2,956
2136,045	-15	-3,498
2137,965	-15	-3,486
2139,867	-11	-3,289
2141,769	-5	-2,432
2143,671	-2,5	-1,628
2145,578	-0,5	-0,854
2147,486	3	-0,018
2149,388	3	-0,007
2151,29	1,5	-0,119
2153,198	-1	-1,108
2155,1	-7,5	-2,295
2157,014	-14,5	-3,092
2158,916	-15	-3,497
2160,818	-15	-3,482
2162,719	-10,5	-3,301
2164,627	-5,5	-2,571
2166,529	-3	-1,836
2168,431	-1	-1,091
2170,339	2,5	-0,369
2172,247	3	-0,002
2174,149	2,5	-0,031
2176,051	0	-0,381
2177,959	-2	-1,32
2179,86	-7	-2,257
2181,768	-15	-3,22
2183,67	-15	-3,496
2185,572	-14,5	-3,454
2187,48	-8,5	-3,001
2189,394	-4,5	-2,287
2191,296	-2	-1,484
2193,198	1,5	-0,638
2195,1	3	-0,001
2197,001	3	-0,012
2198,903	1	-0,155
2200,811	-0,5	-0,888
2202,719	-3,5	-1,66
2204,627	-8	-2,444
2206,535	-15	-3,28
2208,437	-15	-3,495
2210,339	-13	-3,444
2212,247	-8,5	-2,972
2214,148	-4,5	-2,168
2216,05	-2	-1,359
2217,958	2	-0,5
2219,86	3	-0,005
2221,762	1,5	-0,162
2223,67	-0,5	-0,879
2225,572	-3,5	-1,736
2227,474	-9	-2,54
2229,376	-15	-3,383
2231,278	-15	-3,493
2233,179	-14	-3,438
2235,087	-7,5	-2,841
2236,989	-3,5	-2,043
2238,891	-1,5	-1,175
2240,799	1,5	-0,39
2242,707	3	-0,002
2244,609	2,5	-0,044
2246,517	0	-0,502
2248,419	-2,5	-1,529
2250,32	-8,5	-2,534
2252,222	-15	-3,489
2254,13	-15	-3,491
2256,038	-13	-3,4
2257,94	-6,5	-2,685
2259,848	-3	-1,841
2261,75	-1	-0,985
2263,646	3	0
2265,56	3	-0,008
2267,461	1,5	-0,116
2269,363	-0,5	-0,864
2271,265	-5,5	-2,146
2273,173	-13	-2,919
2275,075	-15	-3,499
2276,989	-14,5	-3,481
2278,897	-9,5	-3,076
2280,799	-4	-2,107
2282,701	0	-0,702
2284,602	3	-0,001
2286,51	3	-0,013
2288,418	1,5	-0,159
2290,326	-0,5	-0,943
2292,228	-3,5	-1,767
2294,13	-10	-2,646
2296,044	-15	-3,496
2297,952	-15	-3,492
2299,854	-13,5	-3,421
2301,755	-7,5	-2,779
2303,657	-3,5	-1,891
2305,559	-1	-1,001
2307,461	2,5	-0,085
2309,369	2,5	-0,005
2311,271	1,5	-0,102
2313,173	-0,5	-0,83
2315,075	-3	-1,672
2316,983	-8,5	-2,45
2318,885	-15	-3,275
2320,792	-15	-3,496
2322,688	-14	-3,441
2324,59	-7,5	-2,905
2326,492	-4	-2,101
2328,394	-1,5	-1,223
2330,296	2	-0,375
2332,204	3	-0,002
2334,112	2,5	-0,022
2336,014	0,5	-0,242
2337,921	-1	-1,146
2339,823	-4,5	-1,913
2341,731	-9,5	-2,676
2343,633	-15	-3,419
2345,541	-15	-3,493
2347,443	-13,5	-3,431
2349,345	-7,5	-2,802
2351,247	-3,5	-1,976
2353,149	-1	-1,172
2355,044	2,5	-0,32
2356,958	3	-0,003
2358,86	2,5	-0,04
2360,768	0	-0,405
2362,67	-1,5	-1,214
2364,572	-5	-2,099
2366,474	-12,5	-2,962
2368,376	-15	-3,498
2370,29	-14,5	-3,456
2372,192	-7,5	-2,764
2374,099	-3	-1,782
2376,001	-0,5	-0,835
2377,903	2,5	-0,001
2379,805	2	-0,056
2381,713	0	-0,715
2383,621	-3	-1,568
2385,523	-7,5	-2,419
2387,425	-15	-3,28
2389,327	-15	-3,495
2391,222	-13,5	-3,437
2393,124	-7	-2,848
2395,026	-3,5	-2,103
2396,928	-2	-1,294
2398,83	1,5	-0,442
2400,738	2,5	-0,002
2402,64	2,5	-0,024
2404,542	0,5	-0,33
2406,45	-0,5	-1,088
2408,351	-3,5	-1,86
2410,259	-9	-2,634
2412,161	-15	-3,5
2414,069	-14,5	-3,492
2415,971	-12	-3,359
2417,873	-6	-2,634
2419,781	-3	-1,85
2421,689	-1	-1,006
2423,591	2,5	-0,238
2425,492	3	-0,004
2427,394	2,5	-0,056
2429,302	0	-0,59
2431,21	-2	-1,428
2433,118	-5,5	-2,219
2435,02	-14	-3,109
2436,928	-14,5	-3,498
2438,83	-14,5	-3,473
2440,732	-9,5	-3,157
2442,633	-4,5	-2,311
2444,535	-2	-1,396
2446,449	0	-0,609
2448,351	3	-0,001
2450,259	2,5	-0,013
2452,161	1,5	-0,162
2454,069	-0,5	-0,964
2455,971	-3	-1,843
2457,873	-9	-2,647
2459,774	-14,5	-3,475
2461,682	-14,5	-3,492
2463,584	-13	-3,401
2465,492	-7	-2,77
2467,4	-3,5	-1,99
2469,308	-1,5	-1,179
2471,21	2	-0,336
2473,118	3	-0,003
2475,02	2,5	-0,036
2476,927	0	-0,484
2478,829	-1,5	-1,31
2480,737	-5	-2,137
2482,639	-14,5	-3,373
2484,541	-14,5	-3,493
2486,449	-13,5	-3,425
2488,357	-6,5	-2,779
2490,266	-3,5	-1,948
2492,167	-1	-1,095
2494,074	3	-0,12
2495,976	3	-0,007
2497,878	1,5	-0,101
2499,78	0	-0,806
2501,682	-3	-1,726
2503,59	-8	-2,538
2505,492	-14,5	-3,375
2507,394	-14,5	-3,493
2509,296	-12,5	-3,414
2511,198	-6	-2,665
2513,105	-3	-1,779
2515,007	-0,5	-0,847
2516,909	3	-0,002
2518,817	2,5	-0,019
2520,719	0	-0,361
2522,621	-1	-1,282
2524,523	-5	-2,177
2526,425	-13	-3,07
2528,327	-14,5	-3,498
2530,234	-14	-3,476
2532,136	-9	-3,088
2534,038	-3	-1,948
2535,946	-1,5	-1,191
2537,854	3	-0,054
2539,756	3	-0,007
2541,664	2	-0,094
2543,566	0	-0,708
2545,474	-2,5	-1,524
2547,375	-6	-2,322
2549,283	-13,5	-3,161
2551,191	-14	-3,497
2553,099	-14	-3,464
2555,001	-8	-3,04
2556,903	-4	-2,236
2558,805	-1,5	-1,437
2560,707	1	-0,596
2562,609	3	-0,001
2564,511	2,5	-0,016
2566,418	1	-0,19
2568,332	-1	-1,011
2570,234	-4	-1,798
2572,136	-10,5	-2,72
2574,044	-14,5	-3,497
2575,946	-14,5	-3,492
2577,848	-11,5	-3,387
2579,75	-5,5	-2,676
2581,658	-3	-1,908
2583,559	-1	-1,125
2585,467	2	-0,41
2587,369	3	-0,002
2589,271	2,5	-0,024
2591,173	0,5	-0,278
2593,075	-1	-1,059
2594,977	-3,5	-1,825
2596,885	-9	-2,625
2598,793	-14,5	-3,407
2600,706	-14,5	-3,495
2602,602	-13	-3,442
2604,504	-7	-2,833
2606,412	-3	-1,974
2608,314	-1	-0,862
2610,222	2,5	0
2612,124	2,5	-0,02
2614,026	0	-0,379
2615,928	-1,5	-1,294
2617,835	-5,5	-2,186
2619,743	-14	-3,136
2621,651	-14,5	-3,497
2623,553	-13,5	-3,452
2625,461	-7	-2,906
2627,363	-3	-2
2629,265	-1,5	-1,142
2631,167	2,5	-0,332
2633,075	2,5	-0,004
2634,982	2	-0,064
2636,884	0	-0,749
2638,786	-3	-1,65
2640,688	-9	-2,608
2642,59	-14	-3,394
2644,492	-14	-3,493
2646,4	-12	-3,419
2648,308	-6	-2,724
2650,21	-2,5	-1,776
2652,111	-1	-0,968
2654,013	2,5	-0,026
2655,915	2,5	-0,008
2657,823	1,5	-0,097
2659,725	-0,5	-0,859
2661,633	-3,5	-1,82
2663,535	-9	-2,671
2665,443	-14,5	-3,5
2667,345	-14,5	-3,491
2669,247	-10,5	-3,352
2671,148	-5	-2,592
2673,05	-2,5	-1,672
2674,952	0	-0,676
2676,854	3	-0,001
2678,756	3	-0,012
2680,67	1	-0,197
2682,572	-1	-1,19
2684,474	-4,5	-2,074
2686,376	-13	-3,08
2688,277	-14	-3,498
2690,179	-13,5	-3,468
2692,075	-6	-2,882
2693,983	-3	-1,98
2695,891	-0,5	-0,966
2697,799	3	-0,079
2699,707	3	-0,007
2701,615	1,5	-0,1
2703,511	-0,5	-0,968
2705,418	-6	-2,163
2707,32	-14	-3,5
2709,228	-14	-3,491
2711,13	-11,5	-3,358
2713,032	-5	-2,538
2714,934	-1,5	-1,403
2716,848	0,5	-0,591
2718,744	3	-0,002
2720,652	1,5	-0,109
2722,553	0	-0,892
2724,449	-4	-2,029
2726,351	-11,5	-2,919
2728,253	-14	-3,499
2730,161	-14	-3,478
2732,069	-9	-3,127
2733,983	-3,5	-2,181
2735,885	-1	-1,107
2737,787	3	-0,152
2739,688	3	-0,014
2741,59	0,5	-0,324
2743,492	-1,5	-1,267
2745,4	-6	-2,269
2747,308	-14,5	-3,321
2749,21	-14	-3,494
2751,112	-12	-3,401
2753,02	-5	-2,526
2754,922	-1,5	-1,51
2756,823	1	-0,598
2758,725	3	-0,003
2760,627	2,5	-0,055
2762,523	0	-0,8
2764,431	-3	-1,753
2766,339	-10,5	-2,813
2768,241	-14,5	-3,499
2770,143	-13	-3,449
2772,045	-7	-2,858
2773,947	-3	-1,948
2775,842	-1	-1,061
2777,756	2	-0,38
2779,658	3	-0,003
2781,566	2,5	-0,042
2783,474	0	-0,59
2785,376	-2	-1,416
2787,278	-6,5	-2,348
2789,186	-13,5	-3,231
2791,088	-14	-3,496
2792,995	-13,5	-3,458
2794,897	-7,5	-2,972
2796,799	-3	-1,961
2798,707	-1,5	-1,13
2800,603	3	-0,187
2802,541	3	-0,005
2804,443	2	-0,055
2806,345	0	-0,683
2808,247	-2	-1,525
2810,148	-7	-2,489
2812,05	-14,5	-3,496
2813,958	-14	-3,492
2815,86	-10,5	-3,34
2817,762	-5,5	-2,548
2819,664	-2,5	-1,765
2821,578	-1	-0,946
2823,48	3	-0,132
2825,388	3	-0,007
2827,289	1,5	-0,141
2829,197	-0,5	-0,84
2831,093	-3,5	-1,849
2832,995	-9,5	-2,691
2834,897	-14	-3,5
2836,805	-13,5	-3,48
2838,713	-9,5	-3,234
2840,621	-3,5	-2,118
2842,523	-1,5	-1,128
2844,431	3	-0,077
2846,332	2,5	-0,007
2848,234	1,5	-0,134
2850,142	-0,5	-0,966
2852,044	-4	-1,951
2853,952	-10	-2,756
2855,854	-14	-3,499
2857,756	-14	-3,489
2859,664	-10,5	-3,304
2861,572	-4,5	-2,442
2863,473	-2	-1,51
2865,381	1	-0,597
2867,283	3	-0,002
2869,185	2,5	-0,034
2871,087	0	-0,429
2872,995	-2	-1,405
2874,897	-6	-2,278
2876,799	-13,5	-3,217
2878,701	-14	-3,495
2880,614	-12,5	-3,44
2882,516	-5,5	-2,757
2884,418	-2,5	-1,762
2886,326	-0,5	-0,872
2888,228	3	-0,001
2890,136	2,5	-0,017
2892,038	0,5	-0,397
2893,94	-2	-1,535
2895,842	-8	-2,643
2897,749	-14	-3,5
2899,651	-14	-3,486
2901,565	-11	-3,34
2903,467	-4	-2,256
2905,369	-1,5	-1,372
2907,271	2	-0,397
2909,179	2,5	-0,003
2911,081	2	-0,06
2912,983	0	-0,666
2914,878	-2,5	-1,676
2916,78	-7,5	-2,56
2918,682	-14	-3,333
2920,584	-13,5	-3,494
2922,486	-12	-3,41
2924,394	-5,5	-2,687
2926,302	-3	-1,819
2928,204	0	-0,818
2930,106	3	0
2932,008	3	-0,014
2933,915	1	-0,222
2935,817	-0,5	-1,114
2937,731	-3,5	-1,907
2939,633	-9	-2,694
2941,535	-13,5	-3,499
2943,437	-13,5	-3,484
2945,345	-9	-3,227
2947,253	-4,5	-2,328
2949,155	-2	-1,402
2951,056	1,5	-0,379
2952,959	2,5	-0,004
2954,86	1,5	-0,078
2956,768	0	-0,776
2958,67	-3	-1,66
2960,578	-7,5	-2,582
2962,48	-13,5	-3,5
2964,382	-13,5	-3,489
2966,284	-10,5	-3,347
2968,185	-4,5	-2,382
2970,099	-2	-1,563
2972,001	0	-0,631
2973,903	3	-0,002
2975,799	2,5	-0,038
2977,701	0	-0,6
2979,603	-2	-1,548
2981,511	-5,5	-2,433
2983,419	-13,5	-3,282
2985,326	-13,5	-3,495
2987,228	-11,5	-3,414
2989,136	-5,5	-2,699
2991,038	-2,5	-1,667
2992,946	0	-0,765
2994,848	2,5	-0,001
2996,756	3	-0,017
2998,658	0,5	-0,337
3000,56	-1,5	-1,322
3002,461	-5	-2,221
3004,363	-13,5	-3,242
3006,265	-13,5	-3,496
3008,167	-12	-3,429
3010,075	-6	-2,797
3011,977	-2,5	-1,86
3013,885	-0,5	-1,027
3015,787	2,5	-0,119
3017,695	3	-0,006
3019,596	1,5	-0,097
3021,504	-0,5	-0,869
3023,406	-3	-1,753
3025,308	-8,5	-2,769
3027,21	-13,5	-3,499
3029,118	-13	-3,479
3031,02	-7,5	-3,073
3032,928	-3,5	-2,104
3034,83	-1,5	-1,128
3036,732	2,5	-0,177
3038,633	3	-0,006
3040,541	1,5	-0,094
3042,449	0	-0,852
3044,351	-3	-1,8
3046,259	-8,5	-2,605
3048,161	-13	-3,5
3050,063	-13	-3,489
3051,965	-9	-3,25
3053,867	-4,5	-2,33
3055,774	-2	-1,525
3057,682	0	-0,687
3059,59	3	-0,001
3061,498	3	-0,016
3063,4	0,5	-0,271
3065,308	-0,5	-1,185
3067,21	-5	-2,155
3069,112	-12,5	-3,125
3071,014	-13	-3,496
3072,915	-11	-3,428
3074,817	-5,5	-2,739
3076,725	-2,5	-1,732
3078,627	0	-0,747
3080,529	3	-0,001
3082,431	2,5	-0,016
3084,333	0,5	-0,321
3086,235	-1	-1,295
3088,131	-5,5	-2,348
3090,038	-13	-3,332
3091,934	-13	-3,492
3093,842	-9	-3,351
3095,744	-4,5	-2,491
3097,646	-2	-1,511
3099,548	1	-0,547
3101,45	3	-0,002
3103,352	2,5	-0,027
3105,26	0	-0,4
3107,167	-1,5	-1,408
3109,069	-6	-2,419
3110,971	-12,5	-3,418
3112,879	-12,5	-3,493
3114,781	-9	-3,353
3116,683	-4,5	-2,526
3118,585	-1,5	-1,482
3120,487	1,5	-0,44
3122,389	3	-0,003
3124,29	2	-0,055
3126,198	0	-0,705
3128,094	-3	-1,783
3128,772	3	-0,001