File: ensaios_Ciclicos/_60perc/_3gap/entrada/_1.txt
Time (s)	Load (N)	Displacement (mm)
36,177	-10,5	-3,018
38,097	-6,5	-2,246
40,022	-3	-1,381
41,942	0	-0,528
43,862	1	-0,002
45,782	1	-0,018
47,702	0	-0,281
49,628	-3	-1,128
51,548	-7,5	-2,029
53,468	-13	-2,892
55,394	-15	-3,499
57,313	-15	-3,478
59,239	-11	-3,167
61,165	-6,5	-2,318
63,086	-3,5	-1,456
65,011	0	-0,573
66,931	1	-0,002
68,863	1	-0,022
70,789	0	-0,319
72,721	-3	-1,163
74,653	-7	-2,009
76,591	-12	-2,824
78,516	-15	-3,499
80,442	-14,5	-3,482
82,362	-10,5	-3,186
84,288	-6,5	-2,31
86,208	-3	-1,465
88,134	0	-0,536
90,062	1	-0,002
91,985	1,5	-0,016
93,917	0	-0,227
95,843	-2,5	-1,128
97,775	-6,5	-1,995
99,701	-12,5	-2,866
101,627	-14,5	-3,499
103,547	-14,5	-3,473
105,479	-10	-3,042
107,411	-6	-2,206
109,336	-3	-1,36
111,268	0,5	-0,444
113,2	1,5	-0,002
115,132	1	-0,029
117,064	0	-0,364
119,003	-2,5	-1,169
120,928	-7	-2,124
122,855	-13,5	-3,026
124,78	-14,5	-3,498
126,721	-13,5	-3,45
128,643	-8,5	-2,777
130,566	-4	-1,823
132,489	-1	-0,841
134,415	1,5	-0,001
136,341	1,5	-0,01
138,273	0	-0,183
140,199	-1,5	-0,944
142,125	-5,5	-1,927
144,05	-11,5	-2,919
218,32	-5	-1,942
220,258	-10,5	-2,853
222,184	-13,5	-3,499
224,11	-13	-3,47
226,048	-9	-3,094
227,968	-4,5	-2,105
229,9	-2	-1,136
231,831	1,5	-0,108
233,751	1,5	-0,005
235,677	1	-0,086
237,615	-0,5	-0,808
239,553	-4	-1,675
241,473	-9	-2,58
243,399	-13,5	-3,499
245,331	-13	-3,486
247,257	-10	-3,204
249,194	-5,5	-2,265
251,126	-2	-1,271
253,058	0,5	-0,378
254,984	1,5	-0,002
256,916	1,5	-0,036
258,848	0	-0,471
260,78	-2,5	-1,379
262,712	-7,5	-2,288
264,644	-12,5	-3,163
266,576	-13	-3,496
268,507	-12,5	-3,435
270,433	-7,5	-2,732
272,359	-3,5	-1,776
274,291	-0,5	-0,857
276,223	1,5	0
278,161	1,5	-0,008
280,099	0,5	-0,133
282,031	-1,5	-0,96
283,974	-4,5	-1,905
285,912	-9	-2,714
287,838	-13	-3,499
289,782	-13	-3,486
291,714	-9,5	-3,196
293,646	-4,5	-2,222
295,572	-2	-1,226
297,504	1,5	-0,217
299,436	1,5	-0,004
301,367	1	-0,068
303,287	-1	-0,813
305,213	-4	-1,648
307,151	-9	-2,6
309,083	-13	-3,5
311,021	-13	-3,49
312,959	-10,5	-3,368
314,897	-6	-2,558
316,835	-3	-1,684
318,767	0	-0,768
320,704	1,5	-0,001
322,636	1,5	-0,009
324,574	0,5	-0,138
326,506	-1,5	-0,947
328,426	-5,5	-1,933
330,358	-10,5	-2,842
332,296	-13	-3,499
334,228	-12,5	-3,47
336,153	-8,5	-3,03
338,085	-4,5	-2,178
340,017	-2	-1,323
341,943	1,5	-0,174
343,875	1,5	-0,004
345,807	1	-0,073
347,733	-0,5	-0,769
349,659	-3	-1,57
351,597	-7,5	-2,433
353,522	-13	-3,349
355,448	-12,5	-3,494
357,374	-11	-3,418
359,312	-7	-2,771
361,25	-3,5	-2,019
435,694	-12,5	-3,342
437,638	-12,5	-3,495
439,57	-11	-3,419
441,501	-6,5	-2,71
443,433	-3	-1,79
445,359	0	-0,819
447,297	1,5	0
449,223	1,5	-0,01
451,155	0,5	-0,143
453,087	-1	-1
455,019	-4,5	-1,941
456,951	-10,5	-2,909
458,876	-12	-3,498
460,814	-12	-3,468
462,74	-7,5	-2,931
464,672	-3	-1,937
466,604	-1	-0,953
468,536	1,5	-0,012
470,468	1,5	-0,006
472,4	1	-0,11
474,326	-1	-0,958
476,257	-4,5	-1,853
478,189	-9	-2,74
480,127	-12,5	-3,499
482,059	-12	-3,482
483,991	-8	-3,127
485,929	-4	-2,232
487,861	-1,5	-1,353
489,799	0,5	-0,491
491,737	1,5	-0,001
493,668	1,5	-0,02
495,6	0	-0,313
497,526	-1,5	-1,22
499,458	-5	-2,123
501,384	-10,5	-3,004
503,316	-12	-3,498
505,254	-12	-3,469
507,174	-7	-2,947
509,106	-3,5	-2,037
511,038	-1,5	-1,202
512,969	1,5	-0,275
514,907	1,5	-0,003
516,845	1,5	-0,029
518,777	0	-0,519
520,709	-2,5	-1,46
522,647	-6	-2,286
524,585	-11,5	-3,167
526,517	-12	-3,496
528,448	-11	-3,437
530,38	-6	-2,737
532,306	-3	-1,798
534,244	-1	-0,967
536,176	1,5	-0,041
538,102	1,5	-0,006
540,034	1	-0,087
541,966	-0,5	-0,733
543,904	-3	-1,575
545,836	-6,5	-2,421
547,761	-12	-3,331
549,693	-12	-3,494
551,625	-10,5	-3,411
553,557	-6	-2,696
555,483	-2,5	-1,73
557,415	0	-0,815
559,347	1,5	0
561,279	1,5	-0,008
563,21	1	-0,135
565,142	-0,5	-0,869
567,074	-3	-1,806
569,006	-8,5	-2,688
570,938	-12	-3,499
572,864	-12	-3,485
574,796	-9	-3,252
576,728	-4,5	-2,323
578,66	-2	-1,472
580,591	0,5	-0,542
582,523	1,5	-0,001
584,449	1,5	-0,019
586,381	0,5	-0,273
588,319	-1,5	-1,187
590,245	-5	-2,104
592,177	-10,5	-2,988
594,109	-12	-3,498
596,047	-12	-3,474
597,979	-8	-3,089
599,91	-4	-2,232
601,842	-2	-1,286
603,774	1	-0,392
605,7	1,5	-0,003
607,632	1,5	-0,032
609,57	0	-0,448
611,496	-2	-1,4
613,428	-6,5	-2,398
687,8	0	-0,341
689,731	-1,5	-1,175
691,657	-4,5	-2,072
693,583	-11	-3,023
695,515	-12	-3,498
697,447	-11,5	-3,47
699,385	-8	-3,128
701,323	-4,5	-2,34
703,248	-1,5	-1,443
705,18	0	-0,586
707,106	1,5	-0,001
709,038	1,5	-0,014
710,964	0	-0,228
712,89	-1	-1,083
714,816	-4	-1,958
716,742	-9	-2,822
718,674	-12	-3,499
720,6	-11,5	-3,483
722,537	-9	-3,28
724,469	-5	-2,457
726,395	-2	-1,485
728,327	0	-0,587
730,259	1,5	-0,001
732,191	1,5	-0,013
734,123	0	-0,253
736,055	-1,5	-1,178
737,986	-4,5	-2,06
739,912	-10	-3,004
741,844	-12	-3,498
743,77	-11	-3,459
745,702	-6,5	-2,93
747,652	-3,5	-2,117
749,578	-1	-1,146
751,51	1,5	-0,244
753,436	1,5	-0,003
755,367	1,5	-0,032
757,299	0	-0,447
759,231	-1,5	-1,358
761,163	-5	-2,208
763,089	-11	-3,174
765,021	-11,5	-3,496
766,947	-11	-3,438
768,891	-6,5	-2,896
770,817	-3	-2,016
772,749	-1	-1,076
774,674	1,5	-0,155
776,6	1,5	-0,005
778,532	1	-0,078
780,464	-0,5	-0,819
782,39	-3,5	-1,854
784,322	-8	-2,769
786,254	-11,5	-3,499
788,186	-11,5	-3,479
790,118	-7,5	-3,101
792,049	-4	-2,224
793,987	-2	-1,324
795,919	0,5	-0,494
797,845	1,5	-0,002
799,777	1,5	-0,022
801,697	0	-0,42
803,623	-1,5	-1,333
805,561	-5	-2,148
807,493	-11	-3,095
809,424	-11,5	-3,497
811,356	-10,5	-3,449
813,282	-6	-2,798
815,22	-3	-1,941
817,14	-0,5	-0,988
819,072	1,5	-0,005
820,998	1,5	-0,007
822,93	0,5	-0,145
824,856	-1	-1,029
826,787	-4,5	-1,993
828,713	-10,5	-2,974
830,639	-11,5	-3,498
832,565	-10,5	-3,44
834,491	-5,5	-2,822
836,417	-2,5	-1,854
838,349	-0,5	-0,952
840,281	1,5	-0,112
842,219	1,5	-0,004
844,144	1,5	-0,052
846,076	0	-0,67
847,996	-2,5	-1,564
849,928	-7	-2,483
851,866	-11,5	-3,486
853,792	-11,5	-3,49
855,718	-9	-3,33
857,656	-5	-2,482
859,582	-2	-1,527
861,513	0	-0,714
863,439	1,5	-0,001
865,377	1,5	-0,01
867,303	0,5	-0,208
869,229	-1,5	-1,16
871,155	-4,5	-2,131
873,087	-11	-3,036
875,013	-11,5	-3,498
876,951	-10,5	-3,457
878,882	-6,5	-2,958
880,814	-3	-2,055
882,74	-1	-1,146
884,678	1,5	-0,244
886,604	1,5	-0,004
888,536	1,5	-0,048
890,468	0	-0,571
892,394	-2	-1,468
894,326	-5,5	-2,334
896,251	-11,5	-3,273
898,189	-11,5	-3,496
900,115	-10,5	-3,426
902,053	-5,5	-2,745
903,979	-2,5	-1,784
905,911	0	-0,864
907,831	1,5	0
909,763	1,5	-0,008
911,695	1	-0,141
913,626	-0,5	-0,909
915,552	-3	-1,8
917,478	-7,5	-2,66
919,41	-11,5	-3,5
921,342	-11	-3,49
923,268	-8,5	-3,302
925,194	-4,5	-2,454
927,126	-1,5	-1,561
929,058	0	-0,694
930,995	1,5	-0,001
932,927	1,5	-0,011
934,859	0,5	-0,15
936,791	-1	-1,019
938,723	-4	-1,93
940,649	-9	-2,794
942,587	-11	-3,499
944,513	-11	-3,482
946,439	-7,5	-3,174
948,364	-3,5	-2,213
950,29	-1,5	-1,264
952,222	1,5	-0,332
954,148	1,5	-0,003
956,074	1,5	-0,041
958	0	-0,598
959,932	-2,5	-1,507
961,858	-6	-2,419
963,784	-11	-3,311
965,721	-11,5	-3,495
967,647	-9,5	-3,401
969,573	-5	-2,646
971,505	-2,5	-1,833
973,437	-0,5	-0,902
975,369	1,5	0
977,301	1,5	-0,006
979,227	0,5	-0,141
981,177	-0,5	-0,899
983,102	-3,5	-1,862
985,034	-9	-2,763
986,96	-11	-3,499
988,892	-10,5	-3,479
990,818	-7,5	-3,126
992,75	-3,5	-2,228
994,676	-1,5	-1,295
996,612	1	-0,399
998,54	1,5	-0,002
1000,466	1,5	-0,03
1002,409	0	-0,373
1004,335	-1,5	-1,349
1006,261	-5,5	-2,325
1008,199	-10,5	-3,174
1010,125	-11	-3,496
1012,057	-10	-3,429
1050,149	-11	-3,483
1052,081	-7,5	-3,262
1054,006	-4	-2,295
1055,932	-1,5	-1,478
1057,864	0	-0,579
1059,784	1,5	-0,001
1061,71	1,5	-0,02
1063,648	0	-0,241
1065,574	-1	-1,159
1067,506	-4	-2,068
1069,45	-9	-2,875
1071,375	-11	-3,499
1073,307	-10,5	-3,474
1075,233	-6,5	-3,074
1077,165	-3,5	-2,244
1079,097	-1	-1,298
1081,029	1,5	-0,446
1082,954	1,5	-0,002
1084,887	1,5	-0,028
1086,813	0	-0,448
1088,75	-1,5	-1,328
1090,676	-5	-2,219
1092,608	-10	-3,069
1094,54	-11	-3,498
1096,472	-10,5	-3,463
1098,398	-6	-3,002
1100,33	-3	-2,047
1102,256	-1	-1,119
1104,188	1,5	-0,262
1106,114	1,5	-0,004
1108,039	1,5	-0,056
1109,977	0	-0,656
1111,903	-1,5	-1,515
1113,829	-5,5	-2,379
1115,761	-11	-3,306
1117,693	-11	-3,496
1119,619	-10,5	-3,435
1121,545	-5,5	-2,855
1123,477	-2,5	-1,92
1125,402	-0,5	-0,998
1127,34	1,5	-0,09
1129,266	2	-0,004
1131,192	1	-0,073
1133,13	0	-0,709
1135,056	-2,5	-1,602
1136,982	-6	-2,514
1138,92	-11	-3,338
1140,845	-11	-3,494
1142,771	-9	-3,389
1144,703	-5	-2,631
1146,629	-2	-1,717
1148,555	0	-0,751
1150,487	1,5	-0,001
1152,413	1,5	-0,01
1154,339	1	-0,14
1156,277	-0,5	-0,884
1158,202	-2,5	-1,738
1160,128	-6	-2,54
1162,06	-11	-3,383
1163,986	-10,5	-3,494
1165,918	-10	-3,415
1167,85	-5	-2,705
1169,776	-2,5	-1,814
1171,702	-0,5	-0,937
1173,634	1,5	-0,036
1175,559	1,5	-0,005
1177,485	1	-0,076
1179,417	0	-0,807
1181,343	-2,5	-1,688
1183,269	-6	-2,568
1185,201	-10,5	-3,348
1187,133	-10,5	-3,494
1189,059	-9,5	-3,414
1190,991	-5	-2,782
1192,916	-2,5	-1,885
1194,842	-1	-1,01
1196,768	1,5	-0,113
1198,7	1,5	-0,004
1200,638	1,5	-0,052
1202,57	0	-0,569
1204,496	-1,5	-1,525
1206,422	-5,5	-2,399
1208,348	-10,5	-3,236
1210,279	-10,5	-3,496
1212,211	-10	-3,443
1214,137	-6	-2,889
1216,075	-3	-2,112
1218,001	-1	-1,182
1219,927	1,5	-0,242
1221,859	1,5	-0,003
1223,785	1,5	-0,054
1225,711	0	-0,715
1227,643	-2	-1,651
1229,574	-6	-2,56
1231,5	-10,5	-3,44
1233,426	-10,5	-3,493
1235,358	-9,5	-3,408
1237,284	-5	-2,714
1239,204	-2	-1,83
1241,13	-0,5	-0,86
1243,062	1,5	0
1244,988	1,5	-0,006
1246,913	1	-0,111
1248,845	0	-0,854
1250,771	-3	-1,814
1252,697	-7,5	-2,791
1254,623	-10,5	-3,499
1256,555	-10,5	-3,482
1258,475	-8	-3,226
1260,401	-3,5	-2,31
1262,327	-1,5	-1,424
1264,264	0,5	-0,529
1266,19	1,5	-0,002
1268,116	1,5	-0,015
1270,05	0,5	-0,235
1271,98	-0,5	-1,127
1273,906	-3,5	-1,986
1275,832	-8	-2,873
1277,764	-10,5	-3,499
1279,69	-10,5	-3,476
1281,615	-7,5	-3,135
1283,541	-3	-2,216
1285,473	-2	-1,399
1287,399	0,5	-0,476
1289,325	1,5	-0,002
1291,257	1,5	-0,028
1293,183	0	-0,42
1295,109	-1,5	-1,289
1297,035	-4,5	-2,208
1298,96	-10	-3,048
1300,892	-11	-3,498
1302,818	-10	-3,465
1304,75	-6,5	-3,033
1306,682	-3	-2,157
1308,614	-1,5	-1,3
1310,54	1,5	-0,349
1312,472	1,5	-0,002
1314,404	1,5	-0,035
1316,329	0	-0,516
1318,261	-1,5	-1,356
1320,193	-4,5	-2,228
1322,119	-10,5	-3,206
1324,051	-10,5	-3,497
1325,983	-10	-3,451
1327,915	-5,5	-2,869
1329,841	-2,5	-1,935
1331,767	-1	-1,032
1333,698	1,5	-0,195
1335,63	1,5	-0,004
1337,556	1,5	-0,061
1339,482	0	-0,66
1341,408	-2	-1,542
1343,34	-6	-2,455
1345,272	-10,5	-3,323
1347,192	-10,5	-3,493
1349,124	-8,5	-3,397
1351,055	-4,5	-2,647
1352,975	-2	-1,695
1354,901	0	-0,735
1356,827	1,5	-0,001
1358,759	1,5	-0,011
1360,685	0,5	-0,17
1362,611	-0,5	-1,032
1364,537	-3,5	-1,965
1366,469	-8	-2,848
1368,4	-10,5	-3,499
1370,326	-10,5	-3,484
1372,252	-7,5	-3,238
1374,184	-3,5	-2,31
1376,11	-1	-1,361
1378,036	1,5	-0,399
1379,962	1,5	-0,002
1381,888	1,5	-0,032
1383,814	0	-0,417
1385,745	-1,5	-1,34
1387,678	-5	-2,228
1389,603	-9,5	-3,039
1391,529	-10,5	-3,498
1393,455	-10	-3,465
1395,381	-5,5	-2,97
1397,307	-3	-2,099
1399,233	-1	-1,224
1401,153	1,5	-0,295
1403,078	1,5	-0,003
1405,004	1,5	-0,043
1406,936	0	-0,614
1408,862	-2	-1,511
1410,788	-5,5	-2,445
1412,714	-10,5	-3,388
1414,646	-10,5	-3,495
1416,572	-9	-3,403
1418,492	-4,5	-2,646
1420,424	-2	-1,721
1422,349	0	-0,851
1424,275	1,5	0
1426,201	1,5	-0,006
1428,127	1	-0,121
1430,059	0	-0,823
1431,997	-3	-1,751
1433,923	-7	-2,689
1435,849	-10,5	-3,499
1437,774	-10,5	-3,48
1439,706	-7	-3,195
1441,638	-3,5	-2,35
1443,564	-1,5	-1,47
1445,508	0	-0,614
1447,434	1,5	-0,001
1449,36	1,5	-0,013
1451,286	1	-0,185
1453,218	-0,5	-1,056
1455,138	-3,5	-1,993
1457,075	-8	-2,813
1459,001	-10,5	-3,499
1460,933	-10,5	-3,482
1462,853	-6	-3,095
1464,785	-3	-2,244
1466,717	-1,5	-1,366
1468,643	0,5	-0,549
1470,569	1,5	-0,002
1472,495	1,5	-0,02
1474,426	0	-0,304
1476,358	-0,5	-1,117
1478,29	-3	-1,908
1480,222	-7,5	-2,818
1482,148	-10,5	-3,499
1484,08	-10,5	-3,481
1486,006	-7	-3,237
1487,932	-3	-2,351
1489,858	-1,5	-1,455
1491,79	0	-0,64
1493,721	1,5	-0,001
1495,647	1,5	-0,018
1497,567	0	-0,392
1499,493	-1	-1,267
1501,425	-4	-2,164
1503,357	-9,5	-3,085
1505,283	-10,5	-3,498
1507,209	-9,5	-3,458
1509,14	-5,5	-2,885
1511,069	-2	-1,871
1512,998	-0,5	-0,957
1514,924	1,5	0
1516,856	2	-0,007
1518,782	1	-0,132
1520,714	0	-0,884
1522,64	-2,5	-1,818
1524,566	-6,5	-2,614
1526,491	-10,5	-3,5
1528,423	-10,5	-3,49
1530,349	-8	-3,348
1532,269	-3,5	-2,481
1534,195	-1,5	-1,569
1536,121	0	-0,64
1538,041	1,5	-0,001
1539,979	1,5	-0,019
1541,899	0	-0,363
1543,824	-1	-1,24
1545,75	-3,5	-2,052
1547,676	-8	-2,928
1549,602	-10,5	-3,499
1551,534	-10	-3,475
1553,466	-6	-3,11
1555,392	-3	-2,204
1557,318	-1	-1,238
1559,244	1,5	-0,425
1561,181	2	-0,001
1563,107	1,5	-0,021
1565,033	0	-0,403
1566,959	-1	-1,272
1568,885	-4,5	-2,194
1570,817	-9,5	-3,063
1572,743	-10,5	-3,498
1574,663	-10	-3,454
1576,595	-5,5	-2,926
1578,52	-2,5	-1,981
1580,446	-0,5	-1,056
1582,378	1,5	-0,175
1584,304	1,5	-0,004
1586,224	1	-0,067
1588,156	0	-0,74
1590,076	-2,5	-1,73
1592,002	-6,5	-2,621
1593,934	-10,5	-3,5
1595,865	-10,5	-3,49
1597,791	-8,5	-3,35
1599,717	-4	-2,524
1601,643	-1,5	-1,638
1603,575	0	-0,83
1605,501	1,5	0
1607,427	1,5	-0,008
1609,353	1	-0,13
1611,279	-0,5	-0,934
1613,204	-3	-1,85
1615,142	-7	-2,719
1617,068	-10,5	-3,5
1618,994	-10,5	-3,489
1620,92	-7,5	-3,322
1622,846	-3,5	-2,43
1624,778	-1,5	-1,5
1626,704	0,5	-0,566
1628,63	1,5	-0,001
1630,561	1,5	-0,012
1632,481	0,5	-0,238
1634,413	-0,5	-1,104
1636,339	-3,5	-2,044
1638,265	-9	-2,994
1640,197	-10,5	-3,498
1642,123	-10	-3,458
1644,049	-5,5	-2,912
1645,981	-2,5	-2,031
1647,906	-1	-1,154
1649,832	1,5	-0,179
1651,758	1,5	-0,004
1653,684	1	-0,062
1655,61	0	-0,71
1657,536	-2,5	-1,67
1659,462	-6	-2,594
1661,382	-10,5	-3,5
1663,302	-10,5	-3,482
1665,228	-7,5	-3,24
1667,153	-3,5	-2,363
1669,085	-1,5	-1,443
1671,011	0,5	-0,509
1672,937	1,5	-0,002
1674,863	1,5	-0,018
1676,789	0	-0,29
1678,721	-1	-1,139
1680,641	-4	-2,066
1682,573	-8,5	-2,927
1684,498	-10,5	-3,499
1686,424	-10	-3,466
1688,35	-5,5	-2,991
1690,276	-3	-2,164
1692,214	-1	-1,326
1694,14	1,5	-0,468
1696,072	1,5	-0,001
1697,998	1,5	-0,024
1699,924	0,5	-0,337
1701,849	-1	-1,26
1703,781	-3,5	-2,044
1705,713	-9	-2,978
1707,645	-10,5	-3,499
1709,571	-10	-3,476
1711,497	-6	-3,082
1713,429	-3,5	-2,27
1715,355	-1,5	-1,4
1717,281	1	-0,459
1719,206	1,5	-0,002
1721,138	1,5	-0,02
1723,064	0	-0,324
1724,996	-1	-1,169
1726,922	-3,5	-2,071
1728,848	-9	-3,01
1730,774	-10,5	-3,498
1732,7	-10	-3,459
1734,626	-6	-3,003
1736,551	-3	-2,15
1738,483	-1	-1,277
1740,409	1	-0,413
1742,341	1,5	-0,002
1744,267	1,5	-0,019
1746,193	0,5	-0,276
1748,125	-0,5	-1,088
1750,051	-3	-1,979
1751,971	-7,5	-2,858
1753,896	-10	-3,499
1755,822	-10	-3,48
1757,748	-7	-3,215
1759,674	-3	-2,329
1761,6	-1,5	-1,447
1763,526	0	-0,566
1765,458	1,5	-0,001
1767,384	1,5	-0,012
1769,322	1	-0,166
1771,241	-0,5	-1,009
1773,173	-3	-1,913
1775,099	-7	-2,783
1777,031	-10	-3,499
1778,958	-10	-3,483
1780,883	-7	-3,166
1782,809	-3	-2,214
1784,741	-1	-1,328
1786,673	0,5	-0,504
1788,598	2	-0,002
1790,524	1,5	-0,022
1792,45	0,5	-0,363
1794,37	-1	-1,225
1796,29	-3,5	-2,137
1798,216	-9	-3,103
1800,142	-10	-3,496
1802,068	-9	-3,454
1803,994	-4,5	-2,831
1805,925	-2	-1,88
1807,851	-0,5	-1
1809,777	2	-0,113
1811,703	1,5	-0,005
1813,629	1	-0,08
1815,555	0	-0,795
1817,481	-2	-1,734
1819,407	-6	-2,632
1821,339	-10	-3,5
1823,264	-10	-3,487
1825,196	-7	-3,274
1827,122	-3,5	-2,493
1829,054	-1,5	-1,679
1830,98	0	-0,804
1832,918	2	0
1834,838	2	-0,01
1836,764	1	-0,143
1838,684	-0,5	-0,942
1840,615	-3	-1,894
1842,547	-7	-2,718
1844,467	-10	-3,499
1846,399	-10	-3,483
1848,331	-6,5	-3,208
1850,257	-3	-2,3
1852,189	-1	-1,44
1854,115	1	-0,527
1856,041	1,5	-0,002
1857,967	1,5	-0,021
1859,892	0,5	-0,303
1861,824	-0,5	-1,089
1863,75	-3	-1,949
1865,682	-7,5	-2,8
1867,608	-10	-3,499
1869,534	-10	-3,479
1871,466	-5,5	-3,021
1873,386	-2,5	-2,1
1875,318	-0,5	-1,234
1877,243	1,5	-0,427
1879,169	2	-0,002
1881,101	1,5	-0,016
1883,021	0,5	-0,297
1884,953	-0,5	-1,153
1886,873	-4,5	-2,313
1888,805	-10	-3,17
1890,737	-10,5	-3,496
1892,663	-9	-3,44
1894,588	-4,5	-2,827
1896,52	-2	-1,982
1898,446	-0,5	-1,134
1900,378	1,5	-0,176
1902,304	1,5	-0,004
1904,23	1,5	-0,054
1906,156	0	-0,707
1908,082	-3	-1,88
1910,014	-7	-2,762
1911,933	-10	-3,499
1913,859	-10	-3,482
1915,785	-7	-3,251
1917,717	-3	-2,366
1919,643	-1	-1,437
1921,569	0,5	-0,52
1923,495	1,5	-0,002
1925,421	1,5	-0,02
1927,341	0	-0,345
1929,279	-0,5	-1,225
1931,204	-4	-2,132
1933,136	-9	-2,999
1935,062	-10	-3,498
1936,994	-9,5	-3,47
1938,92	-5,5	-2,982
1940,846	-2	-2,048
1942,772	-1	-1,205
1944,71	1	-0,447
1946,635	2	-0,002
1948,567	2	-0,026
1950,499	0,5	-0,37
1952,419	-1	-1,292
1954,345	-4	-2,145
1956,271	-9	-3,069
1958,203	-10	-3,498
1960,135	-9,5	-3,468
1962,061	-5,5	-2,985
1963,986	-2,5	-2,082
1965,912	-0,5	-1,111
1967,844	1,5	-0,21
1969,782	1,5	-0,003
1971,702	1,5	-0,044
1973,634	0	-0,494
1975,56	-1	-1,326
1977,492	-3,5	-2,198
1979,418	-9,5	-3,111
1981,355	-10	-3,498
1983,281	-9	-3,456
1985,207	-5	-2,847
1987,133	-2	-1,951
1989,065	-0,5	-1,084
1990,991	1,5	-0,142
1992,911	1,5	-0,005
1994,837	1,5	-0,074
1996,763	0	-0,768
1998,688	-1,5	-1,596
2000,614	-5,5	-2,551
2002,54	-10	-3,483
2004,472	-10	-3,493
2006,398	-7,5	-3,38
2008,324	-4,5	-2,64
2010,244	-1,5	-1,744
2012,17	0	-0,88
2014,096	2	0
2016,027	2	-0,008
2017,953	1	-0,141
2019,891	0	-0,883
2021,817	-3	-1,823
2023,749	-6	-2,663
2025,675	-10	-3,5
2027,601	-9,5	-3,488
2029,527	-7,5	-3,34
2031,453	-3,5	-2,54
2033,391	-1,5	-1,66
2035,316	0	-0,752
2037,242	2	-0,001
2039,174	1,5	-0,008
2041,1	1	-0,127
2043,026	0	-0,89
2044,952	-2	-1,759
2046,878	-6	-2,625
2048,81	-9,5	-3,498
2050,742	-10	-3,491
2052,673	-7,5	-3,376
2054,605	-4,5	-2,651
2056,531	-1,5	-1,742
2058,457	0	-0,862
2060,383	1,5	-0,001
2062,309	2	-0,006
2064,241	1,5	-0,083
2066,167	0	-0,734
2068,098	-1,5	-1,542
2070,024	-4,5	-2,363
2071,95	-10	-3,268
2073,876	-10	-3,495
2075,808	-8,5	-3,422
2077,728	-4	-2,664
2079,654	-1,5	-1,735
2081,586	0	-0,73
2083,506	1,5	-0,001
2085,432	1,5	-0,007
2087,351	1	-0,086
2089,277	0	-0,796
2091,203	-1,5	-1,634
2093,129	-5	-2,509
2095,055	-10	-3,408
2096,981	-9,5	-3,494
2098,907	-8	-3,399
2100,839	-4,5	-2,74
2102,758	-2	-1,83
2104,69	-0,5	-0,972
2106,616	1,5	-0,113
2108,548	1,5	-0,004
2110,474	1,5	-0,055
2112,406	0	-0,715
2114,332	-2	-1,664
2116,258	-5	-2,535
2118,184	-9,5	-3,407
2120,11	-9,5	-3,492
2122,035	-8,5	-3,406
2123,967	-4	-2,697
2125,893	-1,5	-1,76
2127,819	0	-0,9
2129,745	1,5	0
2131,665	2	-0,008
2133,591	1	-0,132
2135,517	0	-0,958
2137,443	-2	-1,882
2139,368	-6,5	-2,768
2141,3	-9,5	-3,499
2143,226	-9	-3,484
2145,152	-6	-3,222
2147,078	-3	-2,369
2149,01	-1	-1,418
2150,936	1	-0,484
2152,856	1,5	-0,002
2154,782	1,5	-0,03
2156,707	0	-0,434
2158,633	-0,5	-1,309
2160,565	-3	-2,168
2162,491	-8,5	-3,052
2164,417	-9,5	-3,498
2166,349	-9	-3,47
2168,281	-5,5	-3,039
2170,207	-2	-2,121
2172,132	-0,5	-1,187
2174,058	1,5	-0,19
2175,984	2	-0,004
2177,91	1	-0,069
2179,842	0	-0,684
2181,768	-1,5	-1,581
2183,694	-4,5	-2,451
2185,632	-9,5	-3,298
2187,558	-9,5	-3,496
2189,484	-8	-3,413
2191,409	-4	-2,678
2193,335	-1,5	-1,766
2195,261	0	-0,854
2197,211	1,5	-0,052
2199,131	1,5	-0,006
2201,057	1,5	-0,097
2202,983	0	-0,857
2204,909	-2	-1,743
2206,835	-5	-2,624
2208,76	-9	-3,497
2210,686	-9	-3,49
2212,618	-7,5	-3,353
2214,544	-3,5	-2,535
2216,47	-1,5	-1,596
2218,396	0	-0,73
2220,328	1,5	-0,001
2222,254	1,5	-0,009
2224,186	1	-0,137
2226,111	0	-0,958
2228,037	-2	-1,817
2229,963	-6	-2,718
2231,895	-9,5	-3,499
2233,821	-9,5	-3,484
2235,747	-6,5	-3,302
2237,679	-3,5	-2,495
2239,599	-1,5	-1,58
2241,525	0	-0,661
2243,444	1,5	-0,001
2245,376	2	-0,013
2247,308	1	-0,195
2249,24	-0,5	-1,074
2251,166	-2,5	-1,948
2253,098	-6	-2,773
2255,018	-9,5	-3,499
2256,944	-9	-3,48
2258,87	-6	-3,196
2260,795	-3	-2,315
2262,715	-1	-1,473
2264,641	0,5	-0,546
2266,573	1,5	-0,001
2268,505	2	-0,015
2270,431	0,5	-0,24
2272,357	0	-1,148
2274,283	-3	-2,103
2276,209	-7	-2,909
2278,135	-9,5	-3,499
2280,066	-9,5	-3,48
2281,992	-6	-3,129
2283,924	-2,5	-2,252
2285,85	-1	-1,409
2287,776	0,5	-0,517
2289,702	1,5	-0,001
2291,628	1,5	-0,017
2293,548	0,5	-0,253
2295,467	-0,5	-1,2
2297,393	-3	-2,049
2299,319	-7,5	-2,983
2301,245	-9	-3,498
2303,171	-8,5	-3,462
2305,097	-5	-2,984
2307,023	-2,5	-2,141
2308,949	-0,5	-1,217
2310,869	2	-0,339
2312,795	1,5	-0,002
2314,732	1,5	-0,029
2316,652	0	-0,524
2318,578	-1,5	-1,47
2320,51	-4	-2,32
2322,442	-9,5	-3,248
2324,374	-9	-3,496
2326,3	-8,5	-3,442
2328,226	-4,5	-2,81
2330,151	-2	-1,887
2332,077	0	-0,968
2334,003	1,5	-0,052
2335,929	2	-0,006
2337,849	1,5	-0,084
2339,775	0	-0,82
2341,701	-2	-1,744
2343,633	-5,5	-2,583
2345,559	-9,5	-3,408
2347,485	-9	-3,494
2349,404	-8	-3,408
2351,33	-3,5	-2,685
2353,256	-1,5	-1,799
2355,182	-0,5	-0,945
2357,114	2	-0,036
2359,04	2	-0,006
2360,972	1,5	-0,069
2362,892	0	-0,83
2364,818	-2	-1,664
2366,743	-5	-2,539
2368,675	-9	-3,427
2370,601	-9	-3,492
2372,527	-7	-3,362
2374,453	-3	-2,529
2376,385	-1,5	-1,662
2378,311	0	-0,797
2380,243	1,5	0
2382,163	1,5	-0,008
2384,1	1	-0,115
2386,026	0	-0,853
2387,952	-2	-1,754
2389,872	-6	-2,718
2391,798	-9,5	-3,499
2393,724	-9	-3,482
2395,65	-5,5	-3,136
2397,576	-2,5	-2,235
2399,508	-1	-1,395
2401,433	1	-0,524
2403,359	1,5	-0,001
2405,291	1,5	-0,017
2407,217	0,5	-0,254
2409,137	-0,5	-1,138
2411,063	-3	-2,034
2412,989	-7,5	-2,928
2414,915	-9,5	-3,499
2416,841	-9	-3,465
2418,772	-5	-3,001
2420,698	-2	-2,104
2422,624	-0,5	-1,202
2424,556	1,5	-0,324
2426,482	1,5	-0,003
2428,408	1,5	-0,038
2430,334	0	-0,659
2432,26	-1,5	-1,539
2434,18	-5	-2,514
2436,111	-9,5	-3,462
2438,037	-9,5	-3,491
2439,963	-7	-3,359
2441,889	-3,5	-2,543
2443,815	-1,5	-1,705
2445,735	0	-0,757
2447,655	1,5	-0,001
2449,581	1,5	-0,011
2451,507	1	-0,141
2453,438	0	-0,9
2455,364	-2	-1,754
2457,296	-5	-2,572
2459,222	-9	-3,498
2461,148	-9	-3,49
2463,074	-7,5	-3,348
2465	-3	-2,491
2466,926	-1,5	-1,68
2468,852	0	-0,747
2470,777	1,5	-0,001
2472,697	1,5	-0,012
2474,623	0,5	-0,156
2476,549	-0,5	-0,984
2478,475	-2	-1,848
2480,401	-6	-2,751
2482,327	-9	-3,499
2484,259	-9	-3,485
2486,185	-6	-3,293
2488,116	-3	-2,438
2490,042	-1,5	-1,562
2491,968	0	-0,719
2493,894	1,5	-0,001
2495,82	1,5	-0,014
2497,752	0,5	-0,228
2499,678	-0,5	-1,158
2501,598	-3	-2,122
2503,524	-8	-3,019
2505,449	-9	-3,498
2507,375	-9	-3,473
2509,301	-5,5	-3,096
2511,227	-2	-2,151
2513,153	-0,5	-1,271
2515,079	1	-0,416
2517,005	1,5	-0,002
2518,937	1,5	-0,028
2520,863	0	-0,494
2522,788	-1	-1,4
2524,714	-3	-2,254
2526,64	-9	-3,18
2528,566	-9	-3,496
2530,486	-8	-3,435
2532,418	-4	-2,804
2534,338	-1,5	-1,835
2536,27	0	-0,956
2538,202	2	-0,077
2540,127	2	-0,004
2542,053	1,5	-0,076
2543,985	0	-0,678
2545,905	-1,5	-1,635
2547,831	-4,5	-2,409
2549,757	-9	-3,289
2551,683	-9	-3,496
2553,609	-8,5	-3,447
2555,535	-4,5	-2,894
2557,461	-2	-2,067
2559,386	-0,5	-1,275
2561,324	1	-0,461
2563,25	2	-0,001
2565,176	1,5	-0,068
2567,102	0	-0,693
2569,028	-1	-1,499
2570,954	-4	-2,363
2572,88	-9	-3,17
2574,8	-9	-3,496
2576,725	-8	-3,438
2578,651	-4	-2,772
2580,577	-1,5	-1,874
2582,497	-0,5	-0,906
2584,417	1,5	0
2586,343	1,5	-0,008
2588,269	0,5	-0,107
2590,195	0	-0,85
2592,115	-1,5	-1,745
2594,034	-5	-2,571
2595,954	-9	-3,456
2597,88	-9	-3,492
2599,806	-7,5	-3,39
2601,732	-3,5	-2,676
2603,652	-1,5	-1,761
2605,584	0	-0,887
2607,51	2	0
2609,436	1,5	-0,007
2611,361	1	-0,117
2613,287	0	-0,898
2615,213	-2	-1,814
2617,139	-7,5	-2,929
2619,065	-9	-3,499
2620,991	-9	-3,474
2622,917	-5	-3,121
2624,843	-2,5	-2,219
2626,769	-1	-1,306
2628,7	1,5	-0,478
2630,626	1,5	-0,002
2632,552	1,5	-0,028
2634,478	0	-0,409
2636,404	-0,5	-1,221
2638,33	-3	-2,118
2640,256	-7,5	-2,957
2642,182	-9	-3,499
2644,114	-8,5	-3,474
2646,039	-5,5	-3,191
2647,965	-3	-2,357
2649,891	-1	-1,508
2651,811	0	-0,634
2653,737	1,5	-0,001
2655,663	1,5	-0,016
2657,589	0,5	-0,208
2659,515	0	-1,018
2661,441	-2	-1,941
2663,366	-5,5	-2,784
2665,292	-9	-3,499
2667,218	-8,5	-3,486
2669,15	-7	-3,364
2671,076	-4	-2,659
2673,008	-2	-1,874
2674,934	-0,5	-1,004
2676,866	1,5	-0,328
2678,792	1,5	-0,002
2680,723	1,5	-0,023
2682,649	0,5	-0,333
2684,575	-0,5	-1,144
2686,519	-2,5	-2,058
2688,451	-6	-2,888
2690,377	-8,5	-3,499
2692,303	-8,5	-3,477
2694,235	-5	-3,131
2696,161	-2,5	-2,25
2698,086	-1	-1,274
2700,012	1,5	-0,386
2701,938	1,5	-0,002
2703,87	1,5	-0,028
2705,796	0	-0,507
2707,722	-0,5	-1,399
2709,648	-3	-2,253
2711,574	-8,5	-3,205
2713,506	-8,5	-3,497
2715,431	-7,5	-3,418
2717,351	-3	-2,646
2719,283	-1,5	-1,838
2721,209	0	-0,877
2723,135	1,5	0
2725,067	1,5	-0,041
2726,993	0	-0,628
2728,919	-1	-1,567
2730,839	-4,5	-2,568
2732,771	-8,5	-3,5
2734,696	-8,5	-3,485
2736,622	-5,5	-3,209
2738,548	-2,5	-2,334
2740,48	-1	-1,484
2742,412	0,5	-0,648
2744,344	2	-0,001
2746,27	2	-0,016
2748,196	1	-0,267
2750,122	0	-1,153
2752,047	-2,5	-2,124
2753,973	-8,5	-3,304
2755,893	-8,5	-3,494
2757,819	-7	-3,393
2759,739	-3	-2,625
2761,665	-1	-1,657
2763,597	0	-0,626
2765,523	2	-0,001
2767,449	1,5	-0,094
2769,374	0	-0,814
2771,403	-0,5	-1,276
2773,34	-2	-2,07
2775,29	-7,5	-3,123
2777,258	-8	-3,499
2779,202	-8	-3,483
2781,176	-6	-3,376
2783,108	-2,5	-2,272
2785,034	-1	-1,429
2786,971	0	-0,619
2788,897	1,5	-0,001
2790,829	1,5	-0,012
2792,767	1	-0,154
2794,693	0	-0,979
2796,619	-2	-2,02
2798,539	-6	-3,005
2800,483	-8	-3,498
2802,421	-7,5	-3,473
2804,346	-4,5	-3,111
2806,272	-2,5	-2,21
2808,198	-0,5	-1,275
2810,118	1	-0,412
2812,044	1,5	-0,002
2813,976	1,5	-0,063
2815,902	0	-0,695
2817,828	-1	-1,565
2819,754	-3	-2,419
2821,679	-7,5	-3,251
2823,635	-8	-3,497
2825,579	-7,5	-3,456
2827,511	-4,5	-3,048
2829,449	-2	-2,206
2831,459	-1	-1,766
2833,475	-1	-1,373
2835,431	0	-0,679
2837,477	1,5	-0,393
2839,498	2	-0,031
2841,49	1,5	-0,002
2843,44	1,5	-0,021
2845,372	0,5	-0,26
2847,394	0	-0,635
2849,428	0	-1,039
2851,36	-2	-1,843
2853,358	-3,5	-2,4
2855,284	-8	-3,258
2857,377	-8	-3,278
2859,423	-7,5	-3,5
2861,355	-7,5	-3,491
2863,347	-6	-3,422
2865,273	-3,5	-2,787
2867,433	-4,5	-3,098
2869,359	-2	-2,291
2871,363	-1,5	-1,802
2873,378	-0,5	-1,35
2875,304	1	-0,485
2877,362	2	-0,322
2879,288	1,5	-0,002
2881,214	1,5	-0,033
2883,14	0	-0,464
2885,066	-0,5	-1,248
2886,992	-2	-2,071
2888,918	-5,5	-2,909
2890,843	-7,5	-3,499
2892,769	-7,5	-3,48
2894,695	-4,5	-3,229
2896,627	-2,5	-2,376
2898,709	-2	-2,271
2900,713	-1,5	-1,822
2902,657	0	-1,042
2904,601	1,5	-0,288
2906,527	1,5	-0,003
2908,609	1,5	-0,006
2910,535	1	-0,08
2912,538	0	-0,357
2914,464	-0,5	-1,207
2916,396	-2	-2,068
2918,436	-3	-2,389
2920,362	-7,5	-3,298
2922,288	-7,5	-3,494
2924,22	-6	-3,407
2926,325	-6	-3,415
2928,335	-4,5	-3,166
2930,261	-2	-2,364
2932,343	-2	-2,275
2934,269	-0,5	-1,346
2936,195	1	-0,524
2938,121	1,5	-0,002
2940,215	2	-0,002
2942,135	1,5	-0,02
2944,072	0,5	-0,266
2945,998	0	-1,117
2947,924	-1,5	-2,003
2949,856	-6	-3,013
2951,782	-7	-3,498
2953,708	-6,5	-3,467
2955,64	-4	-3,164
2957,566	-2,5	-2,267
2959,582	-1,5	-1,868
2961,645	-1	-1,652
2963,571	0	-0,702
2965,581	1,5	-0,165
2967,675	2	-0,102
2969,673	1,5	-0,002
2971,779	1,5	-0,002
2973,711	1,5	-0,024
2975,751	1	-0,116
2977,671	0	-0,943
2979,758	0	-0,993
2981,768	-0,5	-1,432
2983,694	-2,5	-2,271
2985,62	-6,5	-3,099
2987,546	-7	-3,498
2989,472	-6,5	-3,461
2991,398	-3,5	-2,975
2993,324	-1,5	-2,078
2995,256	-0,5	-1,169
2997,181	1,5	-0,308
2999,107	2	-0,003
3001,033	1,5	-0,047
3002,959	0	-0,812
3004,879	-1,5	-1,76
3006,805	-3,5	-2,637
3008,737	-7	-3,499
3010,675	-7	-3,492
3012,607	-5,5	-3,388
3014,532	-1,5	-2,214
3016,458	-0,5	-1,36
3018,456	0	-0,812
3020,442	2	-0,202
3022,368	1,5	-0,004
3024,3	1,5	-0,058
3026,226	0	-0,658
3028,152	-1	-1,614
3030,078	-4	-2,861
3032,003	-6	-3,499
3033,929	-5,5	-3,46
3035,855	-3	-2,977
3037,781	-1,5	-1,953
3039,707	0	-0,923
3041,633	1,5	0
3043,559	1,5	-0,008
3045,587	1,5	-0,037
3047,621	0,5	-0,167
3049,552	0	-1,039
3051,628	0	-1,292
3053,548	-2	-2,353
3055,474	-6	-3,475
3057,406	-6	-3,49
3059,332	-4	-3,282
3061,384	-3	-2,851
3063,31	-1	-1,796
3065,374	-0,5	-1,312
3067,299	1,5	-0,324
3069,225	1,5	-0,003
3071,157	1,5	-0,057
3073,083	0	-0,745
3075,009	-1	-1,754
3076,941	-2,5	-2,599
3078,879	-5	-3,03
3080,883	-5,5	-3,498
3082,808	-5,5	-3,46
3084,734	-2,5	-2,921
3086,72	-2	-2,35
3088,652	-0,5	-1,446
3090,638	0	-0,85
3092,57	1,5	-0,001
3094,508	1,5	-0,009
3096,428	0,5	-0,189
3098,498	0,5	-0,383
3100,507	0	-0,877
3102,493	-0,5	-1,488
3104,485	-1,5	-2,088
3106,417	-4,5	-2,954
3108,421	-6	-3,389
3110,509	-5,5	-3,486
3112,435	-6	-3,491
3114,361	-4,5	-3,365
3116,293	-2,5	-2,533
3118,218	-1	-1,574
3120,144	0	-0,622
3122,166	1,5	-0,022
3124,254	1,5	0
3126,33	1,5	-0,001
3128,346	1,5	-0,004
3130,512	2	-0,002
3132,438	1,5	-0,027
3134,364	0	-0,5
3136,289	-0,5	-1,428
3138,299	-1	-1,644
3140,297	-2,5	-2,432
3142,235	-5,5	-3,227
3144,233	-5,5	-3,499
3146,231	-5,5	-3,493
3148,253	-5,5	-3,469
3150,179	-3	-2,99
3152,105	-1,5	-2,062
3154,03	-0,5	-1,117
3155,962	1,5	-0,219
3157,894	1,5	-0,004
3159,82	1,5	-0,066
3161,77	0	-0,615
3162,226	1,5	-0,001