File: ensaios_Ciclicos/_60perc/_3gap/entrada/_2.txt
Time (s)	Load (N)	Displacement (mm)
108,438	-1	-0,715
109,378	-5,5	-2,239
110,314	-6,5	-2,058
111,25	-1	-0,951
112,186	-14	-3,226
113,122	1,5	-0,001
114,058	-14	-3,493
114,994	1	-0,09
115,942	-9,5	-3,096
116,878	-2,5	-1,184
117,813	-4	-1,797
118,755	-9	-2,486
119,697	0,5	-0,477
120,633	-14	-3,499
121,569	1,5	-0,008
122,511	-13,5	-3,466
123,447	0	-0,392
124,389	-7	-2,624
125,325	-4,5	-1,646
126,267	-2,5	-1,339
127,204	-12	-2,921
128,139	1,5	-0,002
129,087	-14	-3,497
130,023	1,5	-0,024
130,971	-12	-3,374
131,913	-1	-0,744
132,849	-5	-2,212
133,785	-6	-1,947
134,732	-2	-1,047
135,668	-13,5	-3,182
136,616	1,5	-0,001
137,558	-14	-3,495
138,5	1	-0,048
139,436	-10,5	-3,21
140,372	-1,5	-1,076
141,308	-4	-1,863
142,25	-8	-2,361
143,186	0	-0,615
144,122	-13,5	-3,499
145,058	1,5	-0,004
146	-13,5	-3,478
146,936	0	-0,236
147,884	-7,5	-2,738
148,826	-4	-1,508
149,768	-2,5	-1,446
150,704	-10,5	-2,766
151,64	1,5	-0,131
152,581	-14	-3,498
153,529	1,5	-0,015
154,465	-12	-3,409
155,407	-1	-0,688
156,349	-5,5	-2,308
157,285	-6	-1,969
158,227	-2	-1,059
159,163	-13,5	-3,137
160,099	1,5	-0,001
161,041	-13,5	-3,495
161,983	1,5	-0,053
162,925	-10	-3,229
163,867	-1	-0,967
164,803	-4	-1,872
165,745	-7,5	-2,324
166,693	0	-0,619
167,629	-13,5	-3,499
168,571	1,5	-0,004
169,512	-13,5	-3,477
170,454	0	-0,231
171,396	-8	-2,782
172,332	-3	-1,445
173,28	-3	-1,564
174,216	-9	-2,554
175,158	1	-0,38
176,104	-13,5	-3,499
177,048	1,5	-0,006
177,99	-13	-3,466
178,926	0	-0,423
179,862	-6	-2,469
289,518	-13	-3,5
290,459	1,5	-0,003
291,401	-13	-3,484
292,337	0,5	-0,178
293,291	-8	-2,894
294,233	-2,5	-1,364
295,175	-3	-1,574
296,123	-9	-2,674
297,066	1	-0,273
298,007	-13	-3,498
298,949	1,5	-0,011
299,891	-12	-3,437
300,833	0	-0,564
301,775	-5	-2,388
302,717	-4,5	-1,836
303,653	-1,5	-1,118
304,595	-12	-3,059
305,543	1,5	0
306,491	-13	-3,496
307,433	1,5	-0,038
308,374	-9,5	-3,285
309,316	-1,5	-0,931
310,27	-4	-2,082
311,212	-6	-2,064
312,154	-0,5	-0,89
313,108	-13	-3,312
314,05	1,5	-0,001
314,992	-12,5	-3,492
315,934	0,5	-0,082
316,87	-8	-3,023
317,812	-2	-1,234
318,748	-3	-1,685
319,69	-8,5	-2,529
320,626	1	-0,361
321,568	-13	-3,499
322,516	1,5	-0,009
323,458	-12	-3,456
324,4	0	-0,458
325,348	-5,5	-2,562
326,296	-4	-1,659
327,237	-2	-1,29
328,179	-11	-2,967
329,127	1,5	-0,003
330,069	-12,5	-3,497
331,011	1,5	-0,026
331,953	-10	-3,356
332,895	-1	-0,78
333,837	-4,5	-2,226
334,779	-5	-2,009
335,715	-0,5	-0,914
336,657	-12,5	-3,311
337,599	1,5	-0,001
338,541	-12,5	-3,492
339,483	1	-0,075
340,431	-8,5	-3,132
341,379	-1,5	-1,036
342,321	-3,5	-1,965
343,263	-6	-2,201
344,216	-0,5	-0,85
345,164	-12,5	-3,4
346,101	1,5	-0,002
347,048	-12,5	-3,491
347,99	1	-0,084
348,932	-8,5	-3,132
349,874	-1,5	-1,071
350,822	-3,5	-1,928
351,764	-7	-2,324
352,706	0	-0,693
353,654	-12,5	-3,499
354,602	1,5	-0,002
355,544	-12,5	-3,488
356,492	0,5	-0,112
357,434	-7,5	-2,978
358,376	-2	-1,215
359,318	-3	-1,732
360,254	-8,5	-2,538
361,201	1	-0,487
470,875	-9	-3,235
471,817	-1	-1,002
472,765	-3	-1,971
473,707	-6	-2,227
474,649	0	-0,683
475,597	-12	-3,5
476,539	1,5	-0,003
477,481	-12	-3,485
478,423	0,5	-0,15
479,365	-6,5	-2,87
480,307	-2,5	-1,381
481,249	-2,5	-1,566
482,191	-8	-2,648
483,127	1,5	-0,295
484,062	-12	-3,499
485,01	1,5	-0,01
485,952	-11	-3,436
486,894	0	-0,51
487,836	-5	-2,416
488,772	-4	-1,834
489,726	-1,5	-1,143
490,668	-11	-3,099
491,61	1,5	-0,001
492,558	-12	-3,495
493,506	1,5	-0,041
494,442	-8,5	-3,237
495,384	-1	-1,029
496,326	-3	-1,952
497,274	-5,5	-2,238
498,216	0	-0,737
499,164	-12	-3,486
500,1	1,5	-0,003
501,047	-12	-3,485
501,989	0,5	-0,152
502,925	-6	-2,803
503,867	-2	-1,436
504,803	-2	-1,454
505,745	-9,5	-2,782
506,687	1,5	-0,12
507,629	-12	-3,498
508,571	1,5	-0,018
509,525	-10,5	-3,401
510,467	0	-0,687
511,403	-4	-2,183
512,357	-4,5	-2,003
513,305	-1	-0,954
514,247	-12	-3,302
515,189	1,5	-0,001
516,137	-12	-3,492
517,079	1	-0,078
518,021	-7,5	-3,114
518,962	-1,5	-1,149
519,904	-3	-1,8
520,846	-6,5	-2,462
521,782	1	-0,412
522,736	-12	-3,499
523,672	1,5	-0,007
524,614	-11	-3,454
525,562	0	-0,386
526,51	-5	-2,537
527,452	-3,5	-1,746
528,394	-1,5	-1,187
529,336	-10,5	-3,038
530,272	1,5	-0,001
531,214	-12	-3,495
532,15	1,5	-0,059
533,092	-8	-3,14
534,028	-1	-1,163
534,97	-3	-1,764
535,905	-7,5	-2,575
536,847	1,5	-0,355
537,783	-12	-3,499
538,725	1,5	-0,013
539,661	-10,5	-3,426
540,603	0	-0,644
541,539	-4,5	-2,316
542,481	-4,5	-1,909
543,423	-1,5	-0,998
544,371	-12	-3,253
545,313	1,5	-0,001
546,255	-12	-3,494
547,197	1	-0,07
548,139	-7,5	-3,036
549,081	-1,5	-1,219
550,023	-2,5	-1,678
550,965	-7,5	-2,584
551,907	1,5	-0,32
552,848	-12	-3,499
553,791	1,5	-0,013
554,733	-10,5	-3,431
555,674	0	-0,603
556,616	-4,5	-2,398
557,558	-4	-1,863
558,5	-1	-1,095
559,448	-11,5	-3,213
560,384	1,5	-0,001
561,332	-12	-3,494
562,274	1	-0,065
563,216	-7,5	-3,117
564,158	-1,5	-1,256
565,1	-2,5	-1,654
566,042	-8,5	-2,655
566,984	1,5	-0,242
567,926	-12	-3,498
568,868	1,5	-0,015
569,804	-10,5	-3,407
570,751	0	-0,68
571,693	-4	-2,236
572,635	-5	-2,068
573,583	-1	-0,882
574,525	-12	-3,413
575,461	1,5	-0,002
576,403	-12	-3,489
577,351	1	-0,107
578,293	-7	-2,966
579,235	-2	-1,339
580,177	-2,5	-1,61
581,119	-8,5	-2,669
582,061	1	-0,277
582,997	-12	-3,498
583,939	1,5	-0,011
584,881	-11	-3,441
585,823	0	-0,59
586,765	-4,5	-2,278
587,707	-4,5	-1,974
588,654	-1	-1,063
589,596	-11,5	-3,146
590,538	1,5	-0,001
591,474	-12	-3,494
592,416	1	-0,057
593,358	-8	-3,137
594,3	-1	-1,088
595,242	-3	-1,844
596,196	-7	-2,422
597,132	1	-0,475
598,074	-12	-3,499
599,01	1,5	-0,007
599,958	-11,5	-3,468
600,9	0	-0,364
601,842	-5,5	-2,578
602,778	-3	-1,655
603,732	-1,5	-1,332
604,68	-9	-2,91
605,621	1,5	-0,032
606,563	-11,5	-3,497
607,505	1,5	-0,023
608,447	-9,5	-3,328
609,395	-0,5	-0,868
610,331	-3	-2,012
611,273	-5,5	-2,248
612,215	0	-0,672
613,157	-11,5	-3,5
614,099	1,5	-0,003
615,047	-11,5	-3,482
760,797	-11	-3,499
761,733	2	-0,008
762,674	-10,5	-3,46
763,616	0	-0,38
764,558	-5	-2,605
765,506	-2	-1,536
766,442	-1,5	-1,397
767,384	-8,5	-2,784
768,326	1,5	-0,191
769,268	-11	-3,498
770,216	2	-0,015
771,152	-10	-3,415
772,088	0	-0,684
773,036	-4	-2,308
773,978	-3,5	-1,932
774,914	-0,5	-0,981
775,862	-11	-3,259
776,804	1,5	-0,001
777,746	-11	-3,493
778,682	1,5	-0,081
779,624	-7	-3,084
780,572	-0,5	-1,154
781,508	-2	-1,781
782,449	-6	-2,484
783,391	0,5	-0,508
784,333	-11	-3,499
785,275	1,5	-0,006
786,211	-11	-3,464
787,153	0	-0,381
788,095	-5	-2,561
789,031	-2,5	-1,661
789,973	-1,5	-1,318
790,921	-9	-2,892
791,863	1,5	-0,051
792,799	-11	-3,497
793,741	1,5	-0,022
794,683	-9,5	-3,358
795,631	0	-0,756
796,567	-3,5	-2,145
797,515	-4	-2,007
798,456	-0,5	-0,946
799,392	-10,5	-3,275
800,346	1,5	-0,001
801,282	-11	-3,493
802,224	1	-0,072
803,16	-7,5	-3,068
804,102	-1	-1,162
805,044	-2,5	-1,769
805,986	-6,5	-2,476
806,922	1,5	-0,452
807,864	-11	-3,499
808,806	1,5	-0,007
809,748	-11	-3,465
810,69	0,5	-0,222
811,626	-5,5	-2,701
812,568	-1,5	-1,513
813,51	-1,5	-1,408
814,446	-9,5	-2,862
815,388	1,5	-0,122
816,329	-11	-3,498
817,265	1,5	-0,018
818,207	-10	-3,406
819,149	0	-0,671
820,091	-4	-2,298
821,039	-4	-1,914
821,975	-1	-1,026
822,917	-11	-3,201
823,859	1,5	-0,001
824,819	-11	-3,495
825,761	1,5	-0,046
826,697	-7,5	-3,211
827,639	-1	-1,05
828,575	-2	-1,856
829,517	-6	-2,369
830,453	0,5	-0,587
831,401	-11,5	-3,5
832,337	1,5	-0,005
833,278	-10,5	-3,473
834,22	0	-0,249
835,162	-5	-2,722
836,104	-2,5	-1,507
837,046	-1,5	-1,456
837,988	-8,5	-2,804
838,93	1,5	-0,047
839,866	-11	-3,497
840,814	1,5	-0,022
841,75	-9	-3,349
842,692	-0,5	-0,817
843,628	-3	-2,058
844,57	-4,5	-2,15
845,518	-0,5	-0,902
846,46	-11,5	-3,332
847,396	1,5	-0,002
848,338	-11	-3,491
849,28	1	-0,084
850,221	-6,5	-3,05
851,163	-1,5	-1,191
852,099	-2,5	-1,721
853,041	-7	-2,498
853,983	1,5	-0,401
854,919	-11,5	-3,499
855,861	1,5	-0,008
856,809	-10,5	-3,466
857,745	0	-0,319
858,681	-4,5	-2,584
859,623	-3	-1,64
860,565	-1,5	-1,275
861,513	-9	-2,85
862,449	1,5	-0,027
863,391	-11	-3,497
864,333	1,5	-0,025
865,269	-9	-3,338
866,211	-0,5	-0,891
867,153	-3	-2,061
868,094	-5	-2,131
869,037	0	-0,768
869,978	-11	-3,483
870,92	1,5	-0,002
871,856	-11	-3,487
872,81	1	-0,104
873,752	-6	-2,951
874,694	-1,5	-1,312
875,63	-2	-1,595
876,572	-7,5	-2,587
877,514	1	-0,37
878,456	-11	-3,499
879,392	1,5	-0,009
880,328	-10,5	-3,44
881,27	0	-0,57
882,206	-4	-2,417
883,154	-3	-1,725
884,096	-1	-1,176
885,038	-10,5	-3,108
885,974	1,5	-0,001
886,915	-11	-3,495
887,857	1,5	-0,048
888,799	-7,5	-3,236
889,735	-1	-1,08
890,677	-2,5	-1,884
891,619	-6	-2,357
892,555	0,5	-0,626
893,491	-11	-3,499
894,439	1,5	-0,004
895,381	-10,5	-3,47
896,317	0	-0,356
897,253	-4,5	-2,547
898,195	-3	-1,684
899,131	-1,5	-1,292
900,079	-9,5	-2,88
901,021	1,5	-0,041
901,957	-11	-3,497
902,898	1,5	-0,024
903,841	-9	-3,368
904,782	0	-0,764
905,724	-3	-2,152
906,666	-4	-2,052
907,608	-0,5	-0,938
908,544	-10,5	-3,359
909,492	1,5	-0,001
910,434	-11	-3,49
911,37	1	-0,094
912,306	-7	-3,03
913,248	-1	-1,205
914,19	-2	-1,768
915,126	-6,5	-2,512
916,068	1	-0,413
917,016	-11	-3,499
917,952	1,5	-0,008
918,894	-10,5	-3,458
919,836	0	-0,425
920,784	-5	-2,58
921,719	-2,5	-1,692
922,661	-1,5	-1,257
923,603	-10	-3,001
924,539	1,5	0
925,487	-11	-3,496
926,429	1,5	-0,034
927,377	-8,5	-3,33
928,313	-0,5	-0,897
929,255	-3	-2,046
930,197	-5	-2,184
931,139	0	-0,801
932,075	-11	-3,496
933,017	1,5	-0,002
933,959	-11	-3,488
934,895	0,5	-0,139
935,837	-6	-2,93
936,779	-1,5	-1,327
937,72	-2	-1,663
938,656	-7,5	-2,634
939,599	1	-0,35
940,54	-11	-3,499
941,482	1,5	-0,009
942,424	-10,5	-3,466
943,366	0	-0,333
944,302	-5	-2,596
945,238	-2,5	-1,681
946,18	-1,5	-1,326
947,116	-10	-2,951
948,052	1,5	0
948,994	-11	-3,497
949,936	1,5	-0,029
950,872	-8,5	-3,32
951,814	-0,5	-0,822
952,762	-3	-2,198
953,698	-4	-2,077
954,646	-0,5	-0,948
955,587	-10,5	-3,253
956,529	1,5	-0,001
957,471	-11	-3,493
958,413	1,5	-0,078
959,355	-6,5	-3,084
960,291	-1	-1,198
961,227	-2	-1,71
962,169	-6	-2,461
963,105	0,5	-0,541
964,047	-11	-3,499
964,989	1,5	-0,004
965,931	-10,5	-3,475
966,873	0	-0,219
967,815	-5	-2,778
968,763	-1,5	-1,375
969,699	-2	-1,64
970,641	-6	-2,532
971,577	1	-0,465
972,513	-11	-3,499
973,454	1,5	-0,008
974,396	-10,5	-3,462
975,332	0	-0,391
976,274	-4,5	-2,588
977,222	-2	-1,596
1303,628	1,5	-0,002
1304,57	-10,5	-3,488
1305,506	1	-0,119
1306,447	-5,5	-2,964
1307,383	-1	-1,29
1308,332	-2	-1,74
1309,267	-5,5	-2,476
1310,203	0,5	-0,537
1311,145	-10,5	-3,499
1312,087	1,5	-0,005
1313,029	-10,5	-3,478
1313,971	0,5	-0,216
1314,907	-5	-2,807
1315,861	-1	-1,348
1316,803	-2	-1,686
1317,739	-6	-2,59
1318,681	1	-0,421
1319,617	-10,5	-3,499
1320,559	1,5	-0,009
1321,507	-10	-3,457
1322,443	0	-0,41
1323,39	-4,5	-2,631
1324,326	-2,5	-1,666
1325,268	-1	-1,319
1326,21	-9	-2,91
1327,146	1,5	-0,042
1328,088	-10,5	-3,498
1329,024	1,5	-0,022
1329,966	-9	-3,387
1330,908	0	-0,702
1331,844	-3	-2,264
1332,786	-3,5	-1,983
1333,722	-0,5	-0,941
1334,664	-10,5	-3,273
1335,606	1,5	-0,001
1336,542	-10,5	-3,492
1337,484	1	-0,075
1338,42	-6,5	-3,102
1339,368	-1	-1,135
1340,31	-2	-1,786
1341,245	-5,5	-2,437
1342,181	1	-0,529
1343,117	-10,5	-3,499
1344,059	1,5	-0,006
1345,007	-10,5	-3,476
1345,943	0	-0,264
1346,879	-4,5	-2,711
1347,815	-2	-1,571
1348,757	-1,5	-1,483
1349,699	-7,5	-2,752
1350,635	1,5	-0,187
1351,577	-10,5	-3,498
1352,513	1,5	-0,017
1353,455	-9,5	-3,418
1354,391	0	-0,632
1355,327	-3,5	-2,392
1356,269	-3	-1,886
1357,211	-0,5	-1,099
1358,153	-10	-3,153
1359,088	1,5	-0,001
1360,03	-10,5	-3,495
1360,978	1,5	-0,037
1361,914	-8	-3,336
1362,85	0	-0,81
1363,786	-3	-2,15
1364,734	-3,5	-2,083
1365,67	-0,5	-0,963
1366,606	-10,5	-3,307
1367,542	1,5	-0,001
1368,478	-10,5	-3,492
1369,426	1	-0,069
1370,368	-6,5	-3,156
1371,304	-0,5	-1,078
1372,246	-2	-1,907
1373,188	-5	-2,296
1374,13	0	-0,763
1375,072	-10,5	-3,491
1376,007	1,5	-0,003
1376,949	-10,5	-3,487
1377,885	1	-0,12
1378,821	-6	-2,962
1379,763	-1,5	-1,294
1380,699	-2	-1,661
1381,641	-6,5	-2,558
1382,577	1	-0,392
1383,513	-10,5	-3,499
1384,449	1,5	-0,01
1385,391	-10	-3,462
1386,339	0	-0,308
1387,275	-4,5	-2,6
1388,217	-2	-1,598
1389,159	-1,5	-1,414
1390,095	-7,5	-2,788
1391,037	1,5	-0,148
1391,973	-10,5	-3,498
1392,92	1,5	-0,014
1393,863	-9,5	-3,426
1394,798	0	-0,614
1395,74	-3	-2,329
1396,682	-3	-1,932
1397,624	-0,5	-1,032
1398,566	-10,5	-3,19
1399,502	1,5	-0,001
1400,444	-10,5	-3,494
1401,38	1,5	-0,063
1402,316	-7	-3,152
1403,252	-0,5	-1,087
1404,194	-2,5	-1,828
1405,136	-5,5	-2,401
1406,072	0	-0,597
1407,014	-10,5	-3,499
1407,95	1,5	-0,004
1408,892	-10,5	-3,48
1409,834	0,5	-0,204
1410,77	-5,5	-2,805
1411,711	-1,5	-1,464
1412,647	-1	-1,535
1413,589	-7	-2,721
1414,525	1,5	-0,258
1415,467	-10,5	-3,498
1416,409	1,5	-0,013
1417,345	-9,5	-3,437
1418,287	0	-0,497
1419,229	-4	-2,542
1420,165	-2,5	-1,698
1421,107	-1	-1,325
1422,043	-9,5	-2,945
1422,985	1,5	-0,052
1423,927	-10,5	-3,498
1424,863	1,5	-0,021
1425,805	-8,5	-3,412
1426,741	0	-0,637
1427,683	-3	-2,359
1428,618	-3	-1,886
1429,56	-0,5	-1,105
1430,502	-10	-3,142
1431,438	2	-0,001
1432,38	-10,5	-3,495
1433,316	1,5	-0,054
1434,258	-7,5	-3,28
1435,194	-0,5	-0,973
1436,13	-2,5	-1,971
1437,072	-4,5	-2,253
1438,008	0	-0,744
1438,95	-10,5	-3,498
1439,886	1,5	-0,003
1440,822	-10	-3,484
1441,764	0,5	-0,132
1442,7	-5,5	-2,917
1443,642	-1	-1,244
1444,578	-2	-1,806
1445,52	-5,5	-2,412
1446,461	0,5	-0,621
1447,397	-10,5	-3,5
1556,771	1,5	-0,002
1557,707	-10,5	-3,49
1558,649	1	-0,101
1559,585	-6	-3,051
1560,527	-0,5	-0,95
1561,469	-2,5	-2,082
1562,405	-4	-2,193
1563,347	-0,5	-0,871
1564,283	-10,5	-3,432
1565,225	2	-0,002
1566,161	-10	-3,488
1567,103	1	-0,123
1568,045	-6	-3,011
1568,98	-1	-1,249
1569,922	-2	-1,758
1570,858	-5,5	-2,508
1571,8	1	-0,476
1572,736	-10,5	-3,499
1573,678	1,5	-0,007
1574,626	-10	-3,471
1575,562	0	-0,282
1576,504	-4,5	-2,7
1577,44	-1,5	-1,55
1578,382	-1	-1,382
1579,324	-7,5	-2,832
1580,26	1,5	-0,116
1581,208	-10,5	-3,498
1582,144	1,5	-0,015
1583,086	-9	-3,39
1584,022	0	-0,762
1584,964	-3	-2,191
1585,9	-3	-2,053
1586,841	-0,5	-0,964
1587,783	-10,5	-3,28
1588,719	1,5	-0,001
1589,661	-10	-3,493
1590,597	1,5	-0,066
1591,539	-6,5	-3,114
1592,481	-0,5	-1,041
1593,417	-2	-1,866
1594,359	-4,5	-2,338
1595,295	0,5	-0,596
1596,237	-10,5	-3,5
1597,173	2	-0,004
1598,115	-10	-3,475
1599,057	0,5	-0,211
1599,993	-4,5	-2,72
1600,941	-1	-1,411
1601,889	-1,5	-1,556
1602,824	-7	-2,678
1603,761	2	-0,17
1604,708	-10,5	-3,498
1605,65	1,5	-0,014
1606,586	-9	-3,42
1607,528	0	-0,579
1608,464	-3	-2,298
1609,406	-3	-1,943
1610,342	-0,5	-1,012
1611,284	-10,5	-3,237
1612,226	1,5	-0,001
1613,168	-10,5	-3,494
1614,11	1,5	-0,053
1615,046	-7,5	-3,242
1615,988	-0,5	-0,979
1616,924	-2,5	-1,932
1617,866	-4,5	-2,312
1618,808	0,5	-0,63
1619,745	-10	-3,5
1620,691	2	-0,003
1621,627	-10	-3,48
1622,569	0,5	-0,186
1623,505	-4,5	-2,786
1624,447	-1	-1,43
1625,395	-1,5	-1,544
1626,331	-7	-2,71
1627,273	1,5	-0,289
1628,209	-10	-3,498
1629,151	1,5	-0,011
1630,093	-9,5	-3,436
1631,029	0	-0,588
1631,971	-3	-2,318
1632,907	-3	-1,975
1633,849	-0,5	-1,026
1634,785	-10	-3,198
1635,727	1,5	-0,001
1636,663	-10	-3,494
1637,605	1,5	-0,063
1638,546	-6,5	-3,15
1639,482	-0,5	-1,067
1640,424	-2	-1,902
1641,366	-4,5	-2,318
1642,302	0	-0,664
1643,238	-10	-3,5
1644,18	1,5	-0,003
1645,128	-10	-3,48
1646,064	0,5	-0,204
1647,006	-5	-2,844
1647,942	-1	-1,416
1648,89	-1,5	-1,588
1649,826	-6,5	-2,666
1650,768	1,5	-0,311
1651,71	-10,5	-3,499
1652,646	1,5	-0,011
1653,588	-9,5	-3,449
1654,524	0	-0,448
1655,466	-3,5	-2,548
1656,401	-2	-1,69
1657,343	-1	-1,31
1658,285	-8	-2,865
1659,221	2	-0,065
1660,163	-10	-3,498
1661,105	2	-0,021
1662,047	-8,5	-3,403
1662,983	0	-0,658
1663,925	-3	-2,317
1664,867	-2,5	-1,892
1665,803	-0,5	-1,101
1666,751	-9,5	-3,095
1667,687	2	-0,001
1668,629	-10	-3,496
1669,565	1,5	-0,043
1670,507	-7	-3,253
1671,449	-0,5	-1,008
1672,385	-2	-1,926
1673,326	-4,5	-2,289
1674,262	0	-0,656
1675,204	-10	-3,5
1676,146	1,5	-0,003
1677,088	-10	-3,484
1678,03	0,5	-0,162
1678,966	-5	-2,832
1679,908	-1	-1,389
1680,844	-1,5	-1,502
1681,786	-6,5	-2,694
1682,722	1,5	-0,274
1683,664	-10	-3,499
1684,612	2	-0,01
1685,548	-9,5	-3,442
1686,502	0	-0,418
1687,438	-4	-2,569
1688,38	-1,5	-1,66
1689,316	-1	-1,262
1690,257	-9	-2,996
1691,199	1,5	0
1692,135	-10	-3,496
1693,077	1,5	-0,027
1694,013	-8,5	-3,344
1694,955	0	-0,828
1695,891	-2,5	-2,1
1696,827	-4	-2,176
1697,763	0	-0,682
1698,705	-10	-3,5
1699,647	1,5	-0,003
1700,583	-10	-3,483
1701,525	1	-0,177
1702,461	-5	-2,822
1703,403	-1	-1,413
1704,345	-1,5	-1,556
1705,299	-6	-2,64
1706,241	1,5	-0,274
1707,177	-10	-3,498
1708,119	1,5	-0,011
1709,06	-9,5	-3,447
1710,002	0	-0,482
1710,944	-4	-2,536
1711,88	-2	-1,688
1712,828	-1	-1,323
1713,764	-8,5	-2,944
1714,706	2	0
1715,648	-10	-3,496
1716,596	1,5	-0,024
1717,532	-8,5	-3,367
1718,474	0	-0,728
1719,416	-3	-2,246
1720,352	-3	-1,97
1721,3	-0,5	-1,028
1722,236	-10	-3,257
1723,178	2	-0,001
1724,114	-10	-3,493
1725,056	1,5	-0,049
1725,997	-6,5	-3,173
1726,933	0	-0,98
1727,869	-2,5	-1,996
1728,811	-4	-2,208
1729,747	0	-0,711
1730,683	-10	-3,5
1731,625	1,5	-0,002
1732,561	-10	-3,482
1733,503	1	-0,142
1734,439	-5,5	-2,878
1735,381	-1	-1,352
1736,317	-1,5	-1,629
1737,253	-6	-2,64
1738,195	1,5	-0,25
1739,137	-10	-3,498
1740,073	1,5	-0,013
1741,009	-9,5	-3,427
1741,945	0	-0,548
1742,886	-3,5	-2,416
1743,822	-2,5	-1,863
1744,764	-1	-1,093
1745,7	-10	-3,174
1746,636	1,5	-0,001
1747,578	-10,5	-3,494
1748,514	1,5	-0,063
1749,456	-7	-3,226
1750,392	-0,5	-1
1751,334	-2,5	-2,039
1752,276	-4	-2,206
1753,212	0	-0,759
1754,154	-10	-3,494
1755,09	2	-0,002
1756,032	-10	-3,484
1756,968	1	-0,159
1757,904	-5	-2,868
1758,84	-1	-1,408
1759,776	-1,5	-1,521
1760,723	-6,5	-2,669
1761,659	1,5	-0,273
1762,601	-10	-3,498
1763,537	2	-0,014
1764,479	-9	-3,44
1765,415	0	-0,522
1766,357	-3	-2,41
1767,299	-2,5	-1,858
1768,235	-0,5	-1,046
1769,183	-10	-3,167
1770,119	1,5	-0,001
1771,061	-10	-3,494
1771,997	1,5	-0,06
1772,993	-8	-3,355
1773,941	0	-0,705
1774,877	-3	-2,25
1775,819	-2,5	-1,91
1776,755	-0,5	-1,065
1777,691	-9	-3,137
1778,626	2	-0,001
1779,568	-10	-3,495
1780,51	1,5	-0,045
1781,452	-7	-3,238
1782,394	0	-0,957
1783,33	-2	-1,956
1784,272	-3,5	-2,216
1785,214	0	-0,797
1786,15	-10	-3,489
1787,098	2	-0,002
1788,034	-10	-3,487
1788,976	1,5	-0,113
1789,912	-5,5	-2,962
1790,854	-0,5	-1,246
1791,79	-1,5	-1,698
1792,738	-5	-2,508
1793,674	1	-0,485
1794,616	-10	-3,499
1795,558	2	-0,007
1796,493	-9,5	-3,463
1797,441	0,5	-0,317
1798,377	-4	-2,574
1799,319	-1,5	-1,614
1800,255	-1	-1,401
1801,197	-8	-2,788
1802,133	1,5	-0,218
1803,075	-10	-3,498
1804,017	2	-0,014
1804,959	-9,5	-3,445
1805,901	0	-0,506
1806,837	-3,5	-2,454
1807,785	-1,5	-1,725
1808,721	-0,5	-1,215
1809,663	-9	-3,054
1810,605	1,5	0
1811,541	-10	-3,496
1812,483	1,5	-0,034
1813,424	-8,5	-3,329
1814,366	0	-0,846
1815,302	-2,5	-2,093
1816,244	-3,5	-2,18
1817,192	-0,5	-0,905
1818,134	-10	-3,288
1819,07	1,5	-0,001
1820,006	-10	-3,491
1820,948	1	-0,085
1821,884	-6,5	-3,083
1822,826	-0,5	-1,136
1823,762	-2	-1,818
1824,704	-4,5	-2,416
1825,646	0	-0,611
1826,582	-10	-3,5
1827,524	1,5	-0,004
1828,466	-10	-3,482
1829,414	0,5	-0,142
1830,35	-5	-2,892
1831,291	-1	-1,349
1832,227	-1,5	-1,606
1833,169	-6,5	-2,629
1834,105	1	-0,341
1835,047	-10	-3,499
1835,989	1,5	-0,01
1836,925	-9,5	-3,45
1837,867	0	-0,5
1838,803	-3,5	-2,482
1839,745	-2,5	-1,717
1840,687	-1	-1,257
1841,623	-9	-3,045
1842,565	1,5	0
1843,501	-10	-3,496
1844,443	1,5	-0,032
1845,385	-8	-3,364
1846,327	0	-0,753
1847,263	-3	-2,223
1848,204	-3	-2,023
1849,146	-0,5	-0,973
1850,088	-10	-3,283
1851,024	1,5	-0,001
1851,96	-10	-3,492
1852,908	1	-0,072
1853,844	-6,5	-3,166
1854,786	-0,5	-1,091
1855,728	-2	-1,916
1856,664	-4,5	-2,307
1857,606	0	-0,677
1858,542	-10	-3,5
1859,478	2	-0,004
1860,42	-10	-3,482
1861,356	0,5	-0,186
1862,292	-4,5	-2,788
1863,234	-1,5	-1,457
1864,176	-1	-1,517
1865,118	-7,5	-2,729
1866,053	1,5	-0,239
1866,989	-10	-3,498
1867,931	1,5	-0,014
1868,867	-9	-3,423
1869,809	0	-0,561
1870,745	-3	-2,383
1871,687	-2	-1,778
1872,623	-0,5	-1,16
1873,565	-9,5	-3,106
1874,507	1,5	-0,001
1875,443	-10	-3,495
1876,385	1,5	-0,04
1877,327	-7,5	-3,335
1878,269	0	-0,686
1879,205	-3	-2,332
1880,147	-2,5	-1,818
1881,089	-1	-1,262
1882,025	-9	-3
1882,967	1,5	0
1883,902	-10,5	-3,496
1884,844	1,5	-0,032
1885,78	-8	-3,36
1886,722	0	-0,762
1887,664	-3	-2,256
1888,606	-3	-1,954
1889,548	-0,5	-1,022
1890,484	-10	-3,215
1891,426	1,5	-0,001
1892,362	-10	-3,495
1893,304	1,5	-0,044
1894,24	-7,5	-3,275
1895,182	-0,5	-0,904
1896,118	-2,5	-2,052
1897,066	-4	-2,138
1898,008	0	-0,879
1898,944	-10	-3,348
1899,886	2	-0,002
1900,827	-10	-3,492
1901,769	1,5	-0,082
1902,705	-6	-3,136
1903,647	-0,5	-1,079
1904,583	-1,5	-1,856
1905,525	-5	-2,359
1906,467	0	-0,647
1907,403	-10	-3,5
1908,345	1,5	-0,003
1909,281	-10	-3,478
1910,223	0,5	-0,218
1911,159	-4,5	-2,788
1912,101	-1	-1,389
1913,043	-1,5	-1,634
1913,991	-6	-2,588
1914,933	1,5	-0,424
1915,869	-10	-3,499
1916,817	2	-0,006
2026,202	-6	-3,249
2027,138	0	-0,973
2028,08	-1,5	-1,927
2029,022	-4	-2,297
2029,958	0,5	-0,594
2030,9	-9,5	-3,499
2031,836	2	-0,005
2032,784	-9	-3,475
2033,72	0,5	-0,296
2034,662	-4	-2,641
2035,598	-1,5	-1,656
2036,54	-1	-1,302
2037,476	-7,5	-2,958
2038,418	1,5	-0,018
2039,36	-9,5	-3,497
2040,295	1,5	-0,028
2041,238	-7,5	-3,381
2042,173	0	-0,75
2043,115	-2,5	-2,14
2044,051	-3	-2,088
2044,993	-0,5	-0,881
2045,929	-9,5	-3,433
2046,871	1,5	-0,002
2047,813	-9,5	-3,49
2048,749	1	-0,094
2049,691	-5,5	-3,031
2050,627	-1	-1,239
2051,569	-1,5	-1,74
2052,505	-5	-2,519
2053,447	1,5	-0,432
2054,383	-9,5	-3,499
2055,325	1,5	-0,009
2056,261	-9	-3,45
2057,203	0	-0,476
2058,145	-3,5	-2,524
2059,081	-2	-1,745
2060,022	-1	-1,191
2060,964	-9	-3,039
2061,906	1,5	0
2062,842	-9,5	-3,496
2063,79	1,5	-0,032
2064,738	-7,5	-3,352
2065,674	0	-0,803
2066,616	-2,5	-2,15
2067,552	-3	-2,099
2068,494	0	-0,833
2069,436	-9,5	-3,439
2070,378	1,5	-0,002
2071,314	-9,5	-3,486
2072,25	1	-0,178
2073,186	-4	-2,74
2074,128	-1	-1,468
2075,07	-1,5	-1,458
2076,005	-8	-2,828
2076,947	1,5	-0,114
2077,883	-9,5	-3,498
2078,825	1,5	-0,02
2079,761	-7,5	-3,39
2080,709	0	-0,712
2081,645	-2	-2,206
2082,587	-2,5	-2,003
2083,523	-0,5	-0,946
2084,459	-9	-3,269
2085,401	1,5	-0,001
2086,337	-9,5	-3,49
2087,279	1	-0,099
2088,215	-5	-2,992
2089,157	-0,5	-1,275
2090,093	-1,5	-1,627
2091,035	-5,5	-2,598
2091,971	1	-0,336
2092,919	-9,5	-3,499
2093,855	1,5	-0,006
2094,796	-9	-3,468
2095,738	0,5	-0,211
2096,674	-4	-2,739
2097,61	-1	-1,574
2098,546	-0,5	-1,322
2099,488	-7,5	-2,949
2100,424	1,5	0
2101,372	-9,5	-3,497
2102,314	1,5	-0,024
2103,25	-7,5	-3,358
2104,192	0	-0,744
2105,128	-2,5	-2,157
2106,07	-3	-2,071
2107,006	0	-0,862
2107,948	-9,5	-3,4
2108,884	2	-0,002
2109,826	-9,5	-3,488
2110,761	1	-0,123
2111,703	-5	-3,007
2112,639	-0,5	-1,274
2113,581	-1,5	-1,696
2114,523	-5	-2,492
2115,459	1	-0,483
2116,401	-9,5	-3,499
2117,337	1,5	-0,007
2118,279	-9	-3,469
2119,215	0,5	-0,35
2120,157	-4	-2,639
2121,099	-1,5	-1,548
2122,041	-1	-1,388
2122,977	-7,5	-2,871
2123,925	1,5	-0,147
2124,867	-9,5	-3,498
2125,803	1,5	-0,02
2126,745	-8	-3,377
2127,681	0	-0,835
2128,628	-2,5	-2,153
2129,564	-3	-2,117
2130,506	-0,5	-0,836
2131,442	-9,5	-3,475
2132,384	1,5	-0,002
2133,325	-9,5	-3,487
2134,262	1	-0,14
2135,204	-5,5	-2,981
2136,14	-1	-1,305
2137,082	-1,5	-1,7
2138,018	-5,5	-2,618
2138,96	1,5	-0,34
2139,896	-9,5	-3,499
2140,844	1,5	-0,009
2141,78	-9	-3,452
2142,722	0	-0,439
2143,664	-3,5	-2,542
2144,606	-1,5	-1,672
2145,548	-1	-1,344
2146,484	-7	-2,9
2147,425	1,5	-0,018
2148,361	-9,5	-3,497
2149,303	1,5	-0,024
2150,239	-7,5	-3,382
2151,181	0	-0,718
2152,123	-3	-2,278
2153,059	-2,5	-2,014
2154,001	0	-0,961
2154,937	-9	-3,257
2155,879	1,5	-0,001
2156,815	-9,5	-3,492
2157,757	1	-0,078
2158,693	-5,5	-3,06
2159,641	0	-1,099
2160,577	-1,5	-1,836
2161,519	-4,5	-2,426
2162,461	0	-0,574
2163,396	-9,5	-3,499
2164,338	1,5	-0,006
2165,28	-9	-3,473
2166,222	0,5	-0,253
2167,158	-3,5	-2,666
2168,1	-1,5	-1,548
2169,042	-1	-1,469
2169,984	-6	-2,724
2279,358	-1,5	-1,823
2280,3	-0,5	-1,199
2281,236	-7,5	-3,03
2282,178	1,5	0
2283,114	-8,5	-3,496
2284,05	1,5	-0,046
2284,986	-6	-3,242
2285,922	0	-1,014
2286,863	-2	-1,923
2287,811	-3,5	-2,276
2288,753	0	-0,697
2289,689	-9	-3,5
2290,631	1,5	-0,003
2291,567	-8,5	-3,479
2292,509	0,5	-0,239
2293,445	-4	-2,7
2294,387	-1	-1,566
2295,329	-1	-1,355
2296,265	-6,5	-2,916
2297,207	1,5	-0,084
2298,143	-8,5	-3,497
2299,085	1,5	-0,02
2300,021	-7	-3,362
2300,963	0	-0,804
2301,899	-2,5	-2,125
2302,841	-3	-2,153
2303,776	0	-0,76
2304,718	-9	-3,497
2305,654	1,5	-0,003
2306,59	-8,5	-3,479
2307,532	1	-0,172
2308,468	-4	-2,747
2309,41	-1	-1,494
2310,346	-1	-1,503
2311,288	-5,5	-2,753
2312,224	1,5	-0,175
2313,16	-8,5	-3,498
2314,096	1,5	-0,02
2315,05	-7,5	-3,414
2315,986	0	-0,659
2316,928	-2,5	-2,26
2317,87	-1,5	-1,836
2318,806	-0,5	-1,15
2319,748	-7	-2,985
2320,683	1,5	0
2321,625	-8,5	-3,496
2322,561	1,5	-0,036
2323,503	-6	-3,309
2324,439	0	-0,945
2325,387	-2	-2,028
2326,323	-3	-2,2
2327,265	0	-0,785
2328,207	-8,5	-3,456
2329,143	2	-0,002
2330,085	-8,5	-3,489
2331,021	1	-0,118
2331,963	-4,5	-2,94
2332,905	-0,5	-1,332
2333,847	-1	-1,68
2334,783	-5	-2,607
2335,725	1,5	-0,382
2336,661	-8,5	-3,499
2337,603	2	-0,008
2338,544	-8	-3,468
2339,48	0	-0,352
2340,422	-3	-2,677
2341,358	-1	-1,578
2342,294	-1	-1,415
2343,23	-6	-2,83
2344,172	1,5	-0,12
2345,114	-8,5	-3,498
2346,056	1,5	-0,011
2346,992	-7,5	-3,43
2347,934	0	-0,576
2348,87	-2,5	-2,39
2349,812	-1,5	-1,814
2350,748	-0,5	-1,105
2351,69	-7,5	-3,094
2352,632	1,5	-0,001
2353,568	-8,5	-3,495
2354,516	1,5	-0,036
2355,452	-6	-3,29
2356,393	0	-0,892
2357,329	-2	-2,068
2358,271	-3	-2,161
2359,207	1	-0,814
2360,149	-8,5	-3,42
2361,091	1,5	-0,002
2362,027	-8,5	-3,488
2362,969	1	-0,123
2363,905	-4,5	-2,922
2364,847	-0,5	-1,292
2365,783	-1,5	-1,685
2366,725	-4,5	-2,509
2367,667	1	-0,471
2368,609	-9	-3,499
2369,563	1,5	-0,004
2370,505	-8,5	-3,479
2371,441	0,5	-0,211
2372,383	-3,5	-2,764
2373,325	-1	-1,46
2374,314	-1,5	-1,76
2375,256	-4,5	-2,475
2376,192	1	-0,485
2377,134	-8,5	-3,499
2378,07	1,5	-0,006
2379,012	-8	-3,468
2379,948	0,5	-0,302
2380,896	-3,5	-2,686
2381,832	-1	-1,58
2382,774	-1	-1,378
2383,71	-6,5	-2,919
2384,652	1,5	-0,009
2385,588	-8,5	-3,497
2386,53	1,5	-0,024
2387,472	-7	-3,382
2569,255	-8,5	-3,495
2570,191	1,5	-0,05
2571,127	-5	-3,201
2572,069	0	-1,018
2573,011	-1,5	-1,992
2573,953	-3	-2,268
2574,895	0	-0,681
2575,831	-8,5	-3,5
2576,773	1,5	-0,004
2577,709	-8	-3,479
2578,651	0,5	-0,18
2579,587	-3,5	-2,806
2580,529	-0,5	-1,45
2581,465	-1	-1,472
2582,407	-6	-2,779
2583,343	1,5	-0,147
2584,284	-8,5	-3,498
2585,22	1,5	-0,019
2586,162	-7	-3,407
2587,098	0	-0,719
2588,04	-2	-2,262
2588,976	-2	-1,994
2589,918	0	-0,966
2590,86	-8,5	-3,306
2591,796	1,5	-0,002
2592,738	-8,5	-3,492
2593,674	1,5	-0,076
2594,616	-5	-3,136
2595,552	-0,5	-1,209
2596,494	-1,5	-1,786
2597,496	-2,5	-2,143
2598,438	0	-0,817
2599,374	-8,5	-3,421
2600,316	2	-0,002
2601,251	-8	-3,489
2602,193	1	-0,122
2603,129	-4	-2,946
2604,071	-0,5	-1,309
2713,343	2	-0,005
2714,285	-7,5	-3,475
2715,221	0,5	-0,234
2716,163	-3	-2,81
2717,099	-0,5	-1,372
2718,041	-1	-1,583
2718,983	-4,5	-2,647
2719,919	1,5	-0,306
2720,855	-8	-3,498
2721,791	2	-0,012
2722,733	-7,5	-3,449
2723,668	0,5	-0,499
2724,61	-2,5	-2,476
2725,546	-1	-1,726
2726,482	-0,5	-1,218
2727,418	-6,5	-3,021
2728,36	1,5	0
2729,296	-8	-3,496
2730,238	1,5	-0,032
2731,18	-5,5	-3,333
2732,116	0	-0,822
2733,058	-2	-2,196
2733,994	-2	-2,038
2734,936	0	-0,962
2735,872	-7,5	-3,258
2736,814	1,5	-0,001
2737,75	-7,5	-3,492
2738,686	1,5	-0,079
2739,622	-4	-3,105
2740,563	0	-1,077
2741,499	-1,5	-1,878
2742,441	-3	-2,294
2743,377	0	-0,731
2744,319	-7,5	-3,496
2745,255	2	-0,002
2746,197	-7,5	-3,486
2747,133	1	-0,151
2748,075	-4	-2,966
2749,011	0	-1,246
2930,465	0	-0,923
2931,401	-7	-3,332
2932,343	1,5	-0,001
2933,279	-7,5	-3,489
2934,214	1	-0,112
2935,15	-3	-2,97
2936,092	0	-1,275
2937,028	-1	-1,675
2937,97	-3,5	-2,502
2938,906	1	-0,474
2939,848	-7,5	-3,499
2940,784	1,5	-0,006
2941,726	-7	-3,464
2942,662	0,5	-0,372
2943,604	-2,5	-2,618
2944,54	-0,5	-1,62
2945,482	-0,5	-1,343
2946,424	-5,5	-2,881
2947,36	1,5	-0,004
2948,302	-7,5	-3,497
2949,238	1,5	-0,032
2950,18	-5	-3,32
2951,115	0	-0,862
2952,057	-1,5	-2,08
2952,993	-2,5	-2,232
2953,935	0	-0,726
2954,871	-7,5	-3,5
2955,813	1,5	-0,003
2956,749	-7	-3,482
2957,685	0,5	-0,192
2958,621	-3	-2,758
2959,563	-0,5	-1,473
2960,499	-0,5	-1,436
2961,441	-5	-2,816
2962,377	1,5	-0,083
2963,319	-7,5	-3,498
2964,255	1,5	-0,021
2965,197	-5,5	-3,377
3182,798	-5,5	-3,495
3183,734	1	-0,053
3184,67	-3	-3,208
3185,612	0	-1,02
3186,548	-1	-1,95
3187,49	-1,5	-2,329
3188,426	0	-0,647
3189,368	-5	-3,5
3190,304	1,5	-0,004
3191,246	-5	-3,482
3192,182	1	-0,161
3193,124	-2,5	-2,904
3194,06	0	-1,292
3195,002	-0,5	-1,752
3195,937	-1,5	-2,471
3196,879	0,5	-0,54
3197,815	-5,5	-3,499
3198,757	1,5	-0,005
3199,693	-5	-3,475
3200,635	0,5	-0,236
3200,995	1,5	-0,001