File: ensaios_Ciclicos/_60perc/_3gap/entrada/_3.txt
Time (s)	Load (N)	Displacement (mm)
0	-0,5	-0,026
2,116	0	-0,127
4,204	0	-0,054
6,291	0	0
8,385	0	0
10,473	0	-0,001
12,561	0	-0,001
14,649	0	-0,001
16,737	0	-0,001
18,825	0,5	-0,002
20,913	0	-0,002
23,001	0,5	-0,002
25,094	0,5	-0,002
27,182	0,5	-0,003
29,276	0,5	-0,002
31,364	0,5	-0,003
33,458	0,5	-0,003
35,546	0,5	-0,004
37,634	0,5	-0,003
39,728	0,5	-0,004
41,822	0,5	-0,004
43,909	0,5	-0,005
45,997	0,5	-0,005
48,091	0,5	-0,006
50,191	1	-0,006
52,285	0,5	-0,007
54,373	0,5	-0,007
56,467	0,5	-0,006
58,555	0,5	-0,008
60,642	0,5	-0,009
62,73	0,5	-0,011
64,824	1	-0,011
66,912	1	-0,01
69	0,5	-0,009
71,094	1	-0,009
73,194	1	-0,006
75,288	1	-0,006
77,381	1	-0,005
79,475	1	-0,007
81,563	0,5	-0,007
83,651	1	-0,007
85,751	1	-0,006
87,851	1	-0,004
89,951	1	-0,003
92,045	1	-0,003
94,133	1	-0,002
96,226	1	-0,002
98,314	1	-0,002
100,402	1	-0,002
102,49	1	-0,001
104,578	1	-0,001
106,672	0,5	-0,001
108,76	1	-0,001
110,848	0,5	-0,001
112,935	0,5	-0,001
115,029	0,5	0
117,117	1	-0,001
119,211	1	-0,001
121,305	1	-0,001
123,393	1	-0,001
125,481	1	-0,002
127,575	1	-0,002
129,675	1	-0,001
131,762	1	-0,002
133,856	1	-0,003
135,95	1	-0,003
138,038	1	-0,004
140,132	1	-0,003
142,22	1	-0,004
144,308	1	-0,005
146,396	1	-0,008
148,483	1	-0,01
150,577	1	-0,01
152,665	1	-0,01
154,759	1	-0,009
156,847	1	-0,01
158,935	1	-0,009
161,029	1	-0,009
163,116	1	-0,01
165,204	1	-0,01
167,292	1	-0,016
169,38	1	-0,016
171,468	1	-0,02
173,562	1	-0,022
175,656	1	-0,027
177,744	1	-0,038
179,838	1	-0,029
181,925	1	-0,038
184,013	1	-0,037
186,101	1	-0,039
188,189	1	-0,04
190,277	1	-0,044
192,371	1	-0,041
194,459	1	-0,052
196,547	0,5	-0,066
198,64	1	-0,066
200,728	0,5	-0,082
202,822	1	-0,055
204,91	1	-0,067
206,998	0,5	-0,085
209,092	0	-0,091
211,18	0,5	-0,113
213,274	0,5	-0,105
215,362	0	-0,146
217,45	0	-0,212
219,537	0	-0,235
221,631	0	-0,21
223,725	0	-0,262
225,813	0	-0,268
227,907	0	-0,326
229,995	-0,5	-0,396
232,083	0	-0,488
234,17	-0,5	-0,533
236,264	-0,5	-0,712
238,352	-1,5	-0,905
240,446	-1,5	-0,904
242,534	-1,5	-1,016
244,622	-2	-1,039
246,71	-2	-1,162
248,804	-2	-1,193
250,898	-2	-1,19
252,985	-2,5	-1,24
255,073	-2,5	-1,343
257,161	-3	-1,493
259,249	-3	-1,516
261,343	-3,5	-1,557
263,431	-4	-1,675
265,525	-4	-1,694
267,618	-4	-1,729
269,706	-4,5	-1,837
271,794	-4,5	-1,913
273,888	-4,5	-1,869
275,976	-4,5	-1,86
278,07	-4,5	-1,847
280,164	-4,5	-1,877
282,252	-5	-1,948
284,34	-5	-1,998
286,433	-5,5	-2,138
288,521	-5,5	-2,129
290,609	-5,5	-2,131
292,715	-5,5	-2,096
294,809	-6	-2,136
296,909	-7	-2,216
298,997	-6,5	-2,196
301,085	-6,5	-2,203
303,173	-6	-2,13
305,272	-5,5	-2,03
307,366	-6	-2,086
309,454	-6	-2,113
311,542	-6	-2,121
313,636	-6	-2,14
315,73	-7	-2,282
317,818	-7	-2,359
319,918	-8	-2,48
322,006	-9	-2,572
324,093	-8,5	-2,589
326,181	-9	-2,682
328,275	-9,5	-2,685
330,363	-10	-2,76
332,457	-10,5	-2,882
334,545	-11	-2,952
336,639	-11,5	-3,004
338,726	-12	-3,134
340,814	-12	-3,211
342,908	-12,5	-3,28
344,996	-12,5	-3,404
347,084	-12,5	-3,474
349,178	-12,5	-3,5
351,266	-12,5	-3,499
353,36	-12,5	-3,5
355,447	-12,5	-3,499
357,541	-12,5	-3,499
359,629	-12,5	-3,499
361,723	-12,5	-3,498
363,823	-12	-3,498
365,917	-12	-3,498
368,011	-12,5	-3,498
370,099	-12,5	-3,498
372,187	-12,5	-3,497
374,28	-12,5	-3,497
376,38	-12	-3,496
378,468	-12	-3,494
380,556	-12	-3,493
382,65	-12	-3,494
384,738	-12	-3,494
386,826	-12	-3,492
388,92	-12,5	-3,493
391,013	-12	-3,494
393,101	-12,5	-3,494
395,189	-12	-3,494
397,283	-12	-3,493
399,377	-12	-3,494
401,471	-12	-3,494
403,559	-12	-3,494
405,653	-12	-3,492
407,753	-12	-3,493
409,846	-12	-3,492
411,946	-12	-3,494
414,034	-12	-3,493
416,128	-12	-3,494
418,216	-12	-3,493
420,31	-12	-3,492
422,404	-12	-3,492
424,498	-12	-3,492
426,597	-12,5	-3,492
428,691	-12	-3,492
430,785	-12	-3,491
432,879	-12	-3,49
434,967	-12	-3,489
437,061	-12	-3,491
439,155	-12	-3,492
441,243	-12	-3,489
443,337	-12	-3,489
445,424	-12	-3,487
447,512	-12	-3,486
449,612	-12	-3,485
451,706	-12	-3,488
453,794	-12	-3,487
455,882	-12	-3,483
457,97	-11,5	-3,478
460,064	-11,5	-3,477
462,163	-12	-3,482
464,251	-12	-3,478
466,345	-12	-3,475
468,439	-11,5	-3,462
470,533	-11,5	-3,462
472,627	-11,5	-3,453
474,715	-11	-3,443
476,809	-11,5	-3,442
478,902	-11	-3,437
480,996	-10,5	-3,438
483,09	-11	-3,438
485,184	-11	-3,427
487,272	-10,5	-3,411
489,36	-10	-3,392
491,448	-10,5	-3,395
493,536	-9,5	-3,37
495,629	-9,5	-3,342
497,723	-9,5	-3,314
499,823	-9	-3,281
501,923	-9	-3,274
504,017	-9	-3,268
506,111	-9	-3,257
508,205	-8,5	-3,219
510,293	-8	-3,138
512,387	-8	-3,11
514,474	-7,5	-3,017
516,568	-7,5	-2,912
518,668	-7,5	-2,955
520,756	-7	-2,89
522,844	-7	-2,84
524,938	-6	-2,816
527,032	-6,5	-2,806
529,12	-6,5	-2,79
531,219	-7	-2,847
533,319	-7	-2,864
535,407	-7	-2,831
537,501	-7	-2,891
539,601	-7,5	-2,939
541,695	-7,5	-2,951
543,783	-7,5	-2,912
545,877	-6,5	-2,893
547,97	-7	-2,921
550,058	-7	-2,883
552,152	-7	-2,906
554,24	-7	-2,845
556,334	-6	-2,8
558,422	-6	-2,692
560,516	-5,5	-2,636
562,604	-5,5	-2,554
564,704	-5,5	-2,506
566,791	-5	-2,452
568,885	-5	-2,422
570,973	-5	-2,404
573,067	-5	-2,395
575,161	-4,5	-2,276
577,255	-4,5	-2,266
579,343	-4	-2,18
581,437	-4	-2,142
583,53	-3,5	-2,061
585,618	-3,5	-2,023
587,706	-3	-1,92
589,794	-3	-1,886
591,894	-3	-1,887
593,988	-3	-1,846
596,082	-3	-1,816
598,176	-3	-1,802
600,276	-3	-1,818
602,363	-3	-1,731
604,464	-3	-1,7
606,557	-3	-1,686
608,645	-2,5	-1,626
610,733	-2	-1,485
612,827	-2	-1,391
614,921	-1,5	-1,182
617,021	-1,5	-1,154
619,115	-1,5	-1,145
621,208	-1,5	-1,111
623,296	-1,5	-0,971
625,384	-0,5	-0,75
627,472	0	-0,611
629,56	0,5	-0,471
631,666	0,5	-0,512
633,754	1	-0,398
635,848	1	-0,32
637,935	0,5	-0,285
640,035	1,5	-0,21
642,129	1,5	-0,149
644,223	1,5	-0,097
646,317	1,5	-0,092
648,411	1,5	-0,032
650,505	1,5	0
652,605	1,5	0
654,692	1,5	-0,001
656,792	1,5	-0,001
658,88	1,5	-0,001
660,968	1,5	-0,001
663,062	1,5	-0,001
665,15	1	-0,001
667,238	1,5	-0,002
669,332	1,5	-0,001
671,419	1	-0,002
673,513	1	-0,002
675,607	1	-0,002
677,695	1,5	-0,004
679,783	1	-0,003
681,877	1	-0,003
683,965	1,5	-0,004
686,065	1,5	-0,004
688,165	1,5	-0,004
690,264	1,5	-0,004
692,352	1,5	-0,004
694,44	1,5	-0,005
696,54	1,5	-0,005
698,628	1,5	-0,006
700,728	1,5	-0,006
702,822	1,5	-0,005
704,928	1,5	-0,005
707,015	1,5	-0,005
709,109	1,5	-0,005
711,197	1,5	-0,007
713,297	1,5	-0,007
715,391	1	-0,008
717,485	1	-0,011
719,579	1,5	-0,013
721,679	1	-0,015
723,772	1	-0,018
725,872	1	-0,029
727,966	1	-0,049
730,066	0,5	-0,062
732,16	0,5	-0,116
734,254	0,5	-0,131
736,342	0,5	-0,153
738,442	0,5	-0,151
740,536	0,5	-0,163
742,635	0,5	-0,157
744,723	0,5	-0,117
746,823	0,5	-0,098
748,917	1	-0,088
751,017	1	-0,084
753,111	1	-0,066
755,199	0,5	-0,08
757,287	1	-0,093
759,374	0,5	-0,119
761,468	0,5	-0,106
763,556	0,5	-0,094
765,644	0,5	-0,112
767,744	0,5	-0,116
769,838	0	-0,115
771,926	0,5	-0,114
774,014	0	-0,138
776,107	0,5	-0,124
778,195	0	-0,137
780,283	0,5	-0,136
782,371	0,5	-0,141
784,465	0,5	-0,131
786,553	0,5	-0,15
788,647	0,5	-0,173
790,735	0,5	-0,158
792,84	0	-0,137
794,928	0	-0,154
797,028	0,5	-0,11
799,128	0,5	-0,097
801,228	0,5	-0,1
803,334	0,5	-0,083
805,422	0,5	-0,095
807,51	0,5	-0,104
809,604	0,5	-0,108
811,697	0	-0,155
813,785	0,5	-0,138
815,879	0	-0,173
817,967	0	-0,213
820,061	0	-0,208
822,155	0	-0,215
824,255	0	-0,196
826,349	0,5	-0,152
828,442	0	-0,149
830,53	0	-0,18
832,636	0	-0,156
834,73	0	-0,138
836,83	0,5	-0,136
838,924	0	-0,184
841,018	0	-0,24
843,118	0	-0,236
845,211	0	-0,163
847,299	0	-0,178
849,393	0,5	-0,143
851,487	0,5	-0,116
853,587	0,5	-0,089
855,681	0,5	-0,074
857,781	1	-0,055
859,887	1	-0,048
861,987	1	-0,044
864,08	1	-0,052
866,174	1	-0,046
868,274	1	-0,034
870,362	1	-0,032
872,456	1	-0,029
874,556	1,5	-0,02
876,65	1,5	-0,015
878,75	1,5	-0,01
880,849	1,5	-0,01
882,949	1	-0,008
885,049	1	-0,005
887,155	1	-0,002
889,249	1	-0,002
891,343	1,5	-0,002
893,449	1,5	-0,001
895,543	1,5	-0,001
897,643	1,5	-0,001
899,736	1,5	-0,001
901,83	1,5	-0,001
903,93	1	-0,001
906,03	1,5	-0,005
908,124	1	-0,013
910,218	1,5	-0,005
912,318	1,5	-0,079
914,418	1	-0,032
916,529	1,5	-0,11
918,623	1,5	-0,12
920,723	1,5	-0,097
922,823	1,5	-0,16
924,923	1,5	-0,2
927,023	1,5	-0,222
929,123	1	-0,283
931,223	1	-0,272
933,323	0,5	-0,369
935,422	1	-0,342
937,528	1	-0,232
939,622	1	-0,201
941,716	1	-0,092
943,81	1,5	-0,079
945,904	1,5	-0,001
947,998	1,5	-0,005
950,086	1,5	-0,001
952,179	1,5	-0,001
954,267	1	-0,001
956,361	1	-0,001
958,455	1,5	-0,001
960,543	1,5	-0,001
962,637	1,5	-0,001
964,737	1,5	-0,001
966,831	1,5	-0,001
968,924	1,5	-0,001
971,018	1	0
973,112	1,5	-0,001
975,2	1,5	-0,001
977,306	1,5	-0,025
979,394	1,5	-0,085
981,482	1	-0,104
983,576	1	-0,148
985,675	1	-0,181
987,769	1	-0,149
989,863	1	-0,234
991,963	1	-0,316
994,051	1	-0,319
996,151	0,5	-0,346
998,245	0,5	-0,37
1000,345	1	-0,37
1002,439	1	-0,334
1004,532	1	-0,331
1006,626	1	-0,349
1008,72	1	-0,388
1010,814	0,5	-0,353
1012,908	1,5	-0,289
1015,002	1	-0,304
1017,102	1,5	-0,238
1019,196	1,5	-0,149
1021,283	1,5	-0,171
1023,377	1,5	-0,185
1025,477	1,5	-0,212
1027,565	1,5	-0,211
1029,659	1,5	-0,224
1031,753	1	-0,192
1033,841	1	-0,066
1035,941	1	-0,185
1038,035	1	-0,243
1040,128	1,5	-0,234
1042,222	1,5	-0,23
1044,316	1	-0,325
1046,404	1	-0,366
1048,504	1	-0,382
1050,592	1	-0,268
1052,686	1	-0,274
1054,786	1	-0,35
1056,879	1	-0,336
1058,973	1	-0,284
1061,061	1	-0,249
1063,155	1	-0,278
1065,255	0,5	-0,418
1067,349	0,5	-0,436
1069,449	0	-0,56
1071,537	0	-0,606
1073,63	0	-0,618
1075,724	0	-0,603
1077,818	0	-0,552
1079,912	0	-0,527
1082,006	0	-0,61
1084,1	0	-0,606
1086,2	0	-0,644
1088,3	0	-0,718
1090,388	0	-0,679
1092,487	0	-0,652
1094,575	0	-0,608
1096,663	0	-0,681
1098,757	0	-0,688
1100,845	0	-0,612
1102,939	0	-0,63
1105,039	0	-0,716
1107,127	0	-0,651
1109,226	0	-0,629
1111,314	0	-0,585
1113,408	0	-0,597
1115,496	0	-0,558
1117,59	0	-0,555
1119,69	0	-0,528
1121,79	0,5	-0,496
1123,89	0,5	-0,454
1125,984	0,5	-0,456
1128,077	0	-0,585
1130,171	0	-0,61
1132,271	0	-0,582
1134,359	0	-0,58
1136,459	0	-0,612
1138,547	0	-0,585
1140,647	0	-0,574
1142,74	0	-0,543
1144,84	0	-0,55
1146,934	0,5	-0,525
1149,028	0	-0,57
1151,122	0	-0,571
1153,21	0	-0,598
1155,31	0	-0,655
1157,398	0	-0,626
1159,498	0	-0,7
1161,591	0	-0,691
1163,685	0	-0,721
1165,779	0	-0,712
1167,867	0	-0,689
1169,961	0	-0,6
1172,055	0	-0,634
1174,149	0	-0,598
1176,243	0	-0,537
1178,33	0,5	-0,503
1180,43	0	-0,615
1182,524	0	-0,665
1184,624	0	-0,717
1186,718	-0,5	-0,726
1188,812	0	-0,711
1190,906	0	-0,542
1192,994	0,5	-0,476
1195,088	0,5	-0,425
1197,181	0,5	-0,39
1199,269	0,5	-0,405
1201,363	1	-0,449
1203,463	0,5	-0,486
1205,557	0,5	-0,521
1207,651	0,5	-0,405
1209,751	0,5	-0,432
1211,851	1	-0,459
1213,944	0,5	-0,454
1216,032	0	-0,536
1218,132	0,5	-0,432
1220,22	0,5	-0,366
1222,32	1	-0,436
1224,408	0,5	-0,348
1226,508	0,5	-0,424
1228,602	0	-0,479
1230,695	0	-0,486
1232,795	0	-0,481
1234,889	1	-0,386
1236,977	1	-0,315
1239,071	1,5	-0,226
1241,165	1,5	-0,08
1243,259	1,5	-0,079
1245,359	1,5	-0,066
1247,453	1	-0,003
1249,546	1,5	-0,001
1251,64	1,5	-0,001
1253,74	1,5	-0,001
1255,828	1,5	-0,001
1257,922	1,5	-0,002
1260,016	1,5	-0,002
1262,11	1,5	-0,002
1264,21	1,5	-0,002
1266,297	1,5	-0,002
1268,391	1,5	-0,003
1270,485	1,5	-0,003
1272,573	1,5	-0,003
1274,667	1	-0,003
1276,761	1,5	-0,005
1278,855	1,5	-0,006
1280,943	1,5	-0,007
1283,031	1,5	-0,01
1285,124	1	-0,009
1287,212	1,5	-0,008
1289,312	1,5	-0,008
1291,4	1,5	-0,009
1293,5	1,5	-0,007
1295,594	1,5	-0,006
1297,688	1,5	-0,008
1299,782	1,5	-0,007
1301,875	1,5	-0,007
1303,969	1,5	-0,006
1306,063	1,5	-0,005
1308,157	1,5	-0,006
1310,245	1,5	-0,005
1312,339	1,5	-0,004
1314,433	1,5	-0,004
1316,533	1,5	-0,004
1318,62	1,5	-0,005
1320,72	1,5	-0,004
1322,814	1,5	-0,004
1324,908	1,5	-0,004
1326,996	1,5	-0,003
1329,09	1,5	-0,003
1331,184	1,5	-0,002
1333,278	1,5	-0,001
1335,366	1,5	-0,001
1337,465	1,5	0
1339,565	1,5	-0,016
1341,653	1,5	-0,123
1343,747	1	-0,207
1345,847	1	-0,29
1347,947	1	-0,424
1350,035	0,5	-0,428
1352,135	0,5	-0,551
1354,228	0	-0,606
1356,316	0	-0,6
1358,416	0	-0,7
1360,516	0	-0,737
1362,61	-0,5	-0,802
1364,704	-0,5	-0,863
1366,798	-0,5	-0,945
1368,892	-1	-1,021
1370,979	-1	-1,046
1373,085	-1	-1,231
1375,173	-1	-1,303
1377,261	-1,5	-1,228
1379,361	-1	-1,265
1381,461	-1,5	-1,355
1383,555	-1,5	-1,304
1385,655	-1,5	-1,373
1387,749	-1,5	-1,391
1389,842	-1,5	-1,414
1391,948	-1,5	-1,487
1394,036	-1,5	-1,56
1396,13	-2	-1,626
1398,218	-2	-1,591
1400,312	-2	-1,541
1402,406	-1,5	-1,452
1404,494	-1,5	-1,366
1406,587	-1,5	-1,304
1408,681	-1	-1,204
1410,769	-1	-1,149
1412,863	-1	-1,056
1414,957	-1	-1,085
1417,045	-1	-1,12
1419,139	-1	-1,127
1421,239	-1	-1,158
1423,326	-1	-1,132
1425,42	-1	-1,137
1427,514	-1	-1,108
1429,608	-1	-1,136
1431,708	-1	-1,072
1433,808	-1	-0,987
1435,902	-1	-0,911
1437,99	-0,5	-0,766
1440,084	0	-0,677
1442,177	0	-0,673
1444,271	0	-0,686
1446,365	0	-0,746
1448,459	0	-0,641
1450,547	0,5	-0,623
1452,635	0,5	-0,542
1454,723	0	-0,573
1456,811	0,5	-0,496
1458,904	0,5	-0,413
1460,992	1,5	-0,256
1463,086	1,5	-0,208
1465,186	1,5	-0,11
1467,274	1,5	-0,002
1469,374	1,5	0
1471,468	1,5	-0,001
1473,556	1,5	-0,001
1475,649	1,5	-0,002
1477,743	1,5	-0,003
1479,837	1,5	-0,004
1481,931	1,5	-0,006
1484,025	1,5	-0,012
1486,113	1,5	-0,017
1488,207	1	-0,024
1490,295	1	-0,035
1492,395	1	-0,035
1494,488	1	-0,054
1496,576	0,5	-0,074
1498,67	0,5	-0,083
1500,764	0,5	-0,108
1502,852	0	-0,18
1504,952	0	-0,246
1507,046	0	-0,266
1509,14	0	-0,283
1511,233	0	-0,381
1513,321	0	-0,384
1515,421	0	-0,377
1517,521	0	-0,255
1519,615	0	-0,255
1521,715	0	-0,211
1523,809	0,5	-0,125
1525,897	0,5	-0,159
1527,99	0	-0,196
1530,084	0	-0,208
1532,178	0,5	-0,19
1534,272	0	-0,213
1536,372	0,5	-0,166
1538,46	0	-0,222
1540,554	0	-0,228
1542,648	0	-0,277
1544,748	0	-0,281
1546,841	0	-0,305
1548,935	0	-0,268
1551,029	0	-0,267
1553,129	0	-0,482
1555,223	0	-0,42
1557,317	0	-0,478
1559,411	0	-0,609
1561,505	0	-0,639
1563,592	-0,5	-0,619
1565,686	0	-0,596
1567,786	0	-0,553
1569,88	0	-0,641
1571,974	0	-0,65
1574,068	0	-0,575
1576,174	0	-0,481
1578,262	0	-0,493
1580,356	0	-0,55
1582,443	0	-0,547
1584,543	0	-0,52
1586,637	0	-0,501
1588,731	0	-0,424
1590,819	0	-0,454
1592,913	0	-0,466
1595,007	0	-0,407
1597,101	0	-0,485
1599,194	0	-0,467
1601,282	0	-0,452
1603,37	0	-0,507
1605,458	0	-0,466
1607,564	0	-0,287
1609,652	0	-0,358
1611,752	0	-0,341
1613,84	0	-0,382
1615,939	0	-0,322
1618,033	0	-0,18
1620,121	0,5	-0,141
1622,209	0,5	-0,09
1624,303	1	-0,067
1626,397	0,5	-0,11
1628,485	0,5	-0,084
1630,585	1	-0,057
1632,678	1	-0,041
1634,772	1	-0,042
1636,872	1	-0,022
1638,972	1	-0,014
1641,066	1	-0,013
1643,154	1	-0,01
1645,248	1,5	-0,009
1647,348	1,5	-0,006
1649,448	1	-0,003
1651,547	1,5	-0,002
1653,641	1,5	-0,002
1655,735	1,5	-0,001
1657,829	1,5	0
1659,929	1,5	-0,005
1662,023	1,5	-0,079
1664,123	1,5	-0,262
1666,217	1	-0,409
1668,305	0,5	-0,423
1670,404	0	-0,567
1672,498	0	-0,644
1674,592	0	-0,699
1676,692	-0,5	-0,73
1678,786	-0,5	-0,865
1680,886	-0,5	-0,999
1682,98	-1	-1,166
1685,075	-1,5	-1,331
1687,161	-1,5	-1,326
1689,261	-1,5	-1,225
1691,355	-1,5	-1,338
1693,449	-2	-1,488
1695,543	-1,5	-1,548
1697,637	-2	-1,673
1699,731	-2,5	-1,792
1701,825	-2,5	-1,901
1703,924	-3	-2,022
1706,018	-3	-2,099
1708,112	-3,5	-2,277
1710,2	-3,5	-2,292
1712,3	-3,5	-2,419
1714,394	-4	-2,547
1716,488	-4,5	-2,661
1718,576	-4,5	-2,682
1720,676	-5	-2,687
1722,763	-4	-2,61
1724,857	-4,5	-2,58
1726,945	-4,5	-2,516
1729,039	-4,5	-2,575
1731,133	-4,5	-2,61
1733,233	-4,5	-2,678
1735,327	-5,5	-2,797
1737,421	-5,5	-2,916
1739,514	-6	-3,008
1741,608	-6	-3,079
1743,696	-6	-3,046
1745,79	-6,5	-3,138
1747,884	-6,5	-3,061
1749,978	-5,5	-2,992
1752,072	-5,5	-2,936
1754,166	-5,5	-2,858
1756,259	-5	-2,84
1758,353	-4,5	-2,629
1760,447	-4,5	-2,614
1762,541	-4,5	-2,595
1764,635	-5	-2,73
1766,735	-5,5	-2,878
1768,829	-5,5	-2,833
1770,923	-5,5	-2,898
1773,011	-6	-2,982
1775,11	-6	-3,1
1777,204	-7	-3,187
1779,298	-7	-3,254
1781,392	-8	-3,347
1783,492	-8	-3,4
1785,586	-9	-3,431
1787,68	-9	-3,437
1789,774	-9	-3,435
1791,873	-9	-3,445
1793,967	-9	-3,453
1796,061	-9,5	-3,462
1798,155	-9,5	-3,476
1800,249	-9,5	-3,48
1802,343	-9,5	-3,48
1804,443	-9,5	-3,485
1806,537	-9,5	-3,483
1808,636	-9,5	-3,483
1810,73	-9,5	-3,485
1812,818	-10	-3,486
1814,912	-9,5	-3,485
1817,012	-9,5	-3,487
1819,106	-9,5	-3,486
1821,2	-9,5	-3,491
1823,294	-9,5	-3,487
1825,388	-10	-3,489
1827,481	-10	-3,494
1829,575	-9,5	-3,493
1831,669	-9,5	-3,494
1833,763	-9,5	-3,494
1835,857	-9,5	-3,495
1837,957	-9,5	-3,498
1840,057	-9,5	-3,498
1842,145	-10	-3,498
1844,238	-9,5	-3,499
1846,332	-9,5	-3,499
1848,432	-9,5	-3,5
1850,526	-9,5	-3,5
1852,614	-10	-3,486
1854,708	-10	-3,394
1856,808	-10	-3,289
1858,896	-9,5	-3,219
1860,983	-9	-3,086
1863,077	-8,5	-2,994
1865,171	-7,5	-2,882
1867,271	-7,5	-2,752
1869,365	-6	-2,606
1871,459	-5,5	-2,504
1873,553	-5,5	-2,444
1875,659	-4,5	-2,265
1877,747	-4,5	-2,186
1879,846	-3,5	-2,006
1881,94	-3	-1,914
1884,04	-3	-1,69
1886,128	-2,5	-1,617
1888,228	-2	-1,425
1890,322	-1,5	-1,274
1892,416	-1	-1,225
1894,51	-1	-1,149
1896,603	-0,5	-1,024
1898,697	-0,5	-1,001
1900,785	-1	-1,019
1902,879	-0,5	-0,89
1904,979	-0,5	-0,874
1907,073	-0,5	-0,759
1909,161	-0,5	-0,83
1911,255	-0,5	-0,791
1913,36	0	-0,66
1915,454	0	-0,579
1917,548	-0,5	-0,561
1919,636	0	-0,599
1921,73	0	-0,526
1923,824	0	-0,49
1925,918	0	-0,456
1928,012	0	-0,433
1930,106	0	-0,433
1932,198	0	-0,349
1934,293	0	-0,3
1936,387	0	-0,251
1938,475	0	-0,244
1940,569	0	-0,222
1942,663	0	-0,156
1944,751	0,5	-0,133
1946,845	0,5	-0,114
1948,938	0,5	-0,086
1951,032	1	-0,077
1953,132	1	-0,053
1955,226	1	-0,055
1957,326	1	-0,042
1959,414	1	-0,038
1961,508	1	-0,035
1963,608	1	-0,024
1965,702	1,5	-0,017
1967,789	1,5	-0,02
1969,883	1	-0,018
1971,983	1	-0,01
1974,077	1	-0,008
1976,171	1,5	-0,007
1978,265	1,5	-0,005
1980,359	1	-0,004
1982,447	1	-0,004
1984,552	1,5	-0,003
1986,646	1	-0,002
1988,74	1,5	-0,001
1990,828	1,5	-0,001
1992,928	1,5	-0,001
1995,016	1,5	0
1997,116	1	-0,002
1999,21	1,5	-0,055
2001,309	1,5	-0,207
2003,403	1,5	-0,274
2005,497	1	-0,315
2007,591	1	-0,391
2009,679	0,5	-0,507
2011,773	0	-0,611
2013,873	0	-0,69
2015,973	0	-0,717
2018,061	0	-0,668
2020,16	0	-0,758
2022,254	-0,5	-0,797
2024,348	-0,5	-0,857
2026,442	-0,5	-0,951
2028,53	-1	-1,007
2030,624	-1	-1,073
2032,724	-1	-1,196
2034,824	-1	-1,328
2036,911	-1,5	-1,342
2039,005	-1	-1,36
2041,099	-1,5	-1,405
2043,193	-1,5	-1,46
2045,299	-1,5	-1,528
2047,393	-1,5	-1,518
2049,493	-1,5	-1,593
2051,587	-2	-1,573
2053,68	-1,5	-1,586
2055,774	-2	-1,72
2057,868	-2	-1,829
2059,962	-2	-1,812
2062,05	-2,5	-1,841
2064,138	-2	-1,802
2066,232	-2,5	-1,845
2068,332	-2	-1,835
2070,42	-2	-1,845
2072,519	-2	-1,882
2074,613	-2,5	-1,91
2076,701	-2,5	-1,977
2078,795	-2,5	-2,001
2080,889	-2,5	-2,008
2082,983	-3	-2,101
2085,071	-3	-2,109
2087,171	-3	-2,2
2089,264	-3	-2,244
2091,358	-3	-2,22
2093,458	-3	-2,358
2095,552	-3	-2,376
2097,646	-3,5	-2,431
2099,74	-3,5	-2,459
2101,834	-4	-2,567
2103,922	-4,5	-2,62
2106,015	-4,5	-2,728
2108,109	-4,5	-2,772
2110,203	-5	-2,826
2112,303	-5	-2,906
2114,391	-5	-2,92
2116,485	-5,5	-2,976
2118,573	-5,5	-2,98
2120,673	-5,5	-3,016
2122,76	-6	-3,01
2124,854	-5,5	-3,049
2126,948	-5,5	-3,061
2129,042	-6	-3,155
2131,136	-6	-3,129
2133,224	-6	-3,166
2135,318	-6,5	-3,262
2137,412	-7	-3,366
2139,506	-8	-3,392
2141,593	-8	-3,42
2143,687	-8	-3,429
2145,781	-8,5	-3,443
2147,869	-8,5	-3,449
2149,969	-9	-3,469
2152,063	-9	-3,472
2154,157	-9	-3,478
2156,245	-9	-3,483
2158,332	-9	-3,482
2160,426	-9	-3,484
2162,526	-9	-3,485
2164,62	-9	-3,484
2166,714	-9	-3,486
2168,802	-9	-3,488
2170,902	-9	-3,489
2172,996	-9	-3,491
2175,084	-9	-3,492
2177,177	-9	-3,493
2179,271	-9	-3,494
2181,365	-9	-3,491
2183,459	-9	-3,49
2185,547	-9	-3,49
2187,635	-9	-3,489
2189,729	-9	-3,49
2191,823	-9	-3,488
2193,916	-9	-3,489
2196,01	-9	-3,489
2198,104	-9	-3,487
2200,204	-9	-3,488
2202,292	-9	-3,486
2204,392	-8,5	-3,487
2206,48	-8,5	-3,489
2208,574	-8,5	-3,49
2210,661	-8,5	-3,491
2212,755	-8,5	-3,492
2214,855	-9	-3,494
2216,949	-9	-3,495
2219,037	-9	-3,495
2221,137	-9	-3,496
2223,225	-9	-3,495
2225,325	-9	-3,496
2227,419	-8,5	-3,497
2229,518	-8,5	-3,497
2231,612	-8,5	-3,497
2233,7	-9	-3,496
2235,794	-9	-3,497
2237,888	-9	-3,497
2239,982	-9	-3,497
2242,07	-9	-3,496
2244,158	-9	-3,496
2246,251	-9	-3,495
2248,351	-9	-3,496
2250,445	-9	-3,495
2252,545	-9	-3,495
2254,633	-9	-3,495
2256,727	-9	-3,497
2258,821	-9	-3,497
2260,921	-9	-3,497
2263,014	-9	-3,497
2265,108	-9	-3,497
2267,202	-9	-3,496
2269,29	-8,5	-3,496
2271,378	-9	-3,497
2273,472	-8,5	-3,497
2275,56	-8,5	-3,496
2277,648	-9	-3,497
2279,742	-8,5	-3,497
2281,835	-8,5	-3,497
2283,929	-9	-3,496
2286,023	-9	-3,496
2288,111	-9	-3,496
2290,199	-9	-3,496
2292,293	-9	-3,497
2294,387	-9	-3,496
2296,481	-9	-3,498
2298,574	-9	-3,498
2300,662	-9	-3,497
2302,756	-9	-3,496
2304,85	-9	-3,496
2306,938	-9	-3,496
2309,038	-9	-3,496
2311,126	-8,5	-3,496
2313,226	-9	-3,496
2315,32	-9	-3,497
2317,407	-9	-3,496
2319,507	-9	-3,496
2321,607	-9	-3,496
2323,695	-9	-3,496
2325,789	-9	-3,497
2327,883	-8,5	-3,498
2329,977	-8,5	-3,498
2332,071	-8,5	-3,499
2334,164	-8,5	-3,499
2336,258	-8,5	-3,499
2338,346	-8,5	-3,5
2340,44	-8,5	-3,412
2342,528	-8,5	-3,316
2344,622	-8,5	-3,171
2346,716	-8	-3,1
2348,804	-8	-3,032
2350,897	-7	-2,896
2352,985	-6	-2,808
2355,079	-6	-2,72
2357,179	-5,5	-2,609
2359,273	-5	-2,533
2361,361	-5	-2,513
2363,457	-4,5	-2,404
2365,549	-4	-2,386
2367,649	-3,5	-2,27
2369,736	-3	-2,202
2371,83	-3	-2,141
2373,924	-2	-1,974
2376,024	-2,5	-1,9
2378,112	-2	-1,87
2380,206	-2	-1,841
2382,294	-2	-1,765
2384,394	-2	-1,663
2386,487	-1	-1,533
2388,575	-1,5	-1,498
2390,669	-1	-1,379
2392,757	-1	-1,291
2394,857	-1	-1,226
2396,945	-0,5	-1,18
2399,039	-1	-1,119
2401,133	-0,5	-1,069
2403,22	-0,5	-1,007
2405,32	-0,5	-0,9
2407,414	0	-0,776
2409,508	0	-0,722
2411,602	0	-0,592
2413,69	0	-0,588
2415,784	0	-0,544
2417,872	0	-0,498
2419,96	0	-0,473
2422,047	0	-0,425
2424,141	0	-0,552
2426,229	0	-0,441
2428,323	0	-0,477
2430,423	0	-0,272
2432,511	0	-0,259
2434,605	0	-0,218
2436,693	0	-0,195
2438,786	0,5	-0,178
2440,886	0,5	-0,155
2442,974	0,5	-0,11
2445,062	1	-0,098
2447,156	0,5	-0,084
2449,25	0,5	-0,074
2451,344	1	-0,062
2453,444	1	-0,041
2455,538	1,5	-0,033
2457,631	1,5	-0,023
2459,725	1,5	-0,015
2461,819	1,5	-0,014
2463,907	1,5	-0,011
2466,007	1,5	-0,006
2468,101	1,5	-0,005
2470,195	1,5	-0,003
2472,289	1,5	-0,002
2474,382	1,5	-0,001
2476,476	1,5	-0,001
2478,57	1	-0,001
2480,67	1,5	-0,121
2482,758	1,5	-0,216
2484,846	1,5	-0,142
2486,94	1	-0,16
2489,034	1,5	-0,278
2491,133	1,5	-0,396
2493,233	0,5	-0,471
2495,327	0	-0,563
2497,421	0	-0,736
2499,521	-0,5	-0,852
2501,609	-0,5	-0,841
2503,715	-0,5	-0,961
2505,803	-0,5	-0,976
2507,897	-0,5	-1,084
2509,99	-0,5	-1,187
2512,084	-1	-1,337
2514,172	-1	-1,352
2516,266	-1,5	-1,471
2518,36	-1,5	-1,547
2520,448	-1,5	-1,605
2522,542	-1,5	-1,649
2524,636	-2	-1,761
2526,723	-1,5	-1,802
2528,817	-2	-1,9
2530,911	-2	-1,956
2533,005	-2	-2,043
2535,093	-2,5	-2,074
2537,199	-2,5	-2,2
2539,293	-3	-2,281
2541,393	-3	-2,381
2543,486	-3	-2,442
2545,58	-3	-2,507
2547,674	-3	-2,579
2549,768	-3	-2,628
2551,862	-3,5	-2,652
2553,95	-3	-2,634
2556,044	-3	-2,636
2558,138	-3,5	-2,681
2560,232	-4	-2,778
2562,325	-4	-2,78
2564,419	-4	-2,836
2566,507	-4,5	-2,934
2568,601	-4	-2,866
2570,689	-4	-2,797
2572,789	-4	-2,865
2574,883	-4	-2,857
2576,983	-4,5	-2,857
2579,07	-4	-2,834
2581,164	-4	-2,889
2583,252	-4,5	-2,872
2585,352	-4,5	-3,01
2587,446	-4,5	-3,092
2589,54	-4,5	-3,041
2591,634	-4,5	-3,001
2593,722	-4,5	-3,016
2595,815	-5	-3,059
2597,909	-5,5	-3,13
2600,009	-5	-3,172
2602,097	-5	-3,165
2604,185	-5	-3,174
2606,285	-5,5	-3,276
2608,385	-5,5	-3,307
2610,479	-5,5	-3,34
2612,567	-5,5	-3,359
2614,66	-6	-3,398
2616,748	-6,5	-3,426
2618,848	-7	-3,46
2620,942	-7	-3,47
2623,03	-7	-3,474
2625,118	-7	-3,478
2627,206	-7	-3,482
2629,294	-7,5	-3,486
2631,387	-7	-3,491
2633,487	-7	-3,494
2635,581	-7	-3,495
2637,675	-7,5	-3,496
2639,769	-7	-3,497
2641,863	-7,5	-3,498
2643,957	-7,5	-3,499
2646,045	-7	-3,499
2648,138	-7,5	-3,496
2650,232	-7,5	-3,344
2652,332	-7	-3,182
2654,432	-6	-3,039
2656,526	-5,5	-2,935
2658,614	-5	-2,879
2660,714	-4,5	-2,754
2662,808	-4	-2,621
2664,908	-3,5	-2,51
2666,995	-3	-2,415
2669,089	-2,5	-2,28
2671,183	-2,5	-2,199
2673,277	-2	-2,038
2675,371	-1,5	-1,903
2677,471	-1	-1,774
2679,559	-1,5	-1,696
2681,653	-1	-1,573
2683,746	-0,5	-1,453
2685,834	-0,5	-1,359
2687,922	-0,5	-1,26
2690,016	-0,5	-1,163
2692,116	0	-1,019
2694,21	0	-0,885
2696,304	0	-0,775
2698,392	0	-0,75
2700,485	0	-0,643
2702,573	0	-0,506
2704,667	0	-0,386
2706,761	0	-0,257
2708,855	0,5	-0,163
2710,949	1	-0,14
2713,043	1	-0,114
2715,137	1	-0,099
2717,237	1	-0,084
2719,324	1	-0,076
2721,418	1	-0,058
2723,512	1,5	-0,047
2725,6	1	-0,04
2727,694	1	-0,03
2729,794	1,5	-0,024
2731,894	1,5	-0,017
2733,982	1,5	-0,016
2736,081	1,5	-0,011
2738,169	1,5	-0,011
2740,263	1,5	-0,008
2742,357	1,5	-0,006
2744,445	1,5	-0,005
2746,533	1,5	-0,003
2748,627	1,5	-0,003
2750,721	1,5	-0,002
2752,809	1,5	-0,002
2754,902	1,5	-0,001
2757,008	1,5	-0,001
2759,102	1,5	-0,001
2761,19	1,5	-0,001
2763,284	1	-0,027
2765,378	1,5	-0,032
2767,472	1,5	-0,054
2769,56	1,5	-0,121
2771,653	1,5	-0,181
2773,741	1,5	-0,196
2775,841	1	-0,289
2777,941	0,5	-0,37
2780,029	0,5	-0,48
2782,117	0	-0,579
2784,217	0	-0,666
2786,305	0	-0,712
2788,398	0	-0,814
2790,492	-0,5	-0,934
2792,586	-0,5	-0,995
2794,68	-0,5	-1,177
2796,774	-0,5	-1,248
2798,862	-1	-1,358
2800,956	-1	-1,407
2803,044	-1	-1,476
2805,138	-1,5	-1,566
2807,225	-1	-1,55
2809,319	-1	-1,689
2811,413	-1	-1,787
2813,501	-1,5	-1,791
2815,595	-1,5	-1,9
2817,689	-1,5	-1,96
2819,783	-1,5	-1,977
2821,871	-1,5	-2,03
2823,97	-2	-2,162
2826,064	-2	-2,281
2828,152	-2	-2,296
2830,24	-2	-2,311
2832,34	-2	-2,358
2834,428	-2,5	-2,325
2836,516	-2,5	-2,397
2838,616	-2,5	-2,525
2840,71	-3	-2,591
2842,803	-3	-2,688
2844,897	-3	-2,775
2846,991	-3	-2,841
2849,079	-3,5	-2,941
2851,179	-4	-3,057
2853,273	-4,5	-3,091
2855,361	-4	-3,096
2857,449	-4	-3,157
2859,548	-4,5	-3,264
2861,636	-4,5	-3,296
2863,724	-4,5	-3,302
2865,818	-5	-3,315
2867,912	-5,5	-3,384
2870	-5,5	-3,408
2872,088	-5,5	-3,43
2874,176	-5,5	-3,414
2876,275	-6	-3,443
2878,363	-5,5	-3,44
2880,463	-5,5	-3,428
2882,563	-5,5	-3,43
2884,657	-5,5	-3,425
2886,745	-5,5	-3,437
2888,839	-5,5	-3,433
2890,951	-6	-3,444
2893,045	-5,5	-3,445
2895,138	-5,5	-3,449
2897,238	-5,5	-3,445
2899,332	-6	-3,443
2901,42	-5,5	-3,438
2903,52	-5,5	-3,445
2905,614	-5,5	-3,44
2907,702	-5,5	-3,434
2909,796	-5,5	-3,425
2911,883	-5	-3,417
2913,977	-5	-3,418
2916,065	-4,5	-3,4
2918,165	-5	-3,426
2920,265	-5,5	-3,439
2922,353	-5,5	-3,437
2924,447	-5,5	-3,448
2926,535	-5,5	-3,439
2928,628	-5,5	-3,45
2930,723	-5,5	-3,454
2932,822	-5,5	-3,462
2934,916	-5,5	-3,459
2937,01	-5,5	-3,464
2939,104	-5,5	-3,467
2941,198	-5,5	-3,469
2943,292	-5,5	-3,472
2945,391	-5,5	-3,476
2947,491	-5,5	-3,481
2949,585	-5,5	-3,478
2951,673	-5,5	-3,479
2953,767	-5,5	-3,483
2955,855	-5,5	-3,484
2957,949	-5,5	-3,486
2960,043	-5,5	-3,49
2962,137	-5,5	-3,492
2964,23	-5,5	-3,494
2966,318	-5,5	-3,494
2968,412	-5,5	-3,494
2970,506	-5,5	-3,495
2972,594	-5,5	-3,495
2974,688	-5,5	-3,494
2976,782	-5,5	-3,494
2978,876	-5,5	-3,495
2980,975	-5,5	-3,496
2983,069	-5,5	-3,496
2985,157	-5,5	-3,496
2987,257	-5,5	-3,496
2989,345	-5,5	-3,497
2991,445	-5,5	-3,498
2993,551	-5,5	-3,498
2995,651	-5,5	-3,498
2997,738	-5,5	-3,498
2999,832	-5,5	-3,498
3001,926	-5,5	-3,498
3004,026	-5,5	-3,499
3006,114	-5,5	-3,498
3008,208	-5,5	-3,498
3010,302	-5,5	-3,499
3012,396	-5,5	-3,499
3014,484	-5,5	-3,499
3016,583	-5,5	-3,499
3018,677	-5,5	-3,499
3020,771	-5,5	-3,499
3022,859	-5,5	-3,498
3024,953	-5,5	-3,498
3027,047	-5,5	-3,498
3029,141	-5,5	-3,499
3031,229	-5,5	-3,499
3033,328	-5,5	-3,5
3035,419	-5,5	-3,497
3037,51	-5	-3,497
3039,604	-5	-3,461
3041,692	-5	-3,482
3043,792	-5	-3,319
3045,886	-5	-3,255
3047,986	-4,5	-3,126
3050,08	-5	-3,27
3052,173	-4,5	-3,127
3054,267	-5	-3,147
3056,361	-4,5	-3,091
3058,455	-4,5	-3,111
3060,543	-4,5	-3,069
3062,637	-5	-3,147
3064,731	-5	-3,368
3066,819	-5	-3,449
3068,906	-5	-3,5
3071,006	-5	-3,498
3073,094	-5	-3,5
3075,188	-5	-3,494
3077,276	-5	-3,5
3079,37	-5	-3,5
3081,464	-5	-3,499
3083,558	-5	-3,5
3085,651	-5	-3,499
3087,751	-5	-3,499
3089,845	-5	-3,499
3091,939	-5	-3,499
3094,027	-5	-3,499
3096,115	-5	-3,498
3098,203	-5	-3,496
3100,297	-5	-3,495
3102,397	-5	-3,495
3104,496	-5	-3,494
3106,584	-5	-3,494
3108,678	-5	-3,494
3110,766	-5	-3,492
3112,866	-5	-3,492
3114,966	-5	-3,491
3117,054	-5	-3,489
3119,148	-5	-3,486
3121,235	-4,5	-3,482
3123,329	-4,5	-3,481
3125,429	-4,5	-3,48
3127,517	-4,5	-3,47
3129,617	-4,5	-3,47
3131,711	-4,5	-3,462
3133,805	-4,5	-3,451
3135,131	1,5	-0,001