File: ensaios_Ciclicos/_60perc/_3gap/entrada/_4.txt
Time (s)	Load (N)	Displacement (mm)
36,123	-2,5	-0,921
37,923	0,5	-0,003
39,723	0	-0,316
41,529	-6	-1,865
43,329	-14,5	-3,499
45,135	-13	-3,413
46,935	-5,5	-2,023
48,735	0	-0,539
50,535	0,5	-0,008
52,34	-1,5	-0,619
54,158	-7	-1,961
55,958	-14	-3,5
57,77	-13	-3,415
59,57	-5	-1,894
61,376	0,5	-0,19
63,176	0,5	-0,026
64,994	-3	-1,179
66,794	-12,5	-2,966
68,594	-14	-3,484
70,399	-8	-2,704
72,211	-3	-1,195
74,011	0,5	-0,001
75,817	0	-0,15
77,623	-4,5	-1,695
79,423	-13,5	-3,432
81,223	-13	-3,416
83,023	-5	-1,926
84,823	0	-0,34
86,622	0,5	-0,016
88,422	-2	-1,003
90,228	-10	-2,678
92,028	-13,5	-3,492
93,834	-8,5	-2,826
95,64	-2,5	-1,117
97,446	0,5	-0,002
99,252	0	-0,269
101,064	-5,5	-1,893
102,864	-13,5	-3,499
104,669	-12	-3,4
106,469	-4,5	-1,932
108,269	0,5	-0,282
110,069	0,5	-0,02
111,869	-2	-1,1
113,675	-10,5	-2,763
115,475	-13,5	-3,49
117,275	-7,5	-2,628
119,075	-1,5	-0,98
120,875	1	-0,002
122,674	0	-0,374
124,48	-5,5	-1,949
126,298	-13	-3,46
128,098	-12	-3,42
129,898	-5	-2,003
131,698	0	-0,429
133,498	1	-0,011
135,298	-1,5	-0,871
137,116	-8	-2,339
138,921	-13	-3,498
140,727	-10	-3,221
142,527	-3	-1,579
144,327	1	-0,023
146,127	0,5	-0,046
147,933	-3	-1,28
149,739	-11	-2,868
151,539	-13	-3,487
153,339	-6,5	-2,53
155,138	-1,5	-0,91
156,95	0,5	-0,003
158,75	-0,5	-0,462
160,55	-7	-2,126
162,368	-13	-3,499
164,168	-10,5	-3,341
165,968	-3,5	-1,747
167,768	0,5	-0,077
169,574	0,5	-0,033
171,38	-2,5	-1,199
173,18	-10	-2,752
174,985	-13	-3,491
176,803	-8	-2,885
178,603	-2,5	-1,242
252,627	-1	-0,866
254,433	1	-0,003
256,239	0	-0,394
258,051	-4,5	-1,919
259,851	-12	-3,5
261,662	-11,5	-3,44
263,468	-4,5	-2,19
265,268	0	-0,64
267,074	1	-0,006
268,886	-0,5	-0,563
270,686	-6	-2,159
272,486	-12	-3,499
274,286	-10	-3,349
276,098	-3,5	-1,823
277,904	0,5	-0,335
279,715	1	-0,012
281,521	-1	-0,814
283,327	-7,5	-2,31
285,127	-12	-3,498
286,933	-9,5	-3,252
288,739	-3	-1,693
290,545	0,5	-0,12
292,345	1	-0,029
294,151	-1,5	-1,074
295,962	-8,5	-2,53
297,768	-12	-3,496
299,574	-8	-3,027
301,38	-2,5	-1,307
303,186	1	-0,001
304,992	0	-0,134
306,799	-3,5	-1,642
308,604	-12	-3,232
310,422	-12	-3,47
312,221	-5	-2,306
314,033	-0,5	-0,737
315,845	1	-0,004
317,657	0	-0,389
319,463	-5	-1,982
321,275	-12	-3,5
323,081	-10,5	-3,401
324,893	-4	-2,022
326,699	0,5	-0,267
328,505	1	-0,018
330,317	-1,5	-1,008
332,122	-8	-2,505
333,934	-12	-3,497
335,734	-8	-3,126
337,54	-3	-1,608
339,352	1	-0,154
341,152	1	-0,025
342,958	-1,5	-1,044
344,764	-9	-2,778
346,576	-12	-3,492
348,375	-7	-2,851
350,181	-2,5	-1,334
351,993	1	-0,001
353,805	0,5	-0,087
355,611	-3	-1,491
357,411	-11	-3,035
359,211	-12	-3,472
361,023	-5,5	-2,46
362,835	-1,5	-0,902
364,641	1	-0,003
366,458	0	-0,203
368,264	-3,5	-1,599
370,07	-11,5	-3,176
371,87	-12	-3,477
373,676	-5,5	-2,516
375,482	-2	-1,02
377,294	0,5	-0,002
379,1	-0,5	-0,524
380,906	-7	-2,313
382,717	-12	-3,498
384,523	-9	-3,213
386,329	-3	-1,717
388,135	1	-0,101
389,947	0,5	-0,022
391,747	-1,5	-0,988
393,553	-7,5	-2,44
395,365	-12	-3,497
469,478	-10,5	-3,44
471,284	-4,5	-2,296
473,09	-0,5	-0,836
474,89	1	-0,003
476,702	0	-0,272
478,508	-3,5	-1,75
480,32	-11	-3,203
482,126	-11	-3,464
483,932	-5	-2,388
485,744	-1	-0,926
487,549	1	-0,002
489,355	0	-0,205
491,161	-3,5	-1,694
492,973	-11,5	-3,199
494,773	-11,5	-3,47
496,585	-5	-2,397
498,397	-1,5	-0,925
500,203	1	-0,002
502,021	0	-0,183
503,827	-3	-1,65
505,644	-11	-3,119
507,45	-11,5	-3,481
509,262	-6	-2,616
511,068	-2	-1,162
512,874	1	-0,001
514,68	0,5	-0,105
516,492	-2,5	-1,395
518,304	-9	-2,84
520,11	-11,5	-3,492
521,915	-7,5	-2,972
523,721	-2,5	-1,524
525,527	1	-0,022
527,333	1	-0,04
529,145	-1,5	-1,083
530,945	-8	-2,614
532,763	-11,5	-3,497
534,563	-8,5	-3,21
536,369	-3	-1,672
538,169	1	-0,142
539,98	1	-0,026
541,78	-1	-1,014
543,586	-7,5	-2,558
545,41	-11,5	-3,496
547,216	-7,5	-2,972
549,04	-2,5	-1,48
550,84	1	0
552,646	0,5	-0,057
554,458	-2	-1,422
556,276	-10,5	-3,044
558,081	-11	-3,478
559,887	-5	-2,401
561,687	-0,5	-0,751
563,499	1	-0,004
565,311	0	-0,454
567,117	-5	-2,115
568,929	-11,5	-3,499
570,729	-10	-3,401
572,535	-4,5	-2,125
574,346	0	-0,636
576,152	1	-0,006
577,964	-0,5	-0,61
579,776	-5	-2,119
581,588	-11	-3,499
583,394	-10	-3,375
585,206	-3,5	-1,954
587,012	0	-0,398
588,818	1	-0,011
590,63	-0,5	-0,79
592,429	-6,5	-2,508
594,247	-11	-3,497
596,053	-7,5	-3,045
597,865	-2	-1,365
599,677	1	-0,001
601,489	0,5	-0,074
603,295	-2,5	-1,454
605,101	-10,5	-3,063
606,901	-11	-3,475
608,707	-5	-2,448
610,512	-1	-0,834
612,324	1	-0,002
614,136	0	-0,272
615,948	-3	-1,71
617,754	-11	-3,237
619,554	-11	-3,469
621,366	-5	-2,428
623,172	-1	-0,853
624,984	1	-0,003
626,79	0	-0,341
628,601	-3,5	-1,834
630,413	-11	-3,446
632,225	-10,5	-3,44
634,025	-4,5	-2,225
635,837	0	-0,662
637,643	1	-0,006
639,449	-0,5	-0,535
641,255	-5	-2,106
643,055	-11	-3,499
644,872	-9,5	-3,385
646,678	-3,5	-2,031
648,484	0	-0,566
758,794	-10,5	-3,483
760,606	-6	-2,702
762,418	-2	-1,236
764,224	1	-0,001
766,03	0	-0,087
767,835	-2,5	-1,363
769,647	-9	-2,877
771,453	-10,5	-3,49
773,265	-6	-2,8
775,077	-2	-1,296
776,883	1	-0,001
778,689	0,5	-0,082
780,501	-1,5	-1,314
782,307	-9	-2,827
784,107	-10,5	-3,491
785,918	-6	-2,836
787,724	-1	-1,244
789,536	1	-0,001
791,336	0,5	-0,082
793,148	-2	-1,356
794,954	-9,5	-2,88
796,754	-10,5	-3,49
798,554	-6	-2,766
800,36	-2	-1,26
802,16	1	-0,001
803,971	0,5	-0,083
805,783	-2,5	-1,543
807,589	-10,5	-3,114
809,407	-10,5	-3,486
811,213	-5	-2,636
813,019	-1,5	-1,044
814,831	1	-0,002
816,631	0	-0,201
818,449	-3	-1,691
820,248	-11	-3,226
822,066	-10,5	-3,475
823,878	-5	-2,466
825,679	-1	-0,95
827,49	1	-0,002
829,302	0	-0,216
831,108	-3	-1,694
832,92	-10,5	-3,167
834,732	-10,5	-3,476
836,532	-4,5	-2,491
838,349	-1	-1,045
840,167	1	-0,002
841,973	0	-0,154
843,785	-3	-1,58
845,603	-10	-3,076
847,409	-10,5	-3,483
849,215	-5	-2,572
851,033	-1,5	-1,14
852,839	1	-0,001
854,644	0	-0,116
856,45	-3	-1,5
858,256	-10,5	-3,109
860,056	-11	-3,477
861,868	-5	-2,57
863,674	-1,5	-1,026
865,48	1	-0,002
867,292	0	-0,164
869,098	-2,5	-1,6
870,904	-10	-3,087
872,709	-10,5	-3,485
874,521	-5,5	-2,766
876,327	-1,5	-1,296
878,133	1	-0,001
879,939	0,5	-0,083
881,757	-2	-1,349
883,563	-8,5	-2,803
885,375	-10,5	-3,494
887,187	-6	-2,946
888,993	-2	-1,487
890,804	1	-0,09
892,604	1	-0,03
894,422	-1	-0,949
896,228	-6	-2,419
898,034	-10,5	-3,498
899,846	-8	-3,312
901,652	-2,5	-1,511
903,458	1	0
905,27	1	-0,038
907,075	-1,5	-1,133
908,887	-7,5	-2,635
910,693	-10,5	-3,496
912,493	-7,5	-3,146
914,299	-2,5	-1,666
916,105	1	-0,169
917,905	1	-0,03
919,717	-1	-1,007
921,523	-6,5	-2,498
923,329	-10,5	-3,498
925,134	-8	-3,25
926,94	-3	-1,78
928,752	0,5	-0,382
930,558	1	-0,011
932,37	-0,5	-0,694
934,176	-4,5	-2,199
935,988	-10,5	-3,499
937,794	-9	-3,376
939,6	-3	-2,038
941,412	0	-0,555
943,217	1	-0,006
945,023	-0,5	-0,61
946,829	-4	-1,994
948,641	-10,5	-3,392
950,447	-10	-3,451
952,259	-4	-2,311
954,065	-1	-0,846
955,877	1	-0,002
957,689	0	-0,211
959,494	-3	-1,676
961,3	-10,5	-3,223
963,106	-10,5	-3,473
964,912	-4,5	-2,49
966,718	-1,5	-1,026
968,53	1	-0,002
970,342	0	-0,145
972,148	-2,5	-1,554
973,954	-10	-3,084
975,754	-10,5	-3,484
977,559	-5,5	-2,751
979,377	-2	-1,377
981,183	1,5	-0,001
982,989	1	-0,055
984,801	-1,5	-1,253
986,613	-7	-2,671
988,419	-10,5	-3,494
990,225	-7	-3,05
992,037	-2,5	-1,605
993,843	1	-0,052
995,648	1	-0,037
997,454	-1	-1,057
999,266	-6	-2,497
1001,07	-10,5	-3,497
1002,878	-7,5	-3,227
1004,684	-3	-1,711
1006,49	1	-0,154
1008,296	1	-0,024
1010,108	-0,5	-0,914
1120,363	-10	-3,471
1122,169	-4,5	-2,469
1123,975	-1	-0,994
1125,781	1	-0,002
1127,593	0	-0,162
1129,399	-2,5	-1,612
1131,205	-9,5	-3,126
1133,005	-10	-3,475
1134,804	-4,5	-2,446
1136,604	-1	-0,866
1138,41	1	-0,003
1140,222	0	-0,258
1142,028	-3	-1,776
1143,828	-10	-3,315
1145,634	-10	-3,458
1147,446	-4	-2,406
1149,252	-0,5	-0,9
1151,064	1	-0,002
1152,869	0	-0,24
1154,675	-3	-1,772
1156,475	-10,5	-3,394
1158,287	-10	-3,457
1160,093	-4	-2,27
1161,899	0	-0,715
1163,705	1	-0,005
1165,517	0	-0,379
1167,323	-3,5	-1,869
1169,135	-10,5	-3,357
1170,94	-10	-3,458
1172,746	-3,5	-2,279
1174,546	-0,5	-0,768
1176,358	1	-0,004
1178,164	0	-0,399
1179,97	-3,5	-1,901
1181,776	-10,5	-3,383
1183,582	-9,5	-3,459
1185,388	-4	-2,298
1187,2	-0,5	-0,857
1189,011	1	-0,003
1190,817	0	-0,228
1192,629	-3	-1,692
1194,429	-10,5	-3,265
1196,241	-10	-3,473
1198,047	-4,5	-2,534
1199,853	-1	-0,989
1201,659	1	-0,002
1203,465	0	-0,196
1205,27	-2,5	-1,71
1207,076	-10	-3,209
1208,882	-10	-3,468
1210,688	-4	-2,398
1212,5	-1	-0,899
1214,3	1	-0,003
1216,112	0	-0,224
1217,912	-2,5	-1,703
1219,718	-10	-3,206
1221,524	-10	-3,474
1223,323	-4	-2,519
1225,135	-1	-1,042
1226,941	1	-0,002
1228,753	0	-0,156
1230,553	-2,5	-1,614
1232,359	-9,5	-3,111
1234,171	-10,5	-3,479
1235,983	-5	-2,639
1237,789	-1,5	-1,146
1239,589	1	-0,001
1241,394	0	-0,111
1243,2	-2	-1,497
1245,006	-10	-3,03
1246,818	-10,5	-3,488
1248,624	-5	-2,742
1250,43	-1,5	-1,213
1252,23	1	-0,001
1254,036	0	-0,107
1255,836	-2	-1,449
1257,647	-9	-2,97
1259,453	-10	-3,485
1261,265	-5	-2,666
1263,071	-1,5	-1,056
1264,883	1	-0,002
1266,695	0	-0,155
1268,501	-2,5	-1,598
1270,307	-10	-3,171
1272,107	-10	-3,467
1273,913	-4	-2,395
1275,724	-0,5	-0,901
1277,536	1	-0,002
1279,342	0	-0,279
1281,148	-3	-1,774
1282,954	-10	-3,301
1284,76	-9,5	-3,465
1286,566	-4,5	-2,424
1288,372	-1	-0,886
1290,184	1	-0,002
1291,99	0	-0,204
1293,789	-3	-1,738
1295,595	-10	-3,31
1297,407	-10	-3,463
1299,219	-4,5	-2,499
1301,025	-1	-0,971
1302,831	1	-0,002
1304,631	0	-0,174
1306,431	-2,5	-1,667
1308,243	-10	-3,155
1310,054	-10	-3,482
1311,854	-4,5	-2,524
1313,666	-1	-1,021
1315,466	1	-0,002
1317,272	0	-0,162
1319,078	-2,5	-1,644
1320,89	-9,5	-3,139
1322,696	-10	-3,478
1324,502	-4,5	-2,557
1326,32	-1,5	-1,11
1328,119	1	-0,002
1329,931	0	-0,169
1331,737	-2,5	-1,658
1333,549	-10	-3,19
1335,355	-10	-3,47
1337,161	-4	-2,411
1338,967	-1	-0,866
1340,779	1	-0,003
1342,591	0	-0,308
1344,397	-3	-1,81
1346,196	-10	-3,376
1347,996	-9,5	-3,45
1349,808	-4	-2,352
1351,614	-0,5	-0,877
1353,426	1	-0,003
1355,226	0	-0,341
1357,032	-3	-1,869
1358,832	-10	-3,497
1360,638	-9	-3,428
1362,443	-3	-2,118
1364,249	0	-0,696
1366,055	1	-0,004
1367,867	0	-0,471
1369,673	-3,5	-2,027
1371,479	-10	-3,5
1373,285	-9	-3,402
1375,085	-3	-2,079
1376,891	0	-0,592
1378,703	1	-0,006
1380,508	0	-0,415
1382,314	-3	-1,879
1384,12	-10	-3,377
1385,938	-9,5	-3,46
1387,744	-4	-2,406
1389,556	-1	-0,932
1391,356	1	-0,003
1393,162	0	-0,332
1394,968	-3	-1,839
1396,78	-10	-3,272
1398,591	-10	-3,472
1400,391	-4	-2,453
1402,197	-1	-0,941
1404,003	1	-0,002
1405,809	0	-0,172
1407,615	-2,5	-1,625
1409,421	-9,5	-3,176
1411,227	-10	-3,475
1413,039	-4,5	-2,534
1414,845	-1	-1,037
1416,656	1	-0,002
1418,462	0	-0,128
1420,268	-2	-1,563
1422,08	-9	-3,034
1423,886	-10	-3,485
1425,698	-5	-2,722
1427,504	-1,5	-1,183
1429,31	1	-0,001
1431,122	0,5	-0,083
1432,927	-1,5	-1,379
1434,733	-8	-2,855
1436,539	-10	-3,49
1438,339	-5	-2,746
1440,145	-1,5	-1,244
1441,945	1	-0,001
1443,757	0,5	-0,095
1445,569	-1,5	-1,414
1447,375	-7,5	-2,89
1449,18	-9,5	-3,488
1450,986	-5	-2,791
1452,792	-1,5	-1,286
1454,592	1,5	-0,001
1456,398	1	-0,067
1458,21	-1,5	-1,268
1460,016	-7	-2,754
1461,828	-10	-3,494
1463,634	-6	-3,003
1465,44	-2	-1,453
1467,245	1	0
1469,051	1	-0,035
1470,857	-0,5	-0,985
1472,663	-5,5	-2,487
1474,469	-10	-3,497
1476,275	-7,5	-3,212
1478,081	-2	-1,748
1479,887	1	-0,265
1481,693	1	-0,018
1483,505	-0,5	-0,878
1485,304	-5	-2,373
1487,116	-10	-3,499
1488,922	-7,5	-3,33
1490,728	-2,5	-1,861
1492,534	0,5	-0,39
1494,34	1,5	-0,009
1496,14	0	-0,65
1497,946	-3,5	-2,12
1499,758	-10	-3,499
1501,564	-9	-3,415
1503,369	-2,5	-2,07
1505,175	0	-0,664
1506,981	1	-0,005
1508,793	0	-0,428
1510,593	-3	-1,946
1512,393	-10	-3,486
1514,211	-9,5	-3,446
1516,017	-4	-2,331
1517,823	-0,5	-0,792
1519,628	1	-0,004
1521,434	0	-0,398
1523,246	-3	-1,823
1525,058	-10	-3,294
1526,87	-9,5	-3,466
1528,676	-4	-2,422
1530,482	-1	-0,933
1532,288	1	-0,002
1534,1	0	-0,18
1535,906	-2,5	-1,693
1537,711	-9,5	-3,219
1539,511	-9,5	-3,468
1541,329	-4,5	-2,456
1543,135	-1	-0,954
1544,941	1	-0,002
1546,747	0	-0,238
1548,553	-2	-1,73
1550,359	-9,5	-3,185
1552,165	-9,5	-3,465
1553,971	-4	-2,388
1555,782	-1	-0,928
1557,588	1	-0,002
1559,394	0	-0,215
1561,206	-2,5	-1,694
1563,006	-9,5	-3,196
1564,818	-9,5	-3,479
1566,624	-4,5	-2,643
1568,43	-1	-1,157
1570,236	1	-0,001
1572,047	0,5	-0,115
1573,853	-1,5	-1,453
1575,659	-8	-2,94
1577,465	-10	-3,486
1579,271	-5	-2,701
1581,071	-1,5	-1,09
1582,871	1	-0,002
1584,671	0,5	-0,184
1586,477	-2	-1,604
1588,283	-9	-3,129
1590,095	-9,5	-3,479
1591,9	-4	-2,528
1593,706	-1	-0,908
1595,512	1,5	-0,003
1597,324	0	-0,207
1599,13	-2	-1,644
1600,936	-9	-3,093
1602,748	-9,5	-3,483
1604,554	-4,5	-2,681
1606,36	-1	-1,146
1608,165	1,5	-0,001
1609,977	0,5	-0,109
1611,783	-2	-1,554
1613,595	-8,5	-2,994
1615,401	-9,5	-3,486
1617,207	-5	-2,765
1619,013	-1	-1,242
1620,825	1,5	-0,001
1622,631	0,5	-0,106
1624,437	-1,5	-1,465
1626,248	-7,5	-2,932
1628,054	-9,5	-3,489
1629,86	-4,5	-2,747
1631,666	-1	-1,213
1633,478	1,5	-0,001
1635,284	0,5	-0,12
1637,09	-1,5	-1,512
1638,896	-9	-3,06
1640,708	-9,5	-3,484
1642,513	-4,5	-2,571
1644,319	-1	-1,133
1646,125	1	-0,002
1647,931	0	-0,136
1649,743	-1,5	-1,525
1651,549	-9	-3,024
1653,367	-9,5	-3,487
1655,173	-4,5	-2,743
1656,979	-1	-1,166
1658,785	1,5	-0,001
1660,596	0,5	-0,095
1662,402	-1,5	-1,433
1664,202	-8	-2,933
1666,014	-9,5	-3,488
1667,82	-5	-2,701
1669,626	-1,5	-1,172
1671,426	1	-0,001
1673,232	0	-0,156
1675,038	-2	-1,582
1676,85	-9	-3,049
1678,655	-10	-3,485
1680,461	-5	-2,799
1682,267	-1,5	-1,287
1684,073	1	-0,001
1685,891	0,5	-0,062
1687,697	-1,5	-1,288
1689,497	-8,5	-2,809
1691,303	-10	-3,492
1693,115	-5,5	-2,894
1694,92	-1,5	-1,366
1696,732	1	0
1698,532	0,5	-0,071
1700,338	-1,5	-1,339
1702,144	-7,5	-2,889
1703,95	-9,5	-3,491
1705,756	-4,5	-2,76
1707,562	-1,5	-1,246
1709,368	1,5	-0,001
1711,174	0,5	-0,102
1712,98	-1,5	-1,496
1714,785	-8	-2,912
1716,591	-9,5	-3,487
1718,397	-5	-2,81
1720,197	-1	-1,17
1722,003	1	-0,002
1723,815	0	-0,181
1725,615	-2	-1,555
1727,421	-9	-3,068
1729,226	-9,5	-3,482
1731,032	-4,5	-2,618
1732,838	-1	-1,104
1734,644	1	-0,002
1736,444	0	-0,188
1738,25	-2,5	-1,689
1740,056	-9,5	-3,192
1741,868	-9,5	-3,473
1743,674	-3,5	-2,428
1745,48	-1	-0,963
1747,285	1	-0,002
1749,091	0	-0,269
1750,891	-3	-1,77
1752,697	-9,5	-3,211
1754,503	-9,5	-3,476
1756,309	-4	-2,566
1758,121	-1	-1,099
1759,921	1	-0,002
1761,739	0	-0,113
1763,545	-1,5	-1,458
1765,35	-9	-2,993
1767,156	-9,5	-3,485
1768,968	-4,5	-2,759
1770,768	-1	-1,152
1772,574	1	-0,001
1774,374	0,5	-0,125
1776,18	-2	-1,54
1777,986	-8,5	-2,94
1779,793	-9,5	-3,487
1781,604	-5	-2,748
1783,409	-1,5	-1,267
1785,209	1	-0,001
1787,015	0,5	-0,076
1788,821	-2	-1,414
1790,627	-9	-3,013
1792,433	-9,5	-3,485
1794,239	-4,5	-2,641
1796,045	-1,5	-1,165
1797,857	1	-0,001
1799,662	0,5	-0,12
1801,48	-2	-1,475
1803,286	-9	-3,01
1805,098	-9,5	-3,484
1806,898	-4,5	-2,616
1808,704	-1	-1,099
1810,51	1	-0,002
1812,31	0	-0,196
1814,122	-2,5	-1,627
1815,934	-9	-3,107
1817,739	-9,5	-3,48
1819,545	-4	-2,516
1821,357	-1	-1,097
1823,163	1	-0,002
1824,975	0,5	-0,108
1826,781	-1,5	-1,449
1828,581	-8,5	-3,018
1830,393	-9,5	-3,484
1832,199	-4,5	-2,578
1834,011	-1	-1,054
1835,816	1	-0,002
1837,622	0,5	-0,147
1839,434	-1,5	-1,466
1841,234	-8	-2,972
1843,04	-9,5	-3,488
1844,852	-5	-2,79
1846,658	-1	-1,272
1848,464	1	-0,001
1850,27	1	-0,07
1852,076	-1,5	-1,326
1853,875	-7,5	-2,884
1855,681	-9,5	-3,489
1857,487	-5	-2,763
1859,293	-1,5	-1,314
1861,105	1	-0,001
1862,911	0,5	-0,07
1864,729	-1,5	-1,31
1866,535	-7,5	-2,834
1868,341	-9,5	-3,492
1870,153	-5,5	-2,891
1871,958	-1,5	-1,378
1873,77	1	0
1875,576	1	-0,054
1877,388	-1	-1,26
1879,194	-7	-2,784
1881	-9,5	-3,492
1882,806	-5	-2,874
1884,618	-1,5	-1,418
1886,418	1	0
1888,229	0,5	-0,051
1890,035	-1,5	-1,276
1891,841	-7,5	-2,778
1893,641	-9,5	-3,492
1895,447	-5,5	-2,892
1897,259	-1,5	-1,373
1899,065	1	0
1900,877	1	-0,054
1902,683	-1,5	-1,298
1904,483	-7,5	-2,86
1906,282	-9,5	-3,488
1908,088	-4,5	-2,72
1909,9	-1,5	-1,28
1911,7	1	-0,001
1913,506	0,5	-0,094
1915,312	-1,5	-1,449
1917,124	-8,5	-2,906
1918,93	-9,5	-3,488
1920,73	-4,5	-2,679
1922,535	-1	-1,177
1924,341	1	-0,001
1926,147	0,5	-0,135
1927,953	-2	-1,57
1929,765	-8,5	-3,041
1931,565	-9,5	-3,484
1933,371	-4,5	-2,608
1935,177	-1	-1,068
1936,983	1	-0,002
1938,789	0	-0,206
1940,594	-2,5	-1,688
1942,406	-9	-3,151
1944,206	-9	-3,475
1946,012	-4	-2,494
1947,824	-1	-1,031
1949,636	1	-0,002
1951,442	0	-0,128
1953,254	-1,5	-1,485
1955,06	-8,5	-2,966
1956,859	-9,5	-3,485
1958,665	-4,5	-2,604
1960,471	-1	-1,144
1962,277	1	-0,001
1964,077	0,5	-0,114
1965,889	-1,5	-1,464
1967,695	-8	-2,919
1969,513	-9,5	-3,491
1971,313	-5	-2,834
1973,119	-1,5	-1,331
1974,925	1	0
1976,742	1	-0,053
1978,542	-1	-1,284
1980,354	-7	-2,734
1982,16	-9,5	-3,494
1983,966	-5,5	-2,943
1985,778	-1,5	-1,477
1987,584	1	0
1989,396	0,5	-0,041
1991,196	-1,5	-1,28
1993,001	-7	-2,825
1994,807	-9,5	-3,49
1996,607	-5	-2,78
1998,413	-1,5	-1,242
2000,219	1	-0,001
2002,025	1	-0,059
2003,831	-1	-1,281
2005,631	-7	-2,792
2007,431	-9,5	-3,492
2009,236	-5,5	-2,91
2011,042	-2	-1,494
2012,842	1	0
2014,642	1	-0,048
2016,448	-1	-1,201
2018,254	-6	-2,662
2020,06	-9,5	-3,495
2021,86	-6	-3,015
2023,666	-2	-1,597
2025,472	1	-0,096
2027,277	1	-0,026
2029,083	-1	-1,011
2030,889	-5,5	-2,539
2032,701	-9,5	-3,498
2034,507	-6,5	-3,131
2036,313	-2	-1,62
2038,125	1	-0,036
2039,925	1	-0,031
2041,737	-0,5	-0,959
2043,543	-5	-2,445
2045,354	-9,5	-3,498
2047,16	-7,5	-3,296
2048,966	-2	-1,67
2050,772	1	0
2052,578	0,5	-0,061
2054,384	-2	-1,576
2056,184	-8,5	-3,06
2057,99	-9,5	-3,48
2059,796	-4,5	-2,572
2061,608	-1,5	-1,196
2063,413	1	-0,001
2065,219	0,5	-0,089
2067,025	-1,5	-1,498
2068,837	-8	-3,018
2070,643	-9,5	-3,484
2072,455	-5	-2,744
2074,267	-1	-1,198
2076,073	1	-0,001
2077,879	0	-0,231
2079,679	-2	-1,733
2081,484	-9,5	-3,327
2083,29	-9	-3,452
2085,096	-3,5	-2,295
2086,902	-0,5	-0,819
2088,702	1	-0,003
2090,502	0	-0,257
2092,308	-2,5	-1,71
2094,12	-9	-3,109
2095,926	-9	-3,455
2097,737	-4	-2,398
2099,543	-1	-0,922
2101,349	1	-0,002
2103,155	0	-0,2
2104,967	-2	-1,628
2106,773	-8,5	-3,114
2108,585	-9	-3,468
2110,397	-4	-2,512
2112,203	-1	-1,031
2114,009	1	-0,002
2115,814	0,5	-0,209
2117,626	-2	-1,622
2119,432	-9	-3,12
2121,232	-9,5	-3,466
2123,038	-4	-2,504
2124,844	-1	-0,991
2126,65	1	-0,002
2128,456	0	-0,164
2130,262	-2	-1,601
2132,067	-8,5	-3,045
2133,873	-9,5	-3,48
2135,679	-4	-2,529
2137,485	-1	-1,09
2139,285	1	-0,002
2141,097	0,5	-0,13
2142,903	-2	-1,562
2144,709	-9	-3,1
2146,515	-9	-3,482
2148,321	-4	-2,574
2150,132	-1,5	-1,111
2151,938	1	-0,002
2153,75	0,5	-0,112
2155,55	-1,5	-1,389
2157,362	-6,5	-2,814
2159,168	-9,5	-3,492
2160,974	-5	-2,924
2162,774	-1,5	-1,434
2164,574	1	0
2166,386	0,5	-0,036
2168,191	-1	-1,158
2169,997	-6,5	-2,693
2171,803	-9,5	-3,494
2173,615	-5,5	-3,048
2175,421	-1,5	-1,604
2177,233	1	-0,135
2179,039	1	-0,024
2180,845	-0,5	-0,931
2182,651	-5	-2,443
2184,456	-9	-3,498
2186,262	-7	-3,341
2188,068	-2,5	-1,86
2189,874	1	-0,293
2191,686	1	-0,012
2193,486	-0,5	-0,79
2195,292	-4,5	-2,319
2197,098	-9,5	-3,499
2198,904	-7	-3,357
2200,716	-2,5	-1,921
2202,521	0,5	-0,438
2204,327	1	-0,011
2206,133	0	-0,636
2207,933	-4	-2,174
2209,739	-9,5	-3,499
2211,545	-7,5	-3,387
2213,351	-2,5	-1,966
2215,151	1,5	-0,273
2216,963	1	-0,013
2218,769	-0,5	-0,955
2220,574	-4,5	-2,398
2222,386	-9,5	-3,499
2224,192	-7,5	-3,344
2225,998	-2,5	-1,963
2227,804	0,5	-0,497
2229,622	1,5	-0,007
2231,428	0	-0,581
2233,234	-3,5	-2,062
2235,04	-9	-3,5
2236,852	-8	-3,415
2238,657	-2,5	-2,166
2240,457	0	-0,73
2242,263	1	-0,004
2244,063	0	-0,412
2245,869	-3	-1,945
2247,675	-9	-3,412
2249,481	-8,5	-3,44
2251,281	-2,5	-2,127
2253,093	0	-0,57
2254,898	1	-0,007
2256,698	0	-0,609
2258,504	-3	-2,015
2260,31	-9	-3,482
2262,116	-8,5	-3,439
2263,922	-3	-2,171
2265,728	0	-0,621
2267,534	1	-0,006
2269,334	0	-0,578
2271,14	-3,5	-2,069
2272,945	-9,5	-3,499
2274,751	-7,5	-3,372
2276,557	-2	-1,938
2278,363	0	-0,515
2280,169	1	-0,008
2281,975	0	-0,623
2283,775	-4	-2,161
2285,581	-9,5	-3,499
2287,387	-7,5	-3,38
2289,193	-2,5	-2,101
2290,998	0	-0,578
2292,804	1	-0,007
2294,604	0	-0,58
2296,41	-3,5	-2,161
2298,216	-9	-3,499
2300,022	-7,5	-3,358
2301,828	-2,5	-1,888
2303,634	0,5	-0,455
2305,434	1	-0,009
2307,246	0	-0,492
2309,051	-3	-1,998
2310,851	-9	-3,497
2312,657	-8	-3,431
2314,463	-3	-2,26
2316,269	-0,5	-0,752
2318,069	1	-0,004
2319,875	0	-0,463
2321,687	-3	-1,898
2323,493	-9,5	-3,381
2325,298	-9	-3,46
2327,104	-3	-2,284
2328,916	-0,5	-0,817
2330,722	1	-0,004
2332,528	0	-0,476
2334,34	-3	-2,012
2336,146	-9	-3,5
2337,952	-8,5	-3,43
2339,764	-3	-2,148
2341,57	0	-0,661
2343,375	1,5	-0,004
2345,181	0	-0,493
2346,981	-3	-2,056
2348,781	-9	-3,5
2350,587	-7,5	-3,409
2352,393	-2,5	-2,043
2354,205	0	-0,564
2356,005	1	-0,007
2357,805	0	-0,622
2359,61	-3,5	-2,167
2361,416	-9	-3,499
2363,216	-7,5	-3,37
2365,022	-2,5	-1,943
2366,828	0,5	-0,424
2368,634	1	-0,01
2370,446	-0,5	-0,722
2372,246	-3,5	-2,248
2374,052	-9	-3,499
2375,858	-7,5	-3,366
2377,663	-2,5	-1,925
2379,469	1	-0,373
2381,275	1	-0,013
2383,081	0	-0,769
2384,893	-3,5	-2,14
2386,699	-9	-3,499
2388,505	-7	-3,373
2390,311	-2	-1,903
2392,117	0,5	-0,384
2393,923	1	-0,014
2395,722	-0,5	-0,874
2397,528	-4,5	-2,327
2399,334	-8,5	-3,498
2401,146	-7	-3,336
2402,952	-2	-1,916
2404,758	0,5	-0,329
2406,564	1	-0,016
2408,376	-0,5	-0,858
2410,188	-4,5	-2,368
2411,988	-8,5	-3,498
2413,799	-6	-3,194
2415,605	-1,5	-1,649
2417,417	1	-0,113
2419,223	1	-0,027
2421,023	-1	-1,118
2422,823	-5,5	-2,608
2424,629	-9	-3,496
2426,435	-5,5	-3,087
2428,241	-1,5	-1,552
2430,046	1	-0,003
2431,852	1	-0,033
2433,652	-1	-1,144
2435,458	-5,5	-2,657
2437,258	-8,5	-3,494
2439,082	-5	-3,034
2440,894	-1,5	-1,504
2442,7	1	-0,012
2444,5	1	-0,038
2446,312	-0,5	-1,098
2448,117	-4,5	-2,538
2449,923	-8,5	-3,496
2451,735	-6	-3,203
2453,541	-1,5	-1,717
2455,347	1	-0,206
2457,153	1	-0,021
2458,959	-0,5	-0,934
2460,765	-4,5	-2,489
2462,571	-8,5	-3,497
2464,376	-5,5	-3,083
2466,188	-1,5	-1,542
2467,994	1	-0,003
2469,8	1	-0,038
2471,606	-0,5	-1,14
2473,412	-5	-2,632
2475,218	-8,5	-3,495
2477,018	-5	-3,065
2478,824	-1,5	-1,526
2480,624	1	0
2482,429	1	-0,044
2484,229	-0,5	-1,249
2486,035	-6	-2,804
2487,841	-8,5	-3,493
2489,653	-4,5	-2,884
2491,459	-1	-1,318
2493,265	1	-0,001
2495,071	0,5	-0,058
2496,889	-0,5	-1,219
2498,689	-5	-2,704
2500,488	-8,5	-3,492
2502,3	-4,5	-2,831
2504,106	-1	-1,318
2505,912	1	-0,001
2507,712	0,5	-0,088
2509,512	-1	-1,5
2511,318	-7	-2,99
2513,13	-8	-3,488
2514,936	-4,5	-2,735
2516,742	-1	-1,196
2518,547	1	-0,001
2520,353	0,5	-0,102
2522,159	-1	-1,408
2523,965	-7,5	-2,964
2525,771	-8	-3,486
2527,571	-4	-2,696
2529,377	-1	-1,174
2531,177	1	-0,001
2532,989	0,5	-0,105
2534,788	-1	-1,528
2536,588	-7	-3,045
2538,394	-8	-3,48
2540,2	-3	-2,475
2542,006	-1	-1,01
2543,812	1	-0,002
2545,618	0,5	-0,186
2547,424	-1,5	-1,716
2549,23	-8	-3,253
2551,036	-8	-3,471
2552,841	-3	-2,494
2554,647	-1	-1,012
2556,447	1	-0,002
2558,253	0	-0,186
2560,053	-1,5	-1,741
2561,865	-7,5	-3,108
2563,671	-8	-3,479
2565,483	-3,5	-2,592
2567,283	-1	-1,011
2569,095	1	-0,002
2570,9	0	-0,172
2572,712	-1,5	-1,617
2574,518	-7,5	-3,146
2576,324	-7,5	-3,475
2578,13	-3	-2,517
2579,936	-1	-0,994
2581,742	1	-0,002
2583,548	0	-0,252
2585,36	-1,5	-1,728
2587,165	-7,5	-3,243
2588,971	-7,5	-3,464
2590,777	-3	-2,428
2592,583	-0,5	-0,872
2594,383	1	-0,004
2596,189	0	-0,363
2598,001	-2	-1,943
2599,807	-8	-3,5
2637,737	-7,5	-3,499
2639,548	-6,5	-3,398
2641,348	-2	-1,947
2643,154	0,5	-0,423
2644,966	1	-0,01
2646,772	0	-0,779
2648,584	-3	-2,236
2650,39	-7,5	-3,499
2652,196	-6	-3,356
2654,002	-2,5	-1,973
2655,808	0,5	-0,492
2657,619	1,5	-0,008
2659,425	0	-0,643
2661,225	-2,5	-2,201
2663,031	-7,5	-3,499
2664,843	-6	-3,356
2666,649	-2	-1,904
2668,449	0,5	-0,365
2670,255	1	-0,012
2672,061	0	-0,803
2673,873	-3	-2,232
2675,678	-7,5	-3,499
2677,49	-6	-3,357
2679,296	-2	-1,963
2681,108	0,5	-0,539
2682,914	1	-0,008
2684,72	0	-0,641
2686,52	-3	-2,189
2688,326	-7,5	-3,499
2690,132	-6	-3,368
2691,938	-2	-1,993
2693,743	0,5	-0,469
2695,549	1	-0,009
2697,349	0	-0,704
2699,155	-3	-2,248
2700,961	-7,5	-3,499
2702,761	-6	-3,353
2704,567	-2	-1,903
2706,373	0,5	-0,423
2708,179	1	-0,01
2709,984	0	-0,732
2711,79	-3,5	-2,324
2713,596	-7,5	-3,498
2715,402	-6	-3,334
2717,208	-2	-1,885
2719,014	0,5	-0,313
2720,82	1	-0,015
2722,626	0	-0,836
2724,432	-3,5	-2,368
2726,238	-7,5	-3,498
2728,043	-5,5	-3,282
2729,855	-2	-1,816
2731,661	0,5	-0,356
2733,467	1	-0,012
2735,273	0	-0,787
2737,079	-3	-2,298
2738,885	-7,5	-3,499
2740,691	-5,5	-3,348
2742,503	-2	-1,892
2744,308	0,5	-0,41
2746,12	1	-0,009
2747,926	0	-0,719
2749,726	-3	-2,219
2751,532	-7,5	-3,499
2753,344	-6,5	-3,428
2755,15	-2	-2,164
2756,962	0	-0,654
2758,762	1	-0,005
2760,568	0	-0,488
2762,379	-2,5	-1,986
2764,185	-7,5	-3,5
2765,997	-6,5	-3,414
2767,797	-2	-2,021
2769,597	0,5	-0,509
2771,403	1	-0,007
2773,209	0	-0,552
2775,015	-2	-2,034
2776,827	-7,5	-3,426
2778,639	-7	-3,457
2780,445	-2,5	-2,292
2782,244	0	-0,761
2784,05	1,5	-0,005
2785,856	0	-0,505
2787,662	-2,5	-2,108
2789,474	-7,5	-3,5
2791,28	-6	-3,42
2793,086	-2	-2,094
2794,892	0,5	-0,484
2796,703	1	-0,008
2798,509	0	-0,64
2800,315	-2,5	-2,142
2802,121	-7,5	-3,499
2803,927	-5,5	-3,348
2805,733	-2	-1,93
2807,533	0,5	-0,38
2809,339	1	-0,012
2811,145	0	-0,848
2812,957	-3	-2,33
2814,763	-7,5	-3,499
2816,574	-5,5	-3,324
2854,51	-5	-3,241
2856,322	-1,5	-1,767
2858,122	1	-0,194
2859,928	1,5	-0,025
2861,74	0	-0,932
2863,546	-3	-2,455
2865,352	-7	-3,498
2867,157	-4,5	-3,192
2868,957	-1,5	-1,687
2870,757	1	-0,084
2872,563	1	-0,028
2874,363	-0,5	-1,094
2876,169	-4	-2,596
2877,975	-7,5	-3,496
2879,775	-3,5	-2,953
2881,581	-1	-1,44
2883,386	1	-0,001
2885,192	0,5	-0,073
2886,998	-0,5	-1,339
2888,81	-5	-2,827
2890,61	-7	-3,491
2892,416	-3,5	-2,834
2894,222	-1	-1,282
2896,022	1	-0,001
2897,822	0,5	-0,116
2899,628	-1	-1,47
2901,434	-6,5	-2,989
2903,239	-7	-3,486
2905,051	-3,5	-2,716
2906,857	-1	-1,219
2908,663	1	-0,001
2910,469	0,5	-0,081
2912,275	-0,5	-1,396
2914,087	-5	-2,883
2915,893	-7	-3,49
2917,699	-3	-2,732
2919,498	-1	-1,231
2921,304	1	-0,001
2923,11	0,5	-0,079
2924,916	-0,5	-1,303
2926,722	-5	-2,788
2928,528	-7	-3,492
2930,334	-4	-2,869
2932,14	-1	-1,319
2933,946	1	-0,001
2935,752	1	-0,052
2937,557	-0,5	-1,247
2939,363	-4,5	-2,738
2941,175	-7	-3,494
2942,981	-4	-2,938
2944,793	-1	-1,472
2946,599	1	0
2948,405	1	-0,045
2950,211	-0,5	-1,179
2952,023	-4	-2,624
2953,823	-7,5	-3,496
2955,628	-4,5	-3,031
2957,44	-1,5	-1,617
2959,246	1	-0,132
2961,052	1	-0,027
2962,858	-0,5	-0,934
2964,664	-3	-2,364
2966,47	-7	-3,499
2968,276	-5,5	-3,339
2970,088	-2	-1,92
2971,894	0,5	-0,481
2973,693	1	-0,011
2975,499	0	-0,755
2977,311	-2,5	-2,115
2979,111	-7	-3,499
2980,917	-6	-3,407
2982,723	-2	-2,09
2984,529	0	-0,576
2986,341	1	-0,006
2988,147	0	-0,515
2989,958	-2	-2,035
2991,764	-7	-3,5
2993,576	-6,5	-3,434
2995,382	-2,5	-2,188
2997,182	0	-0,746
2998,988	1	-0,004
3000,794	0	-0,328
3002,6	-1,5	-1,799
3004,406	-7	-3,294
3006,224	-6,5	-3,472
3008,029	-2,5	-2,417
3009,841	-1	-1,041
3011,647	1	-0,002
3013,447	0,5	-0,138
3015,253	-0,5	-1,47
3017,059	-5	-2,919
3018,865	-7	-3,489
3020,671	-3,5	-2,797
3022,477	-1	-1,348
3024,283	1	-0,001
3026,088	0,5	-0,06
3027,894	-0,5	-1,244
3029,706	-4,5	-2,653
3031,512	-7	-3,496
3033,318	-4,5	-3,064
3035,118	-1,5	-1,536
3036,924	1	-0,003
3038,73	1	-0,045
3040,536	-0,5	-1,193
3042,335	-4	-2,714
3044,135	-7	-3,494
3045,941	-4	-3,002
3047,747	-1	-1,501
3049,553	1,5	0
3051,359	1	-0,046
3053,171	0	-1,13
3054,977	-4	-2,632
3056,789	-7	-3,496
3058,595	-4,5	-3,039
3060,395	-1	-1,486
3062,2	1,5	0
3064,006	1	-0,041
3065,818	-0,5	-1,135
3067,618	-4	-2,663
3069,424	-7	-3,495
3071,23	-4	-3,04
3073,042	-1,5	-1,54
3074,848	1	-0,006
3076,66	1	-0,031
3078,465	-0,5	-1,065
3080,271	-3,5	-2,642
3082,077	-7	-3,495
3083,877	-3,5	-2,966
3085,683	-1	-1,414
3087,483	1	0
3089,295	1	-0,058
3091,101	-0,5	-1,285
3092,913	-4,5	-2,762
3094,718	-7	-3,494
3096,524	-4	-3,045
3098,33	-1	-1,532
3100,136	1	-0,021
3101,948	1	-0,035
3103,754	-0,5	-1,099
3105,566	-3,5	-2,56
3107,372	-7	-3,497
3109,178	-4,5	-3,14
3110,984	-1,5	-1,685
3112,795	1	-0,181
3114,601	1	-0,022
3116,407	0	-0,924
3118,213	-3	-2,384
3120,019	-7	-3,498
3121,825	-5	-3,299
3123,631	-1,5	-1,851
3125,443	0,5	-0,362
3127,249	1	-0,012
3129,055	0	-0,797
3130,86	-2,5	-2,256
3132,672	-7	-3,499
3134,478	-6	-3,407
3136,284	-2	-2,105
3138,09	0	-0,66
3139,896	1	-0,006
3141,702	0	-0,53
3143,502	-1,5	-2,03
3145,308	-6,5	-3,497
3147,107	-6	-3,442
3148,919	-2,5	-2,248
3150,719	0	-0,705
3152,525	1	-0,005
3154,337	0	-0,424
3156,143	-1,5	-1,894
3157,949	-6,5	-3,383
3159,749	-6,5	-3,453
3161,555	-2,5	-2,269
3163,169	1	-0,001